Version	Date	Stimuli	Method	Subject	Session	Condition	Trial	Target	Channel1	Channel2	Distractors	LMouseButton	RMouseButton	RT	TargetX	TargetY	ResponseX	ResponseY	Correct
2.7	2015_May_29_1552	s	s	15	4	Capacity	1	RC	0	2	15RD 08RO	1	0	0.809121847153	-83.0	290.0	-78	296	1
2.7	2015_May_29_1552	s	s	15	4	Capacity	2	RC	0	1	08RD 15RO	1	0	1.78300619125	-71.0	-189.0	-64	-185	1
2.7	2015_May_29_1552	s	s	15	4	Capacity	3	ABS	0	1	08RD 16RO	0	1	2.54187583923	None	None	None	None	1
2.7	2015_May_29_1552	s	s	15	4	Capacity	4	ABS	0	2	16RD 08RO	0	1	2.44428110123	None	None	None	None	1
2.7	2015_May_29_1552	s	s	15	4	Capacity	5	ABS	0	2	16RD 08RO	0	1	2.83274316788	None	None	None	None	1
2.7	2015_May_29_1552	s	s	15	4	Capacity	6	RC	0	2	15RD 08RO	1	0	2.64776492119	-465.0	-385.0	-452	-376	1
2.7	2015_May_29_1552	s	s	15	4	Capacity	7	ABS	0	1	08RD 16RO	0	1	3.52570080757	None	None	None	None	1
2.7	2015_May_29_1552	s	s	15	4	Capacity	8	RC	0	1	08RD 15RO	1	0	2.53645086288	403.0	-366.0	406	-364	1
2.7	2015_May_29_1552	s	s	15	4	Capacity	9	RC	0	1	08RD 15RO	1	0	2.6214799881	457.0	-307.0	456	-304	1
2.7	2015_May_29_1552	s	s	15	4	Capacity	10	ABS	0	2	16RD 08RO	0	1	3.10670804977	None	None	None	None	1
2.7	2015_May_29_1552	s	s	15	4	Capacity	11	ABS	0	1	08RD 16RO	0	1	4.09556984901	None	None	None	None	1
2.7	2015_May_29_1552	s	s	15	4	Capacity	12	RC	0	2	15RD 08RO	1	0	0.893923997879	158.0	32.0	159	33	1
2.7	2015_May_29_1552	s	s	15	4	Capacity	13	ABS	0	2	16RD 08RO	0	1	2.56534981728	None	None	None	None	1
2.7	2015_May_29_1552	s	s	15	4	Capacity	14	ABS	0	1	08RD 16RO	0	1	5.67650318146	None	None	None	None	1
2.7	2015_May_29_1552	s	s	15	4	Capacity	15	RC	0	2	15RD 08RO	1	0	0.842373132706	-94.0	-5.0	-96	-16	1
2.7	2015_May_29_1552	s	s	15	4	Capacity	16	RC	0	1	08RD 15RO	1	0	3.10701203346	104.0	-349.0	106	-364	1
2.7	2015_May_29_1552	s	s	15	4	Capacity	17	RC	0	2	15RD 08RO	1	0	2.37699198723	346.0	317.0	342	311	1
2.7	2015_May_29_1552	s	s	15	4	Capacity	18	ABS	0	2	16RD 08RO	0	1	2.95997691154	None	None	None	None	1
2.7	2015_May_29_1552	s	s	15	4	Capacity	19	ABS	0	1	08RD 16RO	0	1	4.85263490677	None	None	None	None	1
2.7	2015_May_29_1552	s	s	15	4	Capacity	20	RC	0	1	08RD 15RO	1	0	0.846811056137	-270.0	343.0	-271	346	1
2.7	2015_May_29_1552	s	s	15	4	Capacity	21	ABS	0	1	08RD 16RO	0	1	3.95423793793	None	None	None	None	1
2.7	2015_May_29_1552	s	s	15	4	Capacity	22	RC	0	2	15RD 08RO	1	0	0.664910078049	536.0	-222.0	18	-15	0
2.7	2015_May_29_1552	s	s	15	4	Capacity	23	RC	0	1	08RD 15RO	1	0	0.976285934448	-439.0	127.0	-438	117	1
2.7	2015_May_29_1552	s	s	15	4	Capacity	24	ABS	0	2	16RD 08RO	0	1	3.1378018856	None	None	None	None	1
2.7	2015_May_29_1552	s	s	15	4	Capacity	25	RC	0	1	08RD 15RO	1	0	0.939116001129	188.0	-21.0	188	-21	1
2.7	2015_May_29_1552	s	s	15	4	Capacity	26	ABS	0	1	08RD 16RO	0	1	4.8902130127	None	None	None	None	1
2.7	2015_May_29_1552	s	s	15	4	Capacity	27	RC	0	2	15RD 08RO	1	0	2.54976415634	354.0	-360.0	350	-356	1
2.7	2015_May_29_1552	s	s	15	4	Capacity	28	ABS	0	2	16RD 08RO	0	1	2.89236783981	None	None	None	None	1
2.7	2015_May_29_1552	s	s	15	4	Capacity	29	RC	0	1	08RD 15RO	1	0	1.04069900513	187.0	29.0	183	20	1
2.7	2015_May_29_1552	s	s	15	4	Capacity	30	ABS	0	2	16RD 08RO	0	1	3.95178294182	None	None	None	None	1
2.7	2015_May_29_1552	s	s	15	4	Capacity	31	RC	0	2	15RD 08RO	1	0	1.28236413002	-281.0	-219.0	-280	-219	1
2.7	2015_May_29_1552	s	s	15	4	Capacity	32	ABS	0	1	08RD 16RO	0	1	3.67166805267	None	None	None	None	1
2.7	2015_May_29_1552	s	s	15	4	Capacity	33	RC	0	2	15RD 08RO	1	0	1.31768298149	-22.0	-238.0	-22	-229	1
2.7	2015_May_29_1552	s	s	15	4	Capacity	34	ABS	0	2	16RD 08RO	0	1	2.62095117569	None	None	None	None	1
2.7	2015_May_29_1552	s	s	15	4	Capacity	35	ABS	0	1	08RD 16RO	0	1	4.24416184425	None	None	None	None	1
2.7	2015_May_29_1552	s	s	15	4	Capacity	36	RC	0	1	08RD 15RO	1	0	2.63153195381	271.0	-315.0	264	-314	1
2.7	2015_May_29_1552	s	s	15	4	Capacity	37	RC	0	1	08RD 15RO	0	1	4.52751088142	-272.0	323.0	None	None	0
2.7	2015_May_29_1552	s	s	15	4	Capacity	38	ABS	0	2	16RD 08RO	0	1	3.16122508049	None	None	None	None	1
2.7	2015_May_29_1552	s	s	15	4	Capacity	39	ABS	0	1	08RD 16RO	0	1	4.51930499077	None	None	None	None	1
2.7	2015_May_29_1552	s	s	15	4	Capacity	40	RC	0	2	15RD 08RO	1	0	2.65456700325	-178.0	360.0	-171	360	1
2.7	2015_May_29_1552	s	s	15	4	Capacity	41	RC	0	2	15RD 08RO	1	0	1.16457295418	-435.0	46.0	-430	45	1
2.7	2015_May_29_1552	s	s	15	4	Capacity	42	RC	0	1	08RD 15RO	1	0	1.23528909683	-406.0	394.0	-406	391	1
2.7	2015_May_29_1552	s	s	15	4	Capacity	43	ABS	0	2	16RD 08RO	1	0	0.635032892227	None	None	-10	169	0
2.7	2015_May_29_1552	s	s	15	4	Capacity	44	ABS	0	1	08RD 16RO	0	1	5.46959400177	None	None	None	None	1
2.7	2015_May_29_1552	s	s	15	4	Capacity	45	ABS	0	2	16RD 08RO	0	1	3.50694417953	None	None	None	None	1
2.7	2015_May_29_1552	s	s	15	4	Capacity	46	RC	0	2	15RD 08RO	1	0	1.88012218475	388.0	295.0	392	292	1
2.7	2015_May_29_1552	s	s	15	4	Capacity	47	ABS	0	1	08RD 16RO	0	1	7.3676970005	None	None	None	None	1
2.7	2015_May_29_1552	s	s	15	4	Capacity	48	RC	0	1	08RD 15RO	1	0	2.10191917419	-503.0	281.0	-497	287	1
2.7	2015_May_29_1552	s	s	15	4	Capacity	49	ABS	0	1	08RD 16RO	0	1	6.63325214386	None	None	None	None	1
2.7	2015_May_29_1552	s	s	15	4	Capacity	50	ABS	0	2	16RD 08RO	0	1	3.65659284592	None	None	None	None	1
2.7	2015_May_29_1552	s	s	15	4	Capacity	51	RC	0	1	08RD 15RO	1	0	3.46000003815	-448.0	14.0	-445	9	1
2.7	2015_May_29_1552	s	s	15	4	Capacity	52	RC	0	2	15RD 08RO	1	0	2.60810303688	-455.0	-198.0	-450	-200	1
2.7	2015_May_29_1552	s	s	15	4	Capacity	53	ABS	0	1	08RD 16RO	0	1	5.66998291016	None	None	None	None	1
2.7	2015_May_29_1552	s	s	15	4	Capacity	54	RC	0	2	15RD 08RO	1	0	0.933349847794	-411.0	393.0	-405	391	1
2.7	2015_May_29_1552	s	s	15	4	Capacity	55	ABS	0	2	16RD 08RO	0	1	2.91292500496	None	None	None	None	1
2.7	2015_May_29_1552	s	s	15	4	Capacity	56	RC	0	1	08RD 15RO	1	0	5.15237498283	308.0	319.0	315	312	1
2.7	2015_May_29_1552	s	s	15	4	Capacity	57	RC	0	2	15RD 08RO	1	0	3.14831805229	397.0	-186.0	390	-191	1
2.7	2015_May_29_1552	s	s	15	4	Capacity	58	RC	0	1	08RD 15RO	1	0	0.771040916443	90.0	249.0	90	247	1
2.7	2015_May_29_1552	s	s	15	4	Capacity	59	ABS	0	1	08RD 16RO	0	1	4.20824408531	None	None	None	None	1
2.7	2015_May_29_1552	s	s	15	4	Capacity	60	ABS	0	2	16RD 08RO	0	1	5.2843978405	None	None	None	None	1
2.7	2015_May_29_1552	s	s	15	4	Capacity	61	RC	0	1	08RD 15RO	1	0	0.902899980545	-461.0	48.0	-466	54	1
2.7	2015_May_29_1552	s	s	15	4	Capacity	62	RC	0	2	15RD 08RO	1	0	1.39519000053	141.0	134.0	143	133	1
2.7	2015_May_29_1552	s	s	15	4	Capacity	63	ABS	0	1	08RD 16RO	0	1	5.36340093613	None	None	None	None	1
2.7	2015_May_29_1552	s	s	15	4	Capacity	64	ABS	0	2	16RD 08RO	0	1	3.71889901161	None	None	None	None	1
2.7	2015_May_29_1552	s	s	15	4	Capacity	1	ABS	1	0	08VC 16MC	0	1	2.01597285271	None	None	None	None	1
2.7	2015_May_29_1552	s	s	15	4	Capacity	2	RC	1	0	08VC 15MC	1	0	0.996226072311	234.0	-268.0	234	-265	1
2.7	2015_May_29_1552	s	s	15	4	Capacity	3	RC	2	0	15VC 08MC	1	0	0.799731969833	-432.0	-133.0	-427	-124	1
2.7	2015_May_29_1552	s	s	15	4	Capacity	4	ABS	2	0	16VC 08MC	0	1	1.57229089737	None	None	None	None	1
2.7	2015_May_29_1552	s	s	15	4	Capacity	5	RC	1	0	08VC 15MC	1	0	0.682051897049	-352.0	-116.0	-346	-114	1
2.7	2015_May_29_1552	s	s	15	4	Capacity	6	ABS	2	0	16VC 08MC	0	1	1.17644691467	None	None	None	None	1
2.7	2015_May_29_1552	s	s	15	4	Capacity	7	ABS	1	0	08VC 16MC	0	1	1.9856979847	None	None	None	None	1
2.7	2015_May_29_1552	s	s	15	4	Capacity	8	RC	2	0	15VC 08MC	1	0	0.466064929962	-32.0	-160.0	-28	-156	1
2.7	2015_May_29_1552	s	s	15	4	Capacity	9	ABS	1	0	08VC 16MC	0	1	1.99658298492	None	None	None	None	1
2.7	2015_May_29_1552	s	s	15	4	Capacity	10	ABS	2	0	16VC 08MC	0	1	2.5303800106	None	None	None	None	1
2.7	2015_May_29_1552	s	s	15	4	Capacity	11	RC	1	0	08VC 15MC	1	0	0.540858030319	-128.0	-58.0	-128	-54	1
2.7	2015_May_29_1552	s	s	15	4	Capacity	12	RC	2	0	15VC 08MC	1	0	0.820574998856	444.0	-134.0	447	-133	1
2.7	2015_May_29_1552	s	s	15	4	Capacity	13	ABS	2	0	16VC 08MC	0	1	1.68246388435	None	None	None	None	1
2.7	2015_May_29_1552	s	s	15	4	Capacity	14	ABS	1	0	08VC 16MC	0	1	3.82486391068	None	None	None	None	1
2.7	2015_May_29_1552	s	s	15	4	Capacity	15	RC	2	0	15VC 08MC	1	0	0.595910787582	488.0	-3.0	487	4	1
2.7	2015_May_29_1552	s	s	15	4	Capacity	16	RC	1	0	08VC 15MC	1	0	1.76264190674	-257.0	-327.0	-259	-327	1
2.7	2015_May_29_1552	s	s	15	4	Capacity	17	ABS	1	0	08VC 16MC	0	1	1.55311393738	None	None	None	None	1
2.7	2015_May_29_1552	s	s	15	4	Capacity	18	RC	1	0	08VC 15MC	1	0	0.576038837433	331.0	-204.0	324	-197	1
2.7	2015_May_29_1552	s	s	15	4	Capacity	19	ABS	2	0	16VC 08MC	0	1	2.35349917412	None	None	None	None	1
2.7	2015_May_29_1552	s	s	15	4	Capacity	20	RC	2	0	15VC 08MC	1	0	0.55256986618	371.0	-124.0	368	-122	1
2.7	2015_May_29_1552	s	s	15	4	Capacity	21	ABS	2	0	16VC 08MC	0	1	1.28844380379	None	None	None	None	1
2.7	2015_May_29_1552	s	s	15	4	Capacity	22	ABS	1	0	08VC 16MC	0	1	2.40101909637	None	None	None	None	1
2.7	2015_May_29_1552	s	s	15	4	Capacity	23	RC	1	0	08VC 15MC	1	0	1.08952593803	524.0	-391.0	518	-387	1
2.7	2015_May_29_1552	s	s	15	4	Capacity	24	RC	2	0	15VC 08MC	1	0	1.55297088623	159.0	385.0	157	393	1
2.7	2015_May_29_1552	s	s	15	4	Capacity	25	RC	2	0	15VC 08MC	1	0	1.20928096771	-436.0	148.0	-431	140	1
2.7	2015_May_29_1552	s	s	15	4	Capacity	26	ABS	2	0	16VC 08MC	0	1	1.18824100494	None	None	None	None	1
2.7	2015_May_29_1552	s	s	15	4	Capacity	27	RC	1	0	08VC 15MC	1	0	0.517163038254	-273.0	-193.0	-272	-197	1
2.7	2015_May_29_1552	s	s	15	4	Capacity	28	ABS	1	0	08VC 16MC	0	1	2.16907596588	None	None	None	None	1
2.7	2015_May_29_1552	s	s	15	4	Capacity	29	ABS	2	0	16VC 08MC	0	1	1.93858194351	None	None	None	None	1
2.7	2015_May_29_1552	s	s	15	4	Capacity	30	RC	1	0	08VC 15MC	1	0	0.723182916641	333.0	228.0	324	227	1
2.7	2015_May_29_1552	s	s	15	4	Capacity	31	RC	2	0	15VC 08MC	1	0	0.811629056931	299.0	164.0	294	164	1
2.7	2015_May_29_1552	s	s	15	4	Capacity	32	ABS	1	0	08VC 16MC	0	1	1.86834597588	None	None	None	None	1
2.7	2015_May_29_1552	s	s	15	4	Capacity	33	ABS	1	0	08VC 16MC	0	1	1.7373650074	None	None	None	None	1
2.7	2015_May_29_1552	s	s	15	4	Capacity	34	ABS	2	0	16VC 08MC	0	1	2.91213798523	None	None	None	None	1
2.7	2015_May_29_1552	s	s	15	4	Capacity	35	RC	2	0	15VC 08MC	1	0	0.999855041504	-314.0	268.0	-318	271	1
2.7	2015_May_29_1552	s	s	15	4	Capacity	36	RC	1	0	08VC 15MC	1	0	0.893985033035	71.0	211.0	66	204	1
2.7	2015_May_29_1552	s	s	15	4	Capacity	37	ABS	1	0	08VC 16MC	0	1	2.39552092552	None	None	None	None	1
2.7	2015_May_29_1552	s	s	15	4	Capacity	38	RC	2	0	15VC 08MC	1	0	0.538676023483	66.0	100.0	68	95	1
2.7	2015_May_29_1552	s	s	15	4	Capacity	39	RC	1	0	08VC 15MC	1	0	2.08305501938	392.0	-344.0	388	-349	1
2.7	2015_May_29_1552	s	s	15	4	Capacity	40	ABS	2	0	16VC 08MC	0	1	2.14865899086	None	None	None	None	1
2.7	2015_May_29_1552	s	s	15	4	Capacity	41	RC	2	0	15VC 08MC	1	0	1.20689296722	240.0	-297.0	237	-299	1
2.7	2015_May_29_1552	s	s	15	4	Capacity	42	ABS	1	0	08VC 16MC	0	1	2.72205615044	None	None	None	None	1
2.7	2015_May_29_1552	s	s	15	4	Capacity	43	ABS	2	0	16VC 08MC	0	1	2.93040585518	None	None	None	None	1
2.7	2015_May_29_1552	s	s	15	4	Capacity	44	RC	1	0	08VC 15MC	1	0	1.18824505806	316.0	390.0	309	395	1
2.7	2015_May_29_1552	s	s	15	4	Capacity	45	ABS	1	0	08VC 16MC	0	1	2.80930805206	None	None	None	None	1
2.7	2015_May_29_1552	s	s	15	4	Capacity	46	RC	1	0	08VC 15MC	1	0	1.02327394485	105.0	-265.0	101	-270	1
2.7	2015_May_29_1552	s	s	15	4	Capacity	47	ABS	2	0	16VC 08MC	0	1	0.623146057129	None	None	None	None	1
2.7	2015_May_29_1552	s	s	15	4	Capacity	48	RC	2	0	15VC 08MC	1	0	0.787966012955	-211.0	-395.0	-214	-386	1
2.7	2015_May_29_1552	s	s	15	4	Capacity	49	RC	2	0	15VC 08MC	1	0	0.61833691597	219.0	-71.0	211	-66	1
2.7	2015_May_29_1552	s	s	15	4	Capacity	50	ABS	2	0	16VC 08MC	0	1	1.99779391289	None	None	None	None	1
2.7	2015_May_29_1552	s	s	15	4	Capacity	51	ABS	1	0	08VC 16MC	0	1	1.94875097275	None	None	None	None	1
2.7	2015_May_29_1552	s	s	15	4	Capacity	52	RC	1	0	08VC 15MC	1	0	0.644000053406	95.0	273.0	95	269	1
2.7	2015_May_29_1552	s	s	15	4	Capacity	53	RC	2	0	15VC 08MC	1	0	0.670248031616	132.0	259.0	140	254	1
2.7	2015_May_29_1552	s	s	15	4	Capacity	54	ABS	2	0	16VC 08MC	0	1	2.56296610832	None	None	None	None	1
2.7	2015_May_29_1552	s	s	15	4	Capacity	55	ABS	1	0	08VC 16MC	0	1	3.08939194679	None	None	None	None	1
2.7	2015_May_29_1552	s	s	15	4	Capacity	56	RC	1	0	08VC 15MC	1	0	0.702445983887	-539.0	74.0	-545	66	1
2.7	2015_May_29_1552	s	s	15	4	Capacity	57	RC	2	0	15VC 08MC	0	1	0.0894961357117	-530.0	-392.0	None	None	0
2.7	2015_May_29_1552	s	s	15	4	Capacity	58	ABS	1	0	08VC 16MC	0	1	1.78459596634	None	None	None	None	1
2.7	2015_May_29_1552	s	s	15	4	Capacity	59	RC	1	0	08VC 15MC	0	1	4.01306200027	508.0	325.0	None	None	0
2.7	2015_May_29_1552	s	s	15	4	Capacity	60	ABS	2	0	16VC 08MC	0	1	2.73870706558	None	None	None	None	1
2.7	2015_May_29_1552	s	s	15	4	Capacity	61	ABS	2	0	16VC 08MC	0	1	4.12658214569	None	None	None	None	1
2.7	2015_May_29_1552	s	s	15	4	Capacity	62	RC	2	0	15VC 08MC	1	0	1.52964186668	-532.0	-145.0	-534	-140	1
2.7	2015_May_29_1552	s	s	15	4	Capacity	63	RC	1	0	08VC 15MC	1	0	2.24458384514	-145.0	-273.0	-146	-271	1
2.7	2015_May_29_1552	s	s	15	4	Capacity	64	ABS	1	0	08VC 16MC	0	1	3.20093107224	None	None	None	None	1
2.7	2015_May_29_1552	s	s	15	4	SIC	1	ABS	0	1	02VD 02VO 02VC 02MD 02MO 02MC 02RD 10RO	0	1	4.06938409805	None	None	None	None	1
2.7	2015_May_29_1552	s	s	15	4	SIC	2	ABS	0	2	02VD 02VO 02VC 02MD 02MO 02MC 10RD 02RO	0	1	2.66329216957	None	None	None	None	1
2.7	2015_May_29_1552	s	s	15	4	SIC	3	RC	0	1	02VD 02VO 02VC 02MD 02MO 02MC 02RD 09RO	1	0	0.999819993973	-353.0	266.0	-354	264	1
2.7	2015_May_29_1552	s	s	15	4	SIC	4	RC	1	0	02VD 02VO 02VC 02MD 02MO 09MC 02RD 02RO	0	1	2.81940102577	-471.0	-206.0	None	None	0
2.7	2015_May_29_1552	s	s	15	4	SIC	5	ABS	1	1	02VD 02VO 02VC 02MD 10MO 02MC 02RD 02RO	0	1	2.61242389679	None	None	None	None	1
2.7	2015_May_29_1552	s	s	15	4	SIC	6	RC	0	2	02VD 02VO 02VC 02MD 02MO 02MC 09RD 02RO	1	0	0.717420101166	57.0	49.0	56	48	1
2.7	2015_May_29_1552	s	s	15	4	SIC	7	RC	1	1	02VD 02VO 02VC 02MD 09MO 02MC 02RD 02RO	1	0	1.07101511955	307.0	-228.0	308	-229	1
2.7	2015_May_29_1552	s	s	15	4	SIC	8	RC	2	1	02VD 09VO 02VC 02MD 02MO 02MC 02RD 02RO	1	0	0.770339012146	-76.0	-83.0	-81	-77	1
2.7	2015_May_29_1552	s	s	15	4	SIC	9	ABS	2	1	02VD 10VO 02VC 02MD 02MO 02MC 02RD 02RO	0	1	2.38617920876	None	None	None	None	1
2.7	2015_May_29_1552	s	s	15	4	SIC	10	RC	2	2	09VD 02VO 02VC 02MD 02MO 02MC 02RD 02RO	1	0	0.854532957077	-297.0	300.0	-293	306	1
2.7	2015_May_29_1552	s	s	15	4	SIC	11	ABS	1	0	02VD 02VO 02VC 02MD 02MO 10MC 02RD 02RO	0	1	4.50743103027	None	None	None	None	1
2.7	2015_May_29_1552	s	s	15	4	SIC	12	ABS	2	0	02VD 02VO 10VC 02MD 02MO 02MC 02RD 02RO	0	1	2.48904800415	None	None	None	None	1
2.7	2015_May_29_1552	s	s	15	4	SIC	13	ABS	1	2	02VD 02VO 02VC 10MD 02MO 02MC 02RD 02RO	0	1	1.43100190163	None	None	None	None	1
2.7	2015_May_29_1552	s	s	15	4	SIC	14	RC	2	0	02VD 02VO 09VC 02MD 02MO 02MC 02RD 02RO	1	0	1.28262019157	-429.0	-281.0	-417	-279	1
2.7	2015_May_29_1552	s	s	15	4	SIC	15	ABS	2	2	10VD 02VO 02VC 02MD 02MO 02MC 02RD 02RO	0	1	1.94928503036	None	None	None	None	1
2.7	2015_May_29_1552	s	s	15	4	SIC	16	RC	1	2	02VD 02VO 02VC 09MD 02MO 02MC 02RD 02RO	1	0	0.794079065323	-126.0	234.0	-126	233	1
2.7	2015_May_29_1552	s	s	15	4	SIC	17	ABS	1	2	02VD 02VO 02VC 10MD 02MO 02MC 02RD 02RO	0	1	3.2543129921	None	None	None	None	1
2.7	2015_May_29_1552	s	s	15	4	SIC	18	ABS	2	2	10VD 02VO 02VC 02MD 02MO 02MC 02RD 02RO	0	1	2.65391492844	None	None	None	None	1
2.7	2015_May_29_1552	s	s	15	4	SIC	19	RC	1	2	02VD 02VO 02VC 09MD 02MO 02MC 02RD 02RO	1	0	1.01178789139	343.0	398.0	343	391	1
2.7	2015_May_29_1552	s	s	15	4	SIC	20	RC	2	0	02VD 02VO 09VC 02MD 02MO 02MC 02RD 02RO	1	0	0.568133831024	-76.0	329.0	-73	321	1
2.7	2015_May_29_1552	s	s	15	4	SIC	21	RC	1	0	02VD 02VO 02VC 02MD 02MO 09MC 02RD 02RO	1	0	1.68877315521	306.0	-160.0	302	-162	1
2.7	2015_May_29_1552	s	s	15	4	SIC	22	RC	2	2	09VD 02VO 02VC 02MD 02MO 02MC 02RD 02RO	1	0	0.929288864136	-520.0	199.0	-515	198	1
2.7	2015_May_29_1552	s	s	15	4	SIC	23	RC	0	2	02VD 02VO 02VC 02MD 02MO 02MC 09RD 02RO	1	0	1.5179040432	-380.0	-302.0	-377	-305	1
2.7	2015_May_29_1552	s	s	15	4	SIC	24	ABS	0	1	02VD 02VO 02VC 02MD 02MO 02MC 02RD 10RO	0	1	4.62298178673	None	None	None	None	1
2.7	2015_May_29_1552	s	s	15	4	SIC	25	ABS	1	1	02VD 02VO 02VC 02MD 10MO 02MC 02RD 02RO	0	1	2.24261188507	None	None	None	None	1
2.7	2015_May_29_1552	s	s	15	4	SIC	26	RC	2	1	02VD 09VO 02VC 02MD 02MO 02MC 02RD 02RO	1	0	1.36478304863	105.0	223.0	106	229	1
2.7	2015_May_29_1552	s	s	15	4	SIC	27	ABS	0	2	02VD 02VO 02VC 02MD 02MO 02MC 10RD 02RO	0	1	2.27822303772	None	None	None	None	1
2.7	2015_May_29_1552	s	s	15	4	SIC	28	RC	0	1	02VD 02VO 02VC 02MD 02MO 02MC 02RD 09RO	1	0	2.88984179497	-308.0	-128.0	-303	-129	1
2.7	2015_May_29_1552	s	s	15	4	SIC	29	RC	1	1	02VD 02VO 02VC 02MD 09MO 02MC 02RD 02RO	1	0	1.17627096176	495.0	216.0	502	218	1
2.7	2015_May_29_1552	s	s	15	4	SIC	30	ABS	2	1	02VD 10VO 02VC 02MD 02MO 02MC 02RD 02RO	0	1	2.94193100929	None	None	None	None	1
2.7	2015_May_29_1552	s	s	15	4	SIC	31	ABS	1	0	02VD 02VO 02VC 02MD 02MO 10MC 02RD 02RO	0	1	3.50712299347	None	None	None	None	1
2.7	2015_May_29_1552	s	s	15	4	SIC	32	ABS	2	0	02VD 02VO 10VC 02MD 02MO 02MC 02RD 02RO	0	1	2.29159212112	None	None	None	None	1
2.7	2015_May_29_1552	s	s	15	4	SIC	33	ABS	0	2	02VD 02VO 02VC 02MD 02MO 02MC 10RD 02RO	0	1	3.62472200394	None	None	None	None	1
2.7	2015_May_29_1552	s	s	15	4	SIC	34	ABS	2	0	02VD 02VO 10VC 02MD 02MO 02MC 02RD 02RO	0	1	2.41817116737	None	None	None	None	1
2.7	2015_May_29_1552	s	s	15	4	SIC	35	RC	0	1	02VD 02VO 02VC 02MD 02MO 02MC 02RD 09RO	1	0	0.846835136414	-9.0	189.0	-10	190	1
2.7	2015_May_29_1552	s	s	15	4	SIC	36	RC	2	1	02VD 09VO 02VC 02MD 02MO 02MC 02RD 02RO	1	0	1.38553094864	166.0	-201.0	164	-197	1
2.7	2015_May_29_1552	s	s	15	4	SIC	37	ABS	0	1	02VD 02VO 02VC 02MD 02MO 02MC 02RD 10RO	0	1	3.91507196426	None	None	None	None	1
2.7	2015_May_29_1552	s	s	15	4	SIC	38	RC	1	2	02VD 02VO 02VC 09MD 02MO 02MC 02RD 02RO	1	0	1.06729984283	-433.0	57.0	-429	62	1
2.7	2015_May_29_1552	s	s	15	4	SIC	39	RC	1	1	02VD 02VO 02VC 02MD 09MO 02MC 02RD 02RO	1	0	1.148209095	336.0	100.0	333	102	1
2.7	2015_May_29_1552	s	s	15	4	SIC	40	ABS	1	1	02VD 02VO 02VC 02MD 10MO 02MC 02RD 02RO	0	1	2.00742387772	None	None	None	None	1
2.7	2015_May_29_1552	s	s	15	4	SIC	41	RC	2	2	09VD 02VO 02VC 02MD 02MO 02MC 02RD 02RO	1	0	0.665908098221	-133.0	277.0	-122	280	1
2.7	2015_May_29_1552	s	s	15	4	SIC	42	ABS	1	0	02VD 02VO 02VC 02MD 02MO 10MC 02RD 02RO	0	1	2.04451203346	None	None	None	None	1
2.7	2015_May_29_1552	s	s	15	4	SIC	43	RC	2	0	02VD 02VO 09VC 02MD 02MO 02MC 02RD 02RO	1	0	1.55357909203	209.0	-280.0	197	-274	1
2.7	2015_May_29_1552	s	s	15	4	SIC	44	RC	1	0	02VD 02VO 02VC 02MD 02MO 09MC 02RD 02RO	1	0	0.981555938721	176.0	-245.0	180	-236	1
2.7	2015_May_29_1552	s	s	15	4	SIC	45	ABS	1	2	02VD 02VO 02VC 10MD 02MO 02MC 02RD 02RO	0	1	0.517250061035	None	None	None	None	1
2.7	2015_May_29_1552	s	s	15	4	SIC	46	ABS	2	2	10VD 02VO 02VC 02MD 02MO 02MC 02RD 02RO	0	1	2.44527697563	None	None	None	None	1
2.7	2015_May_29_1552	s	s	15	4	SIC	47	RC	0	2	02VD 02VO 02VC 02MD 02MO 02MC 09RD 02RO	1	0	1.0797791481	-207.0	-347.0	-204	-353	1
2.7	2015_May_29_1552	s	s	15	4	SIC	48	ABS	2	1	02VD 10VO 02VC 02MD 02MO 02MC 02RD 02RO	0	1	2.62412214279	None	None	None	None	1
2.7	2015_May_29_1552	s	s	15	4	SIC	49	ABS	2	2	10VD 02VO 02VC 02MD 02MO 02MC 02RD 02RO	0	1	2.12984681129	None	None	None	None	1
2.7	2015_May_29_1552	s	s	15	4	SIC	50	RC	2	0	02VD 02VO 09VC 02MD 02MO 02MC 02RD 02RO	1	0	0.576122999191	-327.0	282.0	-331	287	1
2.7	2015_May_29_1552	s	s	15	4	SIC	51	ABS	0	2	02VD 02VO 02VC 02MD 02MO 02MC 10RD 02RO	0	1	1.57345700264	None	None	None	None	1
2.7	2015_May_29_1552	s	s	15	4	SIC	52	ABS	0	1	02VD 02VO 02VC 02MD 02MO 02MC 02RD 10RO	0	1	2.19660711288	None	None	None	None	1
2.7	2015_May_29_1552	s	s	15	4	SIC	53	RC	0	2	02VD 02VO 02VC 02MD 02MO 02MC 09RD 02RO	1	0	1.24706077576	-360.0	-330.0	-357	-334	1
2.7	2015_May_29_1552	s	s	15	4	SIC	54	RC	2	2	09VD 02VO 02VC 02MD 02MO 02MC 02RD 02RO	1	0	1.588793993	381.0	-193.0	390	-194	1
2.7	2015_May_29_1552	s	s	15	4	SIC	55	RC	2	1	02VD 09VO 02VC 02MD 02MO 02MC 02RD 02RO	1	0	0.75000500679	-45.0	60.0	-43	56	1
2.7	2015_May_29_1552	s	s	15	4	SIC	56	RC	1	0	02VD 02VO 02VC 02MD 02MO 09MC 02RD 02RO	1	0	0.9113240242	-236.0	-7.0	-240	-14	1
2.7	2015_May_29_1552	s	s	15	4	SIC	57	ABS	1	0	02VD 02VO 02VC 02MD 02MO 10MC 02RD 02RO	0	1	3.15385293961	None	None	None	None	1
2.7	2015_May_29_1552	s	s	15	4	SIC	58	ABS	2	1	02VD 10VO 02VC 02MD 02MO 02MC 02RD 02RO	0	1	2.17710995674	None	None	None	None	1
2.7	2015_May_29_1552	s	s	15	4	SIC	59	RC	0	1	02VD 02VO 02VC 02MD 02MO 02MC 02RD 09RO	1	0	0.740923881531	151.0	369.0	154	361	1
2.7	2015_May_29_1552	s	s	15	4	SIC	60	RC	1	1	02VD 02VO 02VC 02MD 09MO 02MC 02RD 02RO	1	0	1.65541911125	-83.0	61.0	-89	65	1
2.7	2015_May_29_1552	s	s	15	4	SIC	61	ABS	1	2	02VD 02VO 02VC 10MD 02MO 02MC 02RD 02RO	0	1	2.71839594841	None	None	None	None	1
2.7	2015_May_29_1552	s	s	15	4	SIC	62	ABS	2	0	02VD 02VO 10VC 02MD 02MO 02MC 02RD 02RO	0	1	3.84263420105	None	None	None	None	1
2.7	2015_May_29_1552	s	s	15	4	SIC	63	RC	1	2	02VD 02VO 02VC 09MD 02MO 02MC 02RD 02RO	1	0	0.584235906601	-196.0	284.0	-190	281	1
2.7	2015_May_29_1552	s	s	15	4	SIC	64	ABS	1	1	02VD 02VO 02VC 02MD 10MO 02MC 02RD 02RO	0	1	5.5433409214	None	None	None	None	1
2.7	2015_May_29_1552	s	s	15	4	SIC	65	RC	2	0	02VD 02VO 09VC 02MD 02MO 02MC 02RD 02RO	1	0	0.670344114304	-225.0	119.0	-226	117	1
2.7	2015_May_29_1552	s	s	15	4	SIC	66	RC	0	2	02VD 02VO 02VC 02MD 02MO 02MC 09RD 02RO	0	1	0.724146127701	-222.0	-219.0	None	None	0
2.7	2015_May_29_1552	s	s	15	4	SIC	67	ABS	1	0	02VD 02VO 02VC 02MD 02MO 10MC 02RD 02RO	0	1	3.46685194969	None	None	None	None	1
2.7	2015_May_29_1552	s	s	15	4	SIC	68	ABS	1	2	02VD 02VO 02VC 10MD 02MO 02MC 02RD 02RO	0	1	2.80087590218	None	None	None	None	1
2.7	2015_May_29_1552	s	s	15	4	SIC	69	ABS	0	2	02VD 02VO 02VC 02MD 02MO 02MC 10RD 02RO	0	1	2.99616503716	None	None	None	None	1
2.7	2015_May_29_1552	s	s	15	4	SIC	70	RC	1	2	02VD 02VO 02VC 09MD 02MO 02MC 02RD 02RO	1	0	0.729188919067	-438.0	163.0	-443	165	1
2.7	2015_May_29_1552	s	s	15	4	SIC	71	RC	2	1	02VD 09VO 02VC 02MD 02MO 02MC 02RD 02RO	1	0	1.63034510612	-361.0	-160.0	-354	-165	1
2.7	2015_May_29_1552	s	s	15	4	SIC	72	RC	0	1	02VD 02VO 02VC 02MD 02MO 02MC 02RD 09RO	1	0	1.2909860611	117.0	102.0	120	97	1
2.7	2015_May_29_1552	s	s	15	4	SIC	73	ABS	0	1	02VD 02VO 02VC 02MD 02MO 02MC 02RD 10RO	0	1	4.12592196465	None	None	None	None	1
2.7	2015_May_29_1552	s	s	15	4	SIC	74	RC	2	2	09VD 02VO 02VC 02MD 02MO 02MC 02RD 02RO	1	0	1.08218693733	-531.0	-203.0	-526	-202	1
2.7	2015_May_29_1552	s	s	15	4	SIC	75	RC	1	1	02VD 02VO 02VC 02MD 09MO 02MC 02RD 02RO	1	0	0.932899951935	16.0	400.0	26	404	1
2.7	2015_May_29_1552	s	s	15	4	SIC	76	ABS	1	1	02VD 02VO 02VC 02MD 10MO 02MC 02RD 02RO	0	1	3.93769407272	None	None	None	None	1
2.7	2015_May_29_1552	s	s	15	4	SIC	77	ABS	2	2	10VD 02VO 02VC 02MD 02MO 02MC 02RD 02RO	0	1	3.77530097961	None	None	None	None	1
2.7	2015_May_29_1552	s	s	15	4	SIC	78	ABS	2	1	02VD 10VO 02VC 02MD 02MO 02MC 02RD 02RO	0	1	3.23990392685	None	None	None	None	1
2.7	2015_May_29_1552	s	s	15	4	SIC	79	ABS	2	0	02VD 02VO 10VC 02MD 02MO 02MC 02RD 02RO	0	1	3.63297009468	None	None	None	None	1
2.7	2015_May_29_1552	s	s	15	4	SIC	80	RC	1	0	02VD 02VO 02VC 02MD 02MO 09MC 02RD 02RO	1	0	2.18908286095	7.0	-309.0	2	-314	1
2.7	2015_May_29_1552	s	s	15	4	SIC	81	ABS	1	1	02VD 02VO 02VC 02MD 10MO 02MC 02RD 02RO	0	1	4.22203803062	None	None	None	None	1
2.7	2015_May_29_1552	s	s	15	4	SIC	82	ABS	1	2	02VD 02VO 02VC 10MD 02MO 02MC 02RD 02RO	0	1	3.24053192139	None	None	None	None	1
2.7	2015_May_29_1552	s	s	15	4	SIC	83	RC	2	0	02VD 02VO 09VC 02MD 02MO 02MC 02RD 02RO	1	0	1.30603814125	-14.0	241.0	-24	244	1
2.7	2015_May_29_1552	s	s	15	4	SIC	84	RC	1	0	02VD 02VO 02VC 02MD 02MO 09MC 02RD 02RO	1	0	1.44459295273	-66.0	-231.0	-71	-238	1
2.7	2015_May_29_1552	s	s	15	4	SIC	85	RC	2	2	09VD 02VO 02VC 02MD 02MO 02MC 02RD 02RO	1	0	1.38824295998	-142.0	-267.0	-130	-265	1
2.7	2015_May_29_1552	s	s	15	4	SIC	86	ABS	2	1	02VD 10VO 02VC 02MD 02MO 02MC 02RD 02RO	0	1	2.37372207642	None	None	None	None	1
2.7	2015_May_29_1552	s	s	15	4	SIC	87	ABS	2	0	02VD 02VO 10VC 02MD 02MO 02MC 02RD 02RO	0	1	2.06567811966	None	None	None	None	1
2.7	2015_May_29_1552	s	s	15	4	SIC	88	ABS	0	1	02VD 02VO 02VC 02MD 02MO 02MC 02RD 10RO	0	1	4.10722088814	None	None	None	None	1
2.7	2015_May_29_1552	s	s	15	4	SIC	89	RC	0	2	02VD 02VO 02VC 02MD 02MO 02MC 09RD 02RO	1	0	1.50118112564	317.0	-158.0	321	-159	1
2.7	2015_May_29_1552	s	s	15	4	SIC	90	ABS	2	2	10VD 02VO 02VC 02MD 02MO 02MC 02RD 02RO	0	1	1.98335886002	None	None	None	None	1
2.7	2015_May_29_1552	s	s	15	4	SIC	91	RC	2	1	02VD 09VO 02VC 02MD 02MO 02MC 02RD 02RO	1	0	1.49427604675	114.0	-59.0	106	-55	1
2.7	2015_May_29_1552	s	s	15	4	SIC	92	RC	1	1	02VD 02VO 02VC 02MD 09MO 02MC 02RD 02RO	1	0	1.04403400421	265.0	-190.0	266	-192	1
2.7	2015_May_29_1552	s	s	15	4	SIC	93	RC	1	2	02VD 02VO 02VC 09MD 02MO 02MC 02RD 02RO	1	0	1.92979001999	325.0	-300.0	318	-298	1
2.7	2015_May_29_1552	s	s	15	4	SIC	94	ABS	1	0	02VD 02VO 02VC 02MD 02MO 10MC 02RD 02RO	0	1	2.4476480484	None	None	None	None	1
2.7	2015_May_29_1552	s	s	15	4	SIC	95	RC	0	1	02VD 02VO 02VC 02MD 02MO 02MC 02RD 09RO	1	0	1.59563994408	146.0	-133.0	143	-130	1
2.7	2015_May_29_1552	s	s	15	4	SIC	96	ABS	0	2	02VD 02VO 02VC 02MD 02MO 02MC 10RD 02RO	0	1	2.49478411674	None	None	None	None	1
2.7	2015_May_29_1552	s	s	15	4	SIC	97	ABS	0	1	02VD 02VO 02VC 02MD 02MO 02MC 02RD 10RO	0	1	5.46764111519	None	None	None	None	1
2.7	2015_May_29_1552	s	s	15	4	SIC	98	RC	1	1	02VD 02VO 02VC 02MD 09MO 02MC 02RD 02RO	1	0	2.79755687714	-481.0	-268.0	-487	-272	1
2.7	2015_May_29_1552	s	s	15	4	SIC	99	ABS	1	1	02VD 02VO 02VC 02MD 10MO 02MC 02RD 02RO	0	1	3.04799699783	None	None	None	None	1
2.7	2015_May_29_1552	s	s	15	4	SIC	100	ABS	2	2	10VD 02VO 02VC 02MD 02MO 02MC 02RD 02RO	0	1	2.6833319664	None	None	None	None	1
2.7	2015_May_29_1552	s	s	15	4	SIC	101	ABS	2	1	02VD 10VO 02VC 02MD 02MO 02MC 02RD 02RO	0	1	2.14151120186	None	None	None	None	1
2.7	2015_May_29_1552	s	s	15	4	SIC	102	ABS	2	0	02VD 02VO 10VC 02MD 02MO 02MC 02RD 02RO	0	1	2.53935599327	None	None	None	None	1
2.7	2015_May_29_1552	s	s	15	4	SIC	103	ABS	1	2	02VD 02VO 02VC 10MD 02MO 02MC 02RD 02RO	0	1	2.13592910767	None	None	None	None	1
2.7	2015_May_29_1552	s	s	15	4	SIC	104	RC	1	0	02VD 02VO 02VC 02MD 02MO 09MC 02RD 02RO	1	0	2.47816801071	-293.0	-312.0	-302	-314	1
2.7	2015_May_29_1552	s	s	15	4	SIC	105	RC	2	0	02VD 02VO 09VC 02MD 02MO 02MC 02RD 02RO	1	0	0.820862054825	-507.0	183.0	-511	176	1
2.7	2015_May_29_1552	s	s	15	4	SIC	106	RC	0	1	02VD 02VO 02VC 02MD 02MO 02MC 02RD 09RO	1	0	1.92705202103	380.0	145.0	371	144	1
2.7	2015_May_29_1552	s	s	15	4	SIC	107	RC	1	2	02VD 02VO 02VC 09MD 02MO 02MC 02RD 02RO	1	0	1.46534895897	277.0	-332.0	279	-335	1
2.7	2015_May_29_1552	s	s	15	4	SIC	108	RC	2	1	02VD 09VO 02VC 02MD 02MO 02MC 02RD 02RO	0	1	1.79527997971	-429.0	-230.0	None	None	0
2.7	2015_May_29_1552	s	s	15	4	SIC	109	RC	0	2	02VD 02VO 02VC 02MD 02MO 02MC 09RD 02RO	1	0	0.761079072952	-48.0	-115.0	-53	-114	1
2.7	2015_May_29_1552	s	s	15	4	SIC	110	ABS	1	0	02VD 02VO 02VC 02MD 02MO 10MC 02RD 02RO	0	1	3.00704503059	None	None	None	None	1
2.7	2015_May_29_1552	s	s	15	4	SIC	111	ABS	0	2	02VD 02VO 02VC 02MD 02MO 02MC 10RD 02RO	0	1	2.56522297859	None	None	None	None	1
2.7	2015_May_29_1552	s	s	15	4	SIC	112	RC	2	2	09VD 02VO 02VC 02MD 02MO 02MC 02RD 02RO	1	0	0.729135990143	99.0	47.0	94	43	1
2.7	2015_May_29_1552	s	s	15	4	SIC	113	ABS	0	2	02VD 02VO 02VC 02MD 02MO 02MC 10RD 02RO	0	1	2.61621999741	None	None	None	None	1
2.7	2015_May_29_1552	s	s	15	4	SIC	114	RC	1	1	02VD 02VO 02VC 02MD 09MO 02MC 02RD 02RO	1	0	1.13678002357	151.0	-172.0	143	-170	1
2.7	2015_May_29_1552	s	s	15	4	SIC	115	RC	1	2	02VD 02VO 02VC 09MD 02MO 02MC 02RD 02RO	1	0	0.783218860626	-337.0	167.0	-341	162	1
2.7	2015_May_29_1552	s	s	15	4	SIC	116	ABS	1	1	02VD 02VO 02VC 02MD 10MO 02MC 02RD 02RO	0	1	3.69533801079	None	None	None	None	1
2.7	2015_May_29_1552	s	s	15	4	SIC	117	ABS	2	1	02VD 10VO 02VC 02MD 02MO 02MC 02RD 02RO	0	1	3.54606580734	None	None	None	None	1
2.7	2015_May_29_1552	s	s	15	4	SIC	118	RC	0	1	02VD 02VO 02VC 02MD 02MO 02MC 02RD 09RO	1	0	3.34882497787	509.0	-390.0	503	-392	1
2.7	2015_May_29_1552	s	s	15	4	SIC	119	RC	1	0	02VD 02VO 02VC 02MD 02MO 09MC 02RD 02RO	1	0	0.821185112	-393.0	-100.0	-400	-105	1
2.7	2015_May_29_1552	s	s	15	4	SIC	120	RC	2	2	09VD 02VO 02VC 02MD 02MO 02MC 02RD 02RO	1	0	1.79565095901	57.0	-16.0	52	-16	1
2.7	2015_May_29_1552	s	s	15	4	SIC	121	ABS	0	1	02VD 02VO 02VC 02MD 02MO 02MC 02RD 10RO	0	1	4.11965417862	None	None	None	None	1
2.7	2015_May_29_1552	s	s	15	4	SIC	122	RC	2	0	02VD 02VO 09VC 02MD 02MO 02MC 02RD 02RO	1	0	0.811879873276	137.0	150.0	132	151	1
2.7	2015_May_29_1552	s	s	15	4	SIC	123	RC	2	1	02VD 09VO 02VC 02MD 02MO 02MC 02RD 02RO	1	0	1.0542140007	-174.0	295.0	-175	296	1
2.7	2015_May_29_1552	s	s	15	4	SIC	124	ABS	1	0	02VD 02VO 02VC 02MD 02MO 10MC 02RD 02RO	0	1	2.84766507149	None	None	None	None	1
2.7	2015_May_29_1552	s	s	15	4	SIC	125	ABS	1	2	02VD 02VO 02VC 10MD 02MO 02MC 02RD 02RO	0	1	3.48002099991	None	None	None	None	1
2.7	2015_May_29_1552	s	s	15	4	SIC	126	ABS	2	0	02VD 02VO 10VC 02MD 02MO 02MC 02RD 02RO	0	1	2.20865011215	None	None	None	None	1
2.7	2015_May_29_1552	s	s	15	4	SIC	127	ABS	2	2	10VD 02VO 02VC 02MD 02MO 02MC 02RD 02RO	0	1	2.49469399452	None	None	None	None	1
2.7	2015_May_29_1552	s	s	15	4	SIC	128	RC	0	2	02VD 02VO 02VC 02MD 02MO 02MC 09RD 02RO	1	0	1.45524501801	-345.0	-286.0	-342	-291	1
2.7	2015_May_29_1552	s	s	15	4	SIC	129	ABS	1	1	02VD 02VO 02VC 02MD 10MO 02MC 02RD 02RO	0	1	2.76921391487	None	None	None	None	1
2.7	2015_May_29_1552	s	s	15	4	SIC	130	ABS	0	1	02VD 02VO 02VC 02MD 02MO 02MC 02RD 10RO	0	1	5.12661719322	None	None	None	None	1
2.7	2015_May_29_1552	s	s	15	4	SIC	131	RC	1	1	02VD 02VO 02VC 02MD 09MO 02MC 02RD 02RO	1	0	0.705590009689	-361.0	144.0	-359	138	1
2.7	2015_May_29_1552	s	s	15	4	SIC	132	RC	2	2	09VD 02VO 02VC 02MD 02MO 02MC 02RD 02RO	1	0	0.89394903183	-383.0	-65.0	-389	-70	1
2.7	2015_May_29_1552	s	s	15	4	SIC	133	RC	1	0	02VD 02VO 02VC 02MD 02MO 09MC 02RD 02RO	1	0	1.21158099174	516.0	-95.0	519	-91	1
2.7	2015_May_29_1552	s	s	15	4	SIC	134	RC	0	1	02VD 02VO 02VC 02MD 02MO 02MC 02RD 09RO	1	0	1.25628781319	463.0	247.0	462	254	1
2.7	2015_May_29_1552	s	s	15	4	SIC	135	ABS	2	0	02VD 02VO 10VC 02MD 02MO 02MC 02RD 02RO	0	1	3.0185611248	None	None	None	None	1
2.7	2015_May_29_1552	s	s	15	4	SIC	136	ABS	2	1	02VD 10VO 02VC 02MD 02MO 02MC 02RD 02RO	0	1	1.91511082649	None	None	None	None	1
2.7	2015_May_29_1552	s	s	15	4	SIC	137	RC	1	2	02VD 02VO 02VC 09MD 02MO 02MC 02RD 02RO	1	0	1.05423498154	234.0	68.0	227	61	1
2.7	2015_May_29_1552	s	s	15	4	SIC	138	ABS	1	2	02VD 02VO 02VC 10MD 02MO 02MC 02RD 02RO	0	1	2.27108502388	None	None	None	None	1
2.7	2015_May_29_1552	s	s	15	4	SIC	139	RC	2	0	02VD 02VO 09VC 02MD 02MO 02MC 02RD 02RO	1	0	1.98290896416	517.0	136.0	524	133	1
2.7	2015_May_29_1552	s	s	15	4	SIC	140	ABS	1	0	02VD 02VO 02VC 02MD 02MO 10MC 02RD 02RO	0	1	2.22388100624	None	None	None	None	1
2.7	2015_May_29_1552	s	s	15	4	SIC	141	ABS	2	2	10VD 02VO 02VC 02MD 02MO 02MC 02RD 02RO	0	1	1.82071208954	None	None	None	None	1
2.7	2015_May_29_1552	s	s	15	4	SIC	142	ABS	0	2	02VD 02VO 02VC 02MD 02MO 02MC 10RD 02RO	0	1	2.8242828846	None	None	None	None	1
2.7	2015_May_29_1552	s	s	15	4	SIC	143	RC	0	2	02VD 02VO 02VC 02MD 02MO 02MC 09RD 02RO	1	0	1.95993900299	49.0	282.0	42	284	1
2.7	2015_May_29_1552	s	s	15	4	SIC	144	RC	2	1	02VD 09VO 02VC 02MD 02MO 02MC 02RD 02RO	1	0	0.764456033707	-204.0	96.0	-197	94	1
2.7	2015_May_29_1552	s	s	15	4	SIC	145	RC	0	2	02VD 02VO 02VC 02MD 02MO 02MC 09RD 02RO	1	0	0.785309076309	-77.0	203.0	-81	196	1
2.7	2015_May_29_1552	s	s	15	4	SIC	146	ABS	2	2	10VD 02VO 02VC 02MD 02MO 02MC 02RD 02RO	0	1	2.64487099648	None	None	None	None	1
2.7	2015_May_29_1552	s	s	15	4	SIC	147	RC	0	1	02VD 02VO 02VC 02MD 02MO 02MC 02RD 09RO	1	0	0.689517974854	-140.0	30.0	-145	32	1
2.7	2015_May_29_1552	s	s	15	4	SIC	148	ABS	0	1	02VD 02VO 02VC 02MD 02MO 02MC 02RD 10RO	0	1	5.10766196251	None	None	None	None	1
2.7	2015_May_29_1552	s	s	15	4	SIC	149	RC	2	0	02VD 02VO 09VC 02MD 02MO 02MC 02RD 02RO	1	0	0.714085102081	-140.0	253.0	-137	247	1
2.7	2015_May_29_1552	s	s	15	4	SIC	150	ABS	1	2	02VD 02VO 02VC 10MD 02MO 02MC 02RD 02RO	0	1	3.78700900078	None	None	None	None	1
2.7	2015_May_29_1552	s	s	15	4	SIC	151	RC	1	1	02VD 02VO 02VC 02MD 09MO 02MC 02RD 02RO	1	0	2.85741996765	439.0	382.0	445	377	1
2.7	2015_May_29_1552	s	s	15	4	SIC	152	RC	2	1	02VD 09VO 02VC 02MD 02MO 02MC 02RD 02RO	1	0	0.894337892532	-59.0	361.0	-52	356	1
2.7	2015_May_29_1552	s	s	15	4	SIC	153	RC	1	2	02VD 02VO 02VC 09MD 02MO 02MC 02RD 02RO	1	0	1.77674102783	41.0	-362.0	40	-368	1
2.7	2015_May_29_1552	s	s	15	4	SIC	154	RC	1	0	02VD 02VO 02VC 02MD 02MO 09MC 02RD 02RO	1	0	1.58541488647	392.0	-335.0	390	-334	1
2.7	2015_May_29_1552	s	s	15	4	SIC	155	ABS	0	2	02VD 02VO 02VC 02MD 02MO 02MC 10RD 02RO	0	1	3.82231783867	None	None	None	None	1
2.7	2015_May_29_1552	s	s	15	4	SIC	156	ABS	2	0	02VD 02VO 10VC 02MD 02MO 02MC 02RD 02RO	0	1	2.9013299942	None	None	None	None	1
2.7	2015_May_29_1552	s	s	15	4	SIC	157	ABS	1	0	02VD 02VO 02VC 02MD 02MO 10MC 02RD 02RO	0	1	4.43226313591	None	None	None	None	1
2.7	2015_May_29_1552	s	s	15	4	SIC	158	RC	2	2	09VD 02VO 02VC 02MD 02MO 02MC 02RD 02RO	1	0	1.78853702545	-448.0	-183.0	-449	-177	1
2.7	2015_May_29_1552	s	s	15	4	SIC	159	ABS	1	1	02VD 02VO 02VC 02MD 10MO 02MC 02RD 02RO	0	1	3.64824390411	None	None	None	None	1
2.7	2015_May_29_1552	s	s	15	4	SIC	160	ABS	2	1	02VD 10VO 02VC 02MD 02MO 02MC 02RD 02RO	0	1	3.16131591797	None	None	None	None	1
2.7	2015_May_29_1552	s	s	15	4	SIC	161	RC	2	1	02VD 09VO 02VC 02MD 02MO 02MC 02RD 02RO	1	0	2.0747628212	292.0	-83.0	290	-83	1
2.7	2015_May_29_1552	s	s	15	4	SIC	162	ABS	2	1	02VD 10VO 02VC 02MD 02MO 02MC 02RD 02RO	0	1	3.3259499073	None	None	None	None	1
2.7	2015_May_29_1552	s	s	15	4	SIC	163	RC	1	2	02VD 02VO 02VC 09MD 02MO 02MC 02RD 02RO	1	0	1.40781402588	151.0	-176.0	147	-180	1
2.7	2015_May_29_1552	s	s	15	4	SIC	164	RC	1	0	02VD 02VO 02VC 02MD 02MO 09MC 02RD 02RO	1	0	1.47055912018	223.0	-305.0	234	-299	1
2.7	2015_May_29_1552	s	s	15	4	SIC	165	RC	1	1	02VD 02VO 02VC 02MD 09MO 02MC 02RD 02RO	1	0	0.95277094841	-374.0	106.0	-370	110	1
2.7	2015_May_29_1552	s	s	15	4	SIC	166	ABS	1	1	02VD 02VO 02VC 02MD 10MO 02MC 02RD 02RO	0	1	2.49225091934	None	None	None	None	1
2.7	2015_May_29_1552	s	s	15	4	SIC	167	ABS	2	0	02VD 02VO 10VC 02MD 02MO 02MC 02RD 02RO	0	1	2.51312398911	None	None	None	None	1
2.7	2015_May_29_1552	s	s	15	4	SIC	168	ABS	1	0	02VD 02VO 02VC 02MD 02MO 10MC 02RD 02RO	0	1	2.19799995422	None	None	None	None	1
2.7	2015_May_29_1552	s	s	15	4	SIC	169	RC	2	2	09VD 02VO 02VC 02MD 02MO 02MC 02RD 02RO	1	0	1.04129910469	-516.0	86.0	-516	86	1
2.7	2015_May_29_1552	s	s	15	4	SIC	170	RC	0	1	02VD 02VO 02VC 02MD 02MO 02MC 02RD 09RO	0	1	0.0311331748962	336.0	-107.0	None	None	0
2.7	2015_May_29_1552	s	s	15	4	SIC	171	ABS	0	2	02VD 02VO 02VC 02MD 02MO 02MC 10RD 02RO	0	1	3.11873698235	None	None	None	None	1
2.7	2015_May_29_1552	s	s	15	4	SIC	172	ABS	1	2	02VD 02VO 02VC 10MD 02MO 02MC 02RD 02RO	0	1	2.83365917206	None	None	None	None	1
2.7	2015_May_29_1552	s	s	15	4	SIC	173	ABS	0	1	02VD 02VO 02VC 02MD 02MO 02MC 02RD 10RO	0	1	4.58994007111	None	None	None	None	1
2.7	2015_May_29_1552	s	s	15	4	SIC	174	ABS	2	2	10VD 02VO 02VC 02MD 02MO 02MC 02RD 02RO	0	1	2.40990304947	None	None	None	None	1
2.7	2015_May_29_1552	s	s	15	4	SIC	175	RC	2	0	02VD 02VO 09VC 02MD 02MO 02MC 02RD 02RO	1	0	0.705415010452	-193.0	15.0	-194	10	1
2.7	2015_May_29_1552	s	s	15	4	SIC	176	RC	0	2	02VD 02VO 02VC 02MD 02MO 02MC 09RD 02RO	1	0	1.15295004845	274.0	175.0	272	179	1
2.7	2015_May_29_1552	s	s	15	4	SIC	177	ABS	2	1	02VD 10VO 02VC 02MD 02MO 02MC 02RD 02RO	0	1	0.364150047302	None	None	None	None	1
2.7	2015_May_29_1552	s	s	15	4	SIC	178	ABS	0	1	02VD 02VO 02VC 02MD 02MO 02MC 02RD 10RO	0	1	4.38486790657	None	None	None	None	1
2.7	2015_May_29_1552	s	s	15	4	SIC	179	ABS	0	2	02VD 02VO 02VC 02MD 02MO 02MC 10RD 02RO	0	1	3.60639715195	None	None	None	None	1
2.7	2015_May_29_1552	s	s	15	4	SIC	180	RC	1	2	02VD 02VO 02VC 09MD 02MO 02MC 02RD 02RO	0	1	3.37213897705	-445.0	293.0	None	None	0
2.7	2015_May_29_1552	s	s	15	4	SIC	181	RC	2	0	02VD 02VO 09VC 02MD 02MO 02MC 02RD 02RO	1	0	1.23527097702	-427.0	3.0	-423	-1	1
2.7	2015_May_29_1552	s	s	15	4	SIC	182	ABS	2	2	10VD 02VO 02VC 02MD 02MO 02MC 02RD 02RO	0	1	3.13016700745	None	None	None	None	1
2.7	2015_May_29_1552	s	s	15	4	SIC	183	RC	1	0	02VD 02VO 02VC 02MD 02MO 09MC 02RD 02RO	1	0	2.75752711296	450.0	-366.0	449	-358	1
2.7	2015_May_29_1552	s	s	15	4	SIC	184	ABS	1	2	02VD 02VO 02VC 10MD 02MO 02MC 02RD 02RO	0	1	2.80072808266	None	None	None	None	1
2.7	2015_May_29_1552	s	s	15	4	SIC	185	RC	1	1	02VD 02VO 02VC 02MD 09MO 02MC 02RD 02RO	0	1	4.75054597855	477.0	-280.0	None	None	0
2.7	2015_May_29_1552	s	s	15	4	SIC	186	RC	0	2	02VD 02VO 02VC 02MD 02MO 02MC 09RD 02RO	1	0	1.19456291199	-69.0	359.0	-72	360	1
2.7	2015_May_29_1552	s	s	15	4	SIC	187	ABS	1	0	02VD 02VO 02VC 02MD 02MO 10MC 02RD 02RO	0	1	4.97852301598	None	None	None	None	1
2.7	2015_May_29_1552	s	s	15	4	SIC	188	RC	0	1	02VD 02VO 02VC 02MD 02MO 02MC 02RD 09RO	1	0	2.33648085594	457.0	32.0	448	33	1
2.7	2015_May_29_1552	s	s	15	4	SIC	189	RC	2	2	09VD 02VO 02VC 02MD 02MO 02MC 02RD 02RO	1	0	1.95008111	402.0	-402.0	398	-406	1
2.7	2015_May_29_1552	s	s	15	4	SIC	190	ABS	2	0	02VD 02VO 10VC 02MD 02MO 02MC 02RD 02RO	0	1	3.04840111732	None	None	None	None	1
2.7	2015_May_29_1552	s	s	15	4	SIC	191	RC	2	1	02VD 09VO 02VC 02MD 02MO 02MC 02RD 02RO	1	0	0.983160972595	333.0	-70.0	340	-64	1
2.7	2015_May_29_1552	s	s	15	4	SIC	192	ABS	1	1	02VD 02VO 02VC 02MD 10MO 02MC 02RD 02RO	0	1	4.16608905792	None	None	None	None	1
2.7	2015_May_29_1552	s	s	15	4	SIC	193	RC	1	0	02VD 02VO 02VC 02MD 02MO 09MC 02RD 02RO	1	0	1.34122180939	-280.0	281.0	-279	280	1
2.7	2015_May_29_1552	s	s	15	4	SIC	194	ABS	1	0	02VD 02VO 02VC 02MD 02MO 10MC 02RD 02RO	0	1	0.347493886948	None	None	None	None	1
2.7	2015_May_29_1552	s	s	15	4	SIC	195	ABS	0	2	02VD 02VO 02VC 02MD 02MO 02MC 10RD 02RO	0	1	3.28128004074	None	None	None	None	1
2.7	2015_May_29_1552	s	s	15	4	SIC	196	ABS	0	1	02VD 02VO 02VC 02MD 02MO 02MC 02RD 10RO	0	1	5.35492992401	None	None	None	None	1
2.7	2015_May_29_1552	s	s	15	4	SIC	197	ABS	1	1	02VD 02VO 02VC 02MD 10MO 02MC 02RD 02RO	0	1	4.32491803169	None	None	None	None	1
2.7	2015_May_29_1552	s	s	15	4	SIC	198	ABS	2	1	02VD 10VO 02VC 02MD 02MO 02MC 02RD 02RO	0	1	2.15326809883	None	None	None	None	1
2.7	2015_May_29_1552	s	s	15	4	SIC	199	RC	2	2	09VD 02VO 02VC 02MD 02MO 02MC 02RD 02RO	1	0	1.75819301605	450.0	-79.0	451	-80	1
2.7	2015_May_29_1552	s	s	15	4	SIC	200	RC	1	1	02VD 02VO 02VC 02MD 09MO 02MC 02RD 02RO	1	0	1.77204012871	61.0	-355.0	56	-352	1
2.7	2015_May_29_1552	s	s	15	4	SIC	201	ABS	2	2	10VD 02VO 02VC 02MD 02MO 02MC 02RD 02RO	0	1	2.66567420959	None	None	None	None	1
2.7	2015_May_29_1552	s	s	15	4	SIC	202	RC	2	0	02VD 02VO 09VC 02MD 02MO 02MC 02RD 02RO	1	0	2.04502677917	390.0	92.0	396	94	1
2.7	2015_May_29_1552	s	s	15	4	SIC	203	RC	0	2	02VD 02VO 02VC 02MD 02MO 02MC 09RD 02RO	1	0	0.606167078018	-337.0	350.0	-337	348	1
2.7	2015_May_29_1552	s	s	15	4	SIC	204	RC	0	1	02VD 02VO 02VC 02MD 02MO 02MC 02RD 09RO	1	0	0.941159009933	-429.0	101.0	-431	99	1
2.7	2015_May_29_1552	s	s	15	4	SIC	205	RC	2	1	02VD 09VO 02VC 02MD 02MO 02MC 02RD 02RO	1	0	1.74148702621	476.0	-270.0	480	-271	1
2.7	2015_May_29_1552	s	s	15	4	SIC	206	ABS	2	0	02VD 02VO 10VC 02MD 02MO 02MC 02RD 02RO	0	1	2.84786081314	None	None	None	None	1
2.7	2015_May_29_1552	s	s	15	4	SIC	207	RC	1	2	02VD 02VO 02VC 09MD 02MO 02MC 02RD 02RO	1	0	1.30084085464	530.0	-109.0	538	-111	1
2.7	2015_May_29_1552	s	s	15	4	SIC	208	ABS	1	2	02VD 02VO 02VC 10MD 02MO 02MC 02RD 02RO	0	1	2.78341913223	None	None	None	None	1
2.7	2015_May_29_1552	s	s	15	4	SIC	209	RC	2	1	02VD 09VO 02VC 02MD 02MO 02MC 02RD 02RO	1	0	0.879673957825	-286.0	100.0	-281	106	1
2.7	2015_May_29_1552	s	s	15	4	SIC	210	RC	2	0	02VD 02VO 09VC 02MD 02MO 02MC 02RD 02RO	1	0	1.19444489479	-205.0	-110.0	-203	-114	1
2.7	2015_May_29_1552	s	s	15	4	SIC	211	ABS	1	2	02VD 02VO 02VC 10MD 02MO 02MC 02RD 02RO	0	1	3.93723988533	None	None	None	None	1
2.7	2015_May_29_1552	s	s	15	4	SIC	212	ABS	1	1	02VD 02VO 02VC 02MD 10MO 02MC 02RD 02RO	0	1	5.06085395813	None	None	None	None	1
2.7	2015_May_29_1552	s	s	15	4	SIC	213	RC	1	2	02VD 02VO 02VC 09MD 02MO 02MC 02RD 02RO	1	0	1.04681706429	65.0	-27.0	64	-23	1
2.7	2015_May_29_1552	s	s	15	4	SIC	214	ABS	2	1	02VD 10VO 02VC 02MD 02MO 02MC 02RD 02RO	0	1	2.97749996185	None	None	None	None	1
2.7	2015_May_29_1552	s	s	15	4	SIC	215	ABS	2	2	10VD 02VO 02VC 02MD 02MO 02MC 02RD 02RO	0	1	3.08339810371	None	None	None	None	1
2.7	2015_May_29_1552	s	s	15	4	SIC	216	RC	2	2	09VD 02VO 02VC 02MD 02MO 02MC 02RD 02RO	1	0	1.78188586235	-143.0	-194.0	-139	-191	1
2.7	2015_May_29_1552	s	s	15	4	SIC	217	RC	1	1	02VD 02VO 02VC 02MD 09MO 02MC 02RD 02RO	1	0	1.15285110474	227.0	-144.0	224	-144	1
2.7	2015_May_29_1552	s	s	15	4	SIC	218	ABS	0	2	02VD 02VO 02VC 02MD 02MO 02MC 10RD 02RO	0	1	4.35202002525	None	None	None	None	1
2.7	2015_May_29_1552	s	s	15	4	SIC	219	ABS	1	0	02VD 02VO 02VC 02MD 02MO 10MC 02RD 02RO	0	1	3.55170607567	None	None	None	None	1
2.7	2015_May_29_1552	s	s	15	4	SIC	220	ABS	0	1	02VD 02VO 02VC 02MD 02MO 02MC 02RD 10RO	0	1	7.38562178612	None	None	None	None	1
2.7	2015_May_29_1552	s	s	15	4	SIC	221	RC	1	0	02VD 02VO 02VC 02MD 02MO 09MC 02RD 02RO	1	0	2.0429558754	-281.0	-290.0	-282	-294	1
2.7	2015_May_29_1552	s	s	15	4	SIC	222	ABS	2	0	02VD 02VO 10VC 02MD 02MO 02MC 02RD 02RO	0	1	2.52587795258	None	None	None	None	1
2.7	2015_May_29_1552	s	s	15	4	SIC	223	RC	0	1	02VD 02VO 02VC 02MD 02MO 02MC 02RD 09RO	1	0	2.7363960743	-114.0	-272.0	-109	-275	1
2.7	2015_May_29_1552	s	s	15	4	SIC	224	RC	0	2	02VD 02VO 02VC 02MD 02MO 02MC 09RD 02RO	1	0	1.6236770153	493.0	261.0	484	258	1
2.7	2015_May_29_1552	s	s	15	4	SIC	225	ABS	1	0	02VD 02VO 02VC 02MD 02MO 10MC 02RD 02RO	0	1	4.87936997414	None	None	None	None	1
2.7	2015_May_29_1552	s	s	15	4	SIC	226	ABS	2	2	10VD 02VO 02VC 02MD 02MO 02MC 02RD 02RO	0	1	2.79758501053	None	None	None	None	1
2.7	2015_May_29_1552	s	s	15	4	SIC	227	ABS	0	2	02VD 02VO 02VC 02MD 02MO 02MC 10RD 02RO	0	1	3.23627591133	None	None	None	None	1
2.7	2015_May_29_1552	s	s	15	4	SIC	228	RC	0	2	02VD 02VO 02VC 02MD 02MO 02MC 09RD 02RO	1	0	1.70592999458	445.0	-222.0	445	-216	1
2.7	2015_May_29_1552	s	s	15	4	SIC	229	RC	2	2	09VD 02VO 02VC 02MD 02MO 02MC 02RD 02RO	1	0	0.799757957458	97.0	-83.0	93	-79	1
2.7	2015_May_29_1552	s	s	15	4	SIC	230	ABS	2	0	02VD 02VO 10VC 02MD 02MO 02MC 02RD 02RO	0	1	2.31814193726	None	None	None	None	1
2.7	2015_May_29_1552	s	s	15	4	SIC	231	RC	2	1	02VD 09VO 02VC 02MD 02MO 02MC 02RD 02RO	1	0	1.01851391792	-429.0	322.0	-429	330	1
2.7	2015_May_29_1552	s	s	15	4	SIC	232	RC	1	1	02VD 02VO 02VC 02MD 09MO 02MC 02RD 02RO	1	0	1.89185619354	-23.0	-182.0	-25	-182	1
2.7	2015_May_29_1552	s	s	15	4	SIC	233	RC	1	2	02VD 02VO 02VC 09MD 02MO 02MC 02RD 02RO	1	0	1.3239030838	538.0	-171.0	535	-174	1
2.7	2015_May_29_1552	s	s	15	4	SIC	234	ABS	0	1	02VD 02VO 02VC 02MD 02MO 02MC 02RD 10RO	0	1	2.91447091103	None	None	None	None	1
2.7	2015_May_29_1552	s	s	15	4	SIC	235	ABS	1	1	02VD 02VO 02VC 02MD 10MO 02MC 02RD 02RO	0	1	2.49012303352	None	None	None	None	1
2.7	2015_May_29_1552	s	s	15	4	SIC	236	ABS	1	2	02VD 02VO 02VC 10MD 02MO 02MC 02RD 02RO	0	1	2.10389304161	None	None	None	None	1
2.7	2015_May_29_1552	s	s	15	4	SIC	237	RC	0	1	02VD 02VO 02VC 02MD 02MO 02MC 02RD 09RO	1	0	1.70293784142	263.0	-325.0	262	-327	1
2.7	2015_May_29_1552	s	s	15	4	SIC	238	RC	2	0	02VD 02VO 09VC 02MD 02MO 02MC 02RD 02RO	1	0	0.76021194458	70.0	292.0	76	291	1
2.7	2015_May_29_1552	s	s	15	4	SIC	239	ABS	2	1	02VD 10VO 02VC 02MD 02MO 02MC 02RD 02RO	0	1	2.86599683762	None	None	None	None	1
2.7	2015_May_29_1552	s	s	15	4	SIC	240	RC	1	0	02VD 02VO 02VC 02MD 02MO 09MC 02RD 02RO	1	0	1.00816202164	520.0	174.0	523	176	1
2.7	2015_May_29_1552	s	s	15	4	SIC	241	ABS	2	1	02VD 10VO 02VC 02MD 02MO 02MC 02RD 02RO	0	1	2.78935313225	None	None	None	None	1
2.7	2015_May_29_1552	s	s	15	4	SIC	242	ABS	2	0	02VD 02VO 10VC 02MD 02MO 02MC 02RD 02RO	0	1	1.7183098793	None	None	None	None	1
2.7	2015_May_29_1552	s	s	15	4	SIC	243	RC	0	2	02VD 02VO 02VC 02MD 02MO 02MC 09RD 02RO	1	0	0.650807142258	-222.0	-63.0	-227	-65	1
2.7	2015_May_29_1552	s	s	15	4	SIC	244	RC	1	1	02VD 02VO 02VC 02MD 09MO 02MC 02RD 02RO	1	0	0.701945066452	471.0	177.0	470	180	1
2.7	2015_May_29_1552	s	s	15	4	SIC	245	ABS	1	2	02VD 02VO 02VC 10MD 02MO 02MC 02RD 02RO	0	1	1.76923584938	None	None	None	None	1
2.7	2015_May_29_1552	s	s	15	4	SIC	246	ABS	2	2	10VD 02VO 02VC 02MD 02MO 02MC 02RD 02RO	0	1	3.38923692703	None	None	None	None	1
2.7	2015_May_29_1552	s	s	15	4	SIC	247	ABS	1	1	02VD 02VO 02VC 02MD 10MO 02MC 02RD 02RO	0	1	4.11432695389	None	None	None	None	1
2.7	2015_May_29_1552	s	s	15	4	SIC	248	RC	1	2	02VD 02VO 02VC 09MD 02MO 02MC 02RD 02RO	1	0	1.25385022163	-331.0	-44.0	-323	-50	1
2.7	2015_May_29_1552	s	s	15	4	SIC	249	ABS	0	1	02VD 02VO 02VC 02MD 02MO 02MC 02RD 10RO	0	1	4.6453537941	None	None	None	None	1
2.7	2015_May_29_1552	s	s	15	4	SIC	250	RC	2	1	02VD 09VO 02VC 02MD 02MO 02MC 02RD 02RO	1	0	1.05868291855	127.0	-127.0	133	-128	1
2.7	2015_May_29_1552	s	s	15	4	SIC	251	RC	2	0	02VD 02VO 09VC 02MD 02MO 02MC 02RD 02RO	1	0	0.747479915619	-274.0	175.0	-279	183	1
2.7	2015_May_29_1552	s	s	15	4	SIC	252	ABS	0	2	02VD 02VO 02VC 02MD 02MO 02MC 10RD 02RO	0	1	3.70183610916	None	None	None	None	1
2.7	2015_May_29_1552	s	s	15	4	SIC	253	ABS	1	0	02VD 02VO 02VC 02MD 02MO 10MC 02RD 02RO	0	1	3.34207391739	None	None	None	None	1
2.7	2015_May_29_1552	s	s	15	4	SIC	254	RC	1	0	02VD 02VO 02VC 02MD 02MO 09MC 02RD 02RO	1	0	1.63230085373	-95.0	-138.0	-89	-141	1
2.7	2015_May_29_1552	s	s	15	4	SIC	255	RC	0	1	02VD 02VO 02VC 02MD 02MO 02MC 02RD 09RO	1	0	2.59822583199	-474.0	356.0	-480	355	1
2.7	2015_May_29_1552	s	s	15	4	SIC	256	RC	2	2	09VD 02VO 02VC 02MD 02MO 02MC 02RD 02RO	1	0	1.85105013847	-42.0	-395.0	-37	-405	1
2.7	2015_May_29_1552	s	s	15	4	SIC	257	ABS	1	2	02VD 02VO 02VC 10MD 02MO 02MC 02RD 02RO	0	1	2.08273506165	None	None	None	None	1
2.7	2015_May_29_1552	s	s	15	4	SIC	258	ABS	2	0	02VD 02VO 10VC 02MD 02MO 02MC 02RD 02RO	0	1	2.77728700638	None	None	None	None	1
2.7	2015_May_29_1552	s	s	15	4	SIC	259	ABS	2	2	10VD 02VO 02VC 02MD 02MO 02MC 02RD 02RO	1	0	1.23533201218	None	None	67	-269	0
2.7	2015_May_29_1552	s	s	15	4	SIC	260	ABS	1	0	02VD 02VO 02VC 02MD 02MO 10MC 02RD 02RO	0	1	5.03710794449	None	None	None	None	1
2.7	2015_May_29_1552	s	s	15	4	SIC	261	RC	1	2	02VD 02VO 02VC 09MD 02MO 02MC 02RD 02RO	1	0	1.81201791763	4.0	-412.0	-6	-404	1
2.7	2015_May_29_1552	s	s	15	4	SIC	262	RC	1	0	02VD 02VO 02VC 02MD 02MO 09MC 02RD 02RO	1	0	0.776201963425	-246.0	95.0	-241	90	1
2.7	2015_May_29_1552	s	s	15	4	SIC	263	ABS	0	1	02VD 02VO 02VC 02MD 02MO 02MC 02RD 10RO	0	1	5.09145402908	None	None	None	None	1
2.7	2015_May_29_1552	s	s	15	4	SIC	264	RC	2	1	02VD 09VO 02VC 02MD 02MO 02MC 02RD 02RO	1	0	0.846872091293	166.0	79.0	164	88	1
2.7	2015_May_29_1552	s	s	15	4	SIC	265	RC	2	2	09VD 02VO 02VC 02MD 02MO 02MC 02RD 02RO	1	0	2.02384114265	-465.0	-97.0	-470	-101	1
2.7	2015_May_29_1552	s	s	15	4	SIC	266	RC	0	2	02VD 02VO 02VC 02MD 02MO 02MC 09RD 02RO	1	0	0.79603099823	236.0	95.0	243	91	1
2.7	2015_May_29_1552	s	s	15	4	SIC	267	ABS	0	2	02VD 02VO 02VC 02MD 02MO 02MC 10RD 02RO	0	1	2.70650005341	None	None	None	None	1
2.7	2015_May_29_1552	s	s	15	4	SIC	268	RC	1	1	02VD 02VO 02VC 02MD 09MO 02MC 02RD 02RO	1	0	1.43532991409	-125.0	-147.0	-126	-146	1
2.7	2015_May_29_1552	s	s	15	4	SIC	269	ABS	2	1	02VD 10VO 02VC 02MD 02MO 02MC 02RD 02RO	0	1	2.0216999054	None	None	None	None	1
2.7	2015_May_29_1552	s	s	15	4	SIC	270	ABS	1	1	02VD 02VO 02VC 02MD 10MO 02MC 02RD 02RO	0	1	2.73948001862	None	None	None	None	1
2.7	2015_May_29_1552	s	s	15	4	SIC	271	RC	2	0	02VD 02VO 09VC 02MD 02MO 02MC 02RD 02RO	1	0	1.23530983925	102.0	201.0	99	210	1
2.7	2015_May_29_1552	s	s	15	4	SIC	272	RC	0	1	02VD 02VO 02VC 02MD 02MO 02MC 02RD 09RO	1	0	1.08223891258	434.0	185.0	430	181	1
2.7	2015_May_29_1552	s	s	15	4	SIC	273	ABS	1	0	02VD 02VO 02VC 02MD 02MO 10MC 02RD 02RO	0	1	2.33664798737	None	None	None	None	1
2.7	2015_May_29_1552	s	s	15	4	SIC	274	ABS	2	0	02VD 02VO 10VC 02MD 02MO 02MC 02RD 02RO	0	1	2.67867493629	None	None	None	None	1
2.7	2015_May_29_1552	s	s	15	4	SIC	275	ABS	2	2	10VD 02VO 02VC 02MD 02MO 02MC 02RD 02RO	0	1	2.0946149826	None	None	None	None	1
2.7	2015_May_29_1552	s	s	15	4	SIC	276	ABS	2	1	02VD 10VO 02VC 02MD 02MO 02MC 02RD 02RO	0	1	2.17076611519	None	None	None	None	1
2.7	2015_May_29_1552	s	s	15	4	SIC	277	RC	2	1	02VD 09VO 02VC 02MD 02MO 02MC 02RD 02RO	1	0	2.28660917282	61.0	-361.0	69	-365	1
2.7	2015_May_29_1552	s	s	15	4	SIC	278	RC	0	1	02VD 02VO 02VC 02MD 02MO 02MC 02RD 09RO	1	0	2.3102209568	417.0	-393.0	422	-396	1
2.7	2015_May_29_1552	s	s	15	4	SIC	279	ABS	0	1	02VD 02VO 02VC 02MD 02MO 02MC 02RD 10RO	0	1	5.84370207787	None	None	None	None	1
2.7	2015_May_29_1552	s	s	15	4	SIC	280	ABS	1	2	02VD 02VO 02VC 10MD 02MO 02MC 02RD 02RO	0	1	4.67856407166	None	None	None	None	1
2.7	2015_May_29_1552	s	s	15	4	SIC	281	RC	1	1	02VD 02VO 02VC 02MD 09MO 02MC 02RD 02RO	1	0	1.3857960701	-412.0	-251.0	-414	-254	1
2.7	2015_May_29_1552	s	s	15	4	SIC	282	RC	1	0	02VD 02VO 02VC 02MD 02MO 09MC 02RD 02RO	1	0	0.865593910217	-118.0	128.0	-118	134	1
2.7	2015_May_29_1552	s	s	15	4	SIC	283	ABS	1	1	02VD 02VO 02VC 02MD 10MO 02MC 02RD 02RO	0	1	2.26613593102	None	None	None	None	1
2.7	2015_May_29_1552	s	s	15	4	SIC	284	RC	1	2	02VD 02VO 02VC 09MD 02MO 02MC 02RD 02RO	1	0	0.949579000473	199.0	29.0	195	38	1
2.7	2015_May_29_1552	s	s	15	4	SIC	285	ABS	0	2	02VD 02VO 02VC 02MD 02MO 02MC 10RD 02RO	0	1	4.78439593315	None	None	None	None	1
2.7	2015_May_29_1552	s	s	15	4	SIC	286	RC	2	0	02VD 02VO 09VC 02MD 02MO 02MC 02RD 02RO	1	0	1.51783394814	-504.0	-189.0	-496	-189	1
2.7	2015_May_29_1552	s	s	15	4	SIC	287	RC	2	2	09VD 02VO 02VC 02MD 02MO 02MC 02RD 02RO	1	0	0.905540943146	486.0	320.0	484	321	1
2.7	2015_May_29_1552	s	s	15	4	SIC	288	RC	0	2	02VD 02VO 02VC 02MD 02MO 02MC 09RD 02RO	1	0	0.903375864029	-350.0	-69.0	-354	-74	1
2.7	2015_May_29_1552	s	s	15	4	SIC	289	RC	0	1	02VD 02VO 02VC 02MD 02MO 02MC 02RD 09RO	1	0	2.10384488106	250.0	-264.0	247	-273	1
2.7	2015_May_29_1552	s	s	15	4	SIC	290	RC	2	0	02VD 02VO 09VC 02MD 02MO 02MC 02RD 02RO	1	0	1.3294210434	-11.0	-69.0	-12	-76	1
2.7	2015_May_29_1552	s	s	15	4	SIC	291	ABS	0	2	02VD 02VO 02VC 02MD 02MO 02MC 10RD 02RO	0	1	4.46730399132	None	None	None	None	1
2.7	2015_May_29_1552	s	s	15	4	SIC	292	RC	2	1	02VD 09VO 02VC 02MD 02MO 02MC 02RD 02RO	1	0	0.820835828781	279.0	65.0	271	66	1
2.7	2015_May_29_1552	s	s	15	4	SIC	293	ABS	0	1	02VD 02VO 02VC 02MD 02MO 02MC 02RD 10RO	0	1	5.37859797478	None	None	None	None	1
2.7	2015_May_29_1552	s	s	15	4	SIC	294	RC	0	2	02VD 02VO 02VC 02MD 02MO 02MC 09RD 02RO	1	0	0.874562978745	-87.0	313.0	-89	313	1
2.7	2015_May_29_1552	s	s	15	4	SIC	295	RC	2	2	09VD 02VO 02VC 02MD 02MO 02MC 02RD 02RO	1	0	0.882102012634	-398.0	401.0	-387	404	1
2.7	2015_May_29_1552	s	s	15	4	SIC	296	RC	1	0	02VD 02VO 02VC 02MD 02MO 09MC 02RD 02RO	1	0	3.64318203926	-385.0	191.0	-389	186	1
2.7	2015_May_29_1552	s	s	15	4	SIC	297	RC	1	2	02VD 02VO 02VC 09MD 02MO 02MC 02RD 02RO	1	0	1.17398500443	53.0	297.0	50	304	1
2.7	2015_May_29_1552	s	s	15	4	SIC	298	ABS	1	2	02VD 02VO 02VC 10MD 02MO 02MC 02RD 02RO	0	1	2.47167301178	None	None	None	None	1
2.7	2015_May_29_1552	s	s	15	4	SIC	299	ABS	1	0	02VD 02VO 02VC 02MD 02MO 10MC 02RD 02RO	0	1	2.79770088196	None	None	None	None	1
2.7	2015_May_29_1552	s	s	15	4	SIC	300	ABS	2	1	02VD 10VO 02VC 02MD 02MO 02MC 02RD 02RO	0	1	1.80039310455	None	None	None	None	1
2.7	2015_May_29_1552	s	s	15	4	SIC	301	ABS	2	0	02VD 02VO 10VC 02MD 02MO 02MC 02RD 02RO	0	1	2.30624699593	None	None	None	None	1
2.7	2015_May_29_1552	s	s	15	4	SIC	302	ABS	1	1	02VD 02VO 02VC 02MD 10MO 02MC 02RD 02RO	0	1	3.67177987099	None	None	None	None	1
2.7	2015_May_29_1552	s	s	15	4	SIC	303	RC	1	1	02VD 02VO 02VC 02MD 09MO 02MC 02RD 02RO	1	0	1.50200390816	279.0	263.0	274	261	1
2.7	2015_May_29_1552	s	s	15	4	SIC	304	ABS	2	2	10VD 02VO 02VC 02MD 02MO 02MC 02RD 02RO	0	1	2.52211403847	None	None	None	None	1
2.7	2015_May_29_1552	s	s	15	4	SIC	305	ABS	2	1	02VD 10VO 02VC 02MD 02MO 02MC 02RD 02RO	0	1	2.91495990753	None	None	None	None	1
2.7	2015_May_29_1552	s	s	15	4	SIC	306	ABS	1	2	02VD 02VO 02VC 10MD 02MO 02MC 02RD 02RO	0	1	3.21938180923	None	None	None	None	1
2.7	2015_May_29_1552	s	s	15	4	SIC	307	RC	1	1	02VD 02VO 02VC 02MD 09MO 02MC 02RD 02RO	1	0	2.27880907059	-443.0	-263.0	-441	-259	1
2.7	2015_May_29_1552	s	s	15	4	SIC	308	RC	1	0	02VD 02VO 02VC 02MD 02MO 09MC 02RD 02RO	1	0	0.794295072556	56.0	316.0	60	317	1
2.7	2015_May_29_1552	s	s	15	4	SIC	309	RC	0	1	02VD 02VO 02VC 02MD 02MO 02MC 02RD 09RO	1	0	1.97666597366	291.0	-412.0	285	-418	1
2.7	2015_May_29_1552	s	s	15	4	SIC	310	RC	2	1	02VD 09VO 02VC 02MD 02MO 02MC 02RD 02RO	1	0	1.35293412209	-70.0	-277.0	-68	-291	1
2.7	2015_May_29_1552	s	s	15	4	SIC	311	ABS	1	1	02VD 02VO 02VC 02MD 10MO 02MC 02RD 02RO	0	1	3.37253904343	None	None	None	None	1
2.7	2015_May_29_1552	s	s	15	4	SIC	312	ABS	2	0	02VD 02VO 10VC 02MD 02MO 02MC 02RD 02RO	0	1	1.64727497101	None	None	None	None	1
2.7	2015_May_29_1552	s	s	15	4	SIC	313	ABS	0	2	02VD 02VO 02VC 02MD 02MO 02MC 10RD 02RO	0	1	2.58896994591	None	None	None	None	1
2.7	2015_May_29_1552	s	s	15	4	SIC	314	RC	1	2	02VD 02VO 02VC 09MD 02MO 02MC 02RD 02RO	1	0	1.68249893188	296.0	220.0	297	229	1
2.7	2015_May_29_1552	s	s	15	4	SIC	315	RC	0	2	02VD 02VO 02VC 02MD 02MO 02MC 09RD 02RO	1	0	0.817773103714	-303.0	363.0	-298	365	1
2.7	2015_May_29_1552	s	s	15	4	SIC	316	RC	2	0	02VD 02VO 09VC 02MD 02MO 02MC 02RD 02RO	1	0	2.54880785942	489.0	244.0	489	249	1
2.7	2015_May_29_1552	s	s	15	4	SIC	317	ABS	1	0	02VD 02VO 02VC 02MD 02MO 10MC 02RD 02RO	0	1	4.1956410408	None	None	None	None	1
2.7	2015_May_29_1552	s	s	15	4	SIC	318	RC	2	2	09VD 02VO 02VC 02MD 02MO 02MC 02RD 02RO	1	0	1.84248399734	318.0	-113.0	316	-108	1
2.7	2015_May_29_1552	s	s	15	4	SIC	319	ABS	0	1	02VD 02VO 02VC 02MD 02MO 02MC 02RD 10RO	0	1	3.58406591415	None	None	None	None	1
2.7	2015_May_29_1552	s	s	15	4	SIC	320	ABS	2	2	10VD 02VO 02VC 02MD 02MO 02MC 02RD 02RO	0	1	2.17184090614	None	None	None	None	1
2.7	2015_May_29_1552	s	s	15	4	SIC	321	RC	0	2	02VD 02VO 02VC 02MD 02MO 02MC 09RD 02RO	1	0	1.34119796753	-253.0	7.0	-248	15	1
2.7	2015_May_29_1552	s	s	15	4	SIC	322	ABS	2	2	10VD 02VO 02VC 02MD 02MO 02MC 02RD 02RO	0	1	2.40969395638	None	None	None	None	1
2.7	2015_May_29_1552	s	s	15	4	SIC	323	ABS	2	0	02VD 02VO 10VC 02MD 02MO 02MC 02RD 02RO	0	1	2.22148704529	None	None	None	None	1
2.7	2015_May_29_1552	s	s	15	4	SIC	324	ABS	2	1	02VD 10VO 02VC 02MD 02MO 02MC 02RD 02RO	0	1	2.26713299751	None	None	None	None	1
2.7	2015_May_29_1552	s	s	15	4	SIC	325	ABS	1	0	02VD 02VO 02VC 02MD 02MO 10MC 02RD 02RO	0	1	3.38611292839	None	None	None	None	1
2.7	2015_May_29_1552	s	s	15	4	SIC	326	RC	2	2	09VD 02VO 02VC 02MD 02MO 02MC 02RD 02RO	1	0	1.68314695358	-240.0	388.0	-240	392	1
2.7	2015_May_29_1552	s	s	15	4	SIC	327	ABS	1	1	02VD 02VO 02VC 02MD 10MO 02MC 02RD 02RO	0	1	2.55349707603	None	None	None	None	1
2.7	2015_May_29_1552	s	s	15	4	SIC	328	ABS	0	2	02VD 02VO 02VC 02MD 02MO 02MC 10RD 02RO	0	1	3.55399417877	None	None	None	None	1
2.7	2015_May_29_1552	s	s	15	4	SIC	329	RC	2	1	02VD 09VO 02VC 02MD 02MO 02MC 02RD 02RO	1	0	0.785572052002	242.0	48.0	239	40	1
2.7	2015_May_29_1552	s	s	15	4	SIC	330	ABS	0	1	02VD 02VO 02VC 02MD 02MO 02MC 02RD 10RO	0	1	4.07201600075	None	None	None	None	1
2.7	2015_May_29_1552	s	s	15	4	SIC	331	RC	1	2	02VD 02VO 02VC 09MD 02MO 02MC 02RD 02RO	1	0	0.618548154831	-102.0	104.0	-103	108	1
2.7	2015_May_29_1552	s	s	15	4	SIC	332	RC	1	0	02VD 02VO 02VC 02MD 02MO 09MC 02RD 02RO	1	0	0.882204055786	93.0	4.0	90	4	1
2.7	2015_May_29_1552	s	s	15	4	SIC	333	ABS	1	2	02VD 02VO 02VC 10MD 02MO 02MC 02RD 02RO	0	1	2.73015189171	None	None	None	None	1
2.7	2015_May_29_1552	s	s	15	4	SIC	334	RC	2	0	02VD 02VO 09VC 02MD 02MO 02MC 02RD 02RO	1	0	0.776206016541	50.0	-55.0	52	-58	1
2.7	2015_May_29_1552	s	s	15	4	SIC	335	RC	1	1	02VD 02VO 02VC 02MD 09MO 02MC 02RD 02RO	1	0	3.14211606979	531.0	407.0	528	411	1
2.7	2015_May_29_1552	s	s	15	4	SIC	336	RC	0	1	02VD 02VO 02VC 02MD 02MO 02MC 02RD 09RO	1	0	3.66811800003	152.0	-382.0	150	-375	1
2.7	2015_May_29_1552	s	s	15	4	SIC	337	ABS	1	1	02VD 02VO 02VC 02MD 10MO 02MC 02RD 02RO	0	1	2.9306409359	None	None	None	None	1
2.7	2015_May_29_1552	s	s	15	4	SIC	338	RC	2	2	09VD 02VO 02VC 02MD 02MO 02MC 02RD 02RO	1	0	0.846787929535	-133.0	115.0	-131	124	1
2.7	2015_May_29_1552	s	s	15	4	SIC	339	ABS	0	1	02VD 02VO 02VC 02MD 02MO 02MC 02RD 10RO	0	1	4.72686195374	None	None	None	None	1
2.7	2015_May_29_1552	s	s	15	4	SIC	340	RC	0	1	02VD 02VO 02VC 02MD 02MO 02MC 02RD 09RO	1	0	1.73655200005	293.0	-185.0	287	-184	1
2.7	2015_May_29_1552	s	s	15	4	SIC	341	ABS	1	2	02VD 02VO 02VC 10MD 02MO 02MC 02RD 02RO	0	1	2.65397000313	None	None	None	None	1
2.7	2015_May_29_1552	s	s	15	4	SIC	342	ABS	1	0	02VD 02VO 02VC 02MD 02MO 10MC 02RD 02RO	0	1	2.89247393608	None	None	None	None	1
2.7	2015_May_29_1552	s	s	15	4	SIC	343	RC	1	0	02VD 02VO 02VC 02MD 02MO 09MC 02RD 02RO	0	1	2.74191188812	-26.0	164.0	None	None	0
2.7	2015_May_29_1552	s	s	15	4	SIC	344	RC	1	1	02VD 02VO 02VC 02MD 09MO 02MC 02RD 02RO	1	0	1.43541908264	-282.0	-50.0	-291	-52	1
2.7	2015_May_29_1552	s	s	15	4	SIC	345	ABS	2	2	10VD 02VO 02VC 02MD 02MO 02MC 02RD 02RO	0	1	1.84209108353	None	None	None	None	1
2.7	2015_May_29_1552	s	s	15	4	SIC	346	ABS	2	0	02VD 02VO 10VC 02MD 02MO 02MC 02RD 02RO	0	1	3.08742308617	None	None	None	None	1
2.7	2015_May_29_1552	s	s	15	4	SIC	347	RC	0	2	02VD 02VO 02VC 02MD 02MO 02MC 09RD 02RO	1	0	0.980046987534	266.0	251.0	274	246	1
2.7	2015_May_29_1552	s	s	15	4	SIC	348	ABS	0	2	02VD 02VO 02VC 02MD 02MO 02MC 10RD 02RO	0	1	4.04842591286	None	None	None	None	1
2.7	2015_May_29_1552	s	s	15	4	SIC	349	ABS	2	1	02VD 10VO 02VC 02MD 02MO 02MC 02RD 02RO	0	1	3.02834010124	None	None	None	None	1
2.7	2015_May_29_1552	s	s	15	4	SIC	350	RC	1	2	02VD 02VO 02VC 09MD 02MO 02MC 02RD 02RO	1	0	1.38577985764	209.0	-310.0	201	-307	1
2.7	2015_May_29_1552	s	s	15	4	SIC	351	RC	2	0	02VD 02VO 09VC 02MD 02MO 02MC 02RD 02RO	1	0	0.64106297493	94.0	220.0	96	222	1
2.7	2015_May_29_1552	s	s	15	4	SIC	352	RC	2	1	02VD 09VO 02VC 02MD 02MO 02MC 02RD 02RO	1	0	1.27036714554	253.0	-40.0	245	-33	1
2.7	2015_May_29_1552	s	s	15	4	SIC	353	RC	1	2	02VD 02VO 02VC 09MD 02MO 02MC 02RD 02RO	1	0	1.12934279442	322.0	17.0	314	18	1
2.7	2015_May_29_1552	s	s	15	4	SIC	354	ABS	1	2	02VD 02VO 02VC 10MD 02MO 02MC 02RD 02RO	0	1	2.79766201973	None	None	None	None	1
2.7	2015_May_29_1552	s	s	15	4	SIC	355	ABS	1	1	02VD 02VO 02VC 02MD 10MO 02MC 02RD 02RO	0	1	3.12332510948	None	None	None	None	1
2.7	2015_May_29_1552	s	s	15	4	SIC	356	RC	2	2	09VD 02VO 02VC 02MD 02MO 02MC 02RD 02RO	1	0	1.36230516434	-100.0	-96.0	-99	-105	1
2.7	2015_May_29_1552	s	s	15	4	SIC	357	RC	0	2	02VD 02VO 02VC 02MD 02MO 02MC 09RD 02RO	1	0	1.24178600311	-226.0	-74.0	-216	-74	1
2.7	2015_May_29_1552	s	s	15	4	SIC	358	RC	2	1	02VD 09VO 02VC 02MD 02MO 02MC 02RD 02RO	1	0	1.56233692169	393.0	-270.0	395	-276	1
2.7	2015_May_29_1552	s	s	15	4	SIC	359	ABS	2	2	10VD 02VO 02VC 02MD 02MO 02MC 02RD 02RO	0	1	3.31367611885	None	None	None	None	1
2.7	2015_May_29_1552	s	s	15	4	SIC	360	ABS	1	0	02VD 02VO 02VC 02MD 02MO 10MC 02RD 02RO	0	1	3.24548697472	None	None	None	None	1
2.7	2015_May_29_1552	s	s	15	4	SIC	361	RC	2	0	02VD 02VO 09VC 02MD 02MO 02MC 02RD 02RO	1	0	1.70087790489	336.0	397.0	338	396	1
2.7	2015_May_29_1552	s	s	15	4	SIC	362	ABS	0	1	02VD 02VO 02VC 02MD 02MO 02MC 02RD 10RO	0	1	3.50167798996	None	None	None	None	1
2.7	2015_May_29_1552	s	s	15	4	SIC	363	ABS	0	2	02VD 02VO 02VC 02MD 02MO 02MC 10RD 02RO	0	1	3.56087088585	None	None	None	None	1
2.7	2015_May_29_1552	s	s	15	4	SIC	364	RC	1	1	02VD 02VO 02VC 02MD 09MO 02MC 02RD 02RO	1	0	2.74822592735	80.0	-297.0	81	-292	1
2.7	2015_May_29_1552	s	s	15	4	SIC	365	RC	0	1	02VD 02VO 02VC 02MD 02MO 02MC 02RD 09RO	1	0	1.5269920826	507.0	154.0	503	156	1
2.7	2015_May_29_1552	s	s	15	4	SIC	366	ABS	2	0	02VD 02VO 10VC 02MD 02MO 02MC 02RD 02RO	0	1	1.8944299221	None	None	None	None	1
2.7	2015_May_29_1552	s	s	15	4	SIC	367	RC	1	0	02VD 02VO 02VC 02MD 02MO 09MC 02RD 02RO	1	0	0.678718090057	54.0	124.0	46	126	1
2.7	2015_May_29_1552	s	s	15	4	SIC	368	ABS	2	1	02VD 10VO 02VC 02MD 02MO 02MC 02RD 02RO	0	1	0.138209819794	None	None	None	None	1
2.7	2015_May_29_1552	s	s	15	4	SIC	369	ABS	1	0	02VD 02VO 02VC 02MD 02MO 10MC 02RD 02RO	0	1	2.33686494827	None	None	None	None	1
2.7	2015_May_29_1552	s	s	15	4	SIC	370	ABS	0	2	02VD 02VO 02VC 02MD 02MO 02MC 10RD 02RO	0	1	3.62474489212	None	None	None	None	1
2.7	2015_May_29_1552	s	s	15	4	SIC	371	RC	1	0	02VD 02VO 02VC 02MD 02MO 09MC 02RD 02RO	1	0	1.48936486244	-540.0	197.0	-543	194	1
2.7	2015_May_29_1552	s	s	15	4	SIC	372	ABS	1	2	02VD 02VO 02VC 10MD 02MO 02MC 02RD 02RO	0	1	2.14984798431	None	None	None	None	1
2.7	2015_May_29_1552	s	s	15	4	SIC	373	ABS	2	1	02VD 10VO 02VC 02MD 02MO 02MC 02RD 02RO	0	1	2.16170096397	None	None	None	None	1
2.7	2015_May_29_1552	s	s	15	4	SIC	374	RC	1	2	02VD 02VO 02VC 09MD 02MO 02MC 02RD 02RO	1	0	1.50592088699	49.0	-183.0	40	-185	1
2.7	2015_May_29_1552	s	s	15	4	SIC	375	RC	2	0	02VD 02VO 09VC 02MD 02MO 02MC 02RD 02RO	1	0	1.621270895	-175.0	-186.0	-174	-182	1
2.7	2015_May_29_1552	s	s	15	4	SIC	376	RC	2	2	09VD 02VO 02VC 02MD 02MO 02MC 02RD 02RO	1	0	1.50311779976	-11.0	-280.0	-4	-275	1
2.7	2015_May_29_1552	s	s	15	4	SIC	377	RC	1	1	02VD 02VO 02VC 02MD 09MO 02MC 02RD 02RO	1	0	1.46758294106	13.0	380.0	19	382	1
2.7	2015_May_29_1552	s	s	15	4	SIC	378	ABS	0	1	02VD 02VO 02VC 02MD 02MO 02MC 02RD 10RO	0	1	1.47064590454	None	None	None	None	1
2.7	2015_May_29_1552	s	s	15	4	SIC	379	ABS	2	2	10VD 02VO 02VC 02MD 02MO 02MC 02RD 02RO	0	1	2.3267788887	None	None	None	None	1
2.7	2015_May_29_1552	s	s	15	4	SIC	380	RC	0	1	02VD 02VO 02VC 02MD 02MO 02MC 02RD 09RO	1	0	2.70422697067	-11.0	-318.0	-12	-322	1
2.7	2015_May_29_1552	s	s	15	4	SIC	381	RC	2	1	02VD 09VO 02VC 02MD 02MO 02MC 02RD 02RO	1	0	0.573230028152	-211.0	186.0	-216	181	1
2.7	2015_May_29_1552	s	s	15	4	SIC	382	ABS	1	1	02VD 02VO 02VC 02MD 10MO 02MC 02RD 02RO	0	1	2.97133493423	None	None	None	None	1
2.7	2015_May_29_1552	s	s	15	4	SIC	383	RC	0	2	02VD 02VO 02VC 02MD 02MO 02MC 09RD 02RO	1	0	1.94157600403	454.0	223.0	463	225	1
2.7	2015_May_29_1552	s	s	15	4	SIC	384	ABS	2	0	02VD 02VO 10VC 02MD 02MO 02MC 02RD 02RO	0	1	1.50605988503	None	None	None	None	1
2.7	2015_May_29_1552	s	s	15	4	SIC	385	ABS	0	2	02VD 02VO 02VC 02MD 02MO 02MC 10RD 02RO	0	1	2.17690491676	None	None	None	None	1
2.7	2015_May_29_1552	s	s	15	4	SIC	386	ABS	1	2	02VD 02VO 02VC 10MD 02MO 02MC 02RD 02RO	0	1	3.51667094231	None	None	None	None	1
2.7	2015_May_29_1552	s	s	15	4	SIC	387	RC	1	1	02VD 02VO 02VC 02MD 09MO 02MC 02RD 02RO	1	0	2.77490305901	-410.0	-258.0	-415	-255	1
2.7	2015_May_29_1552	s	s	15	4	SIC	388	RC	1	0	02VD 02VO 02VC 02MD 02MO 09MC 02RD 02RO	1	0	0.999913930893	-485.0	358.0	-491	359	1
2.7	2015_May_29_1552	s	s	15	4	SIC	389	RC	2	1	02VD 09VO 02VC 02MD 02MO 02MC 02RD 02RO	1	0	2.5418510437	204.0	379.0	214	383	1
2.7	2015_May_29_1552	s	s	15	4	SIC	390	RC	2	2	09VD 02VO 02VC 02MD 02MO 02MC 02RD 02RO	1	0	1.31364798546	23.0	-87.0	23	-82	1
2.7	2015_May_29_1552	s	s	15	4	SIC	391	RC	0	1	02VD 02VO 02VC 02MD 02MO 02MC 02RD 09RO	1	0	0.96245598793	-385.0	341.0	-388	345	1
2.7	2015_May_29_1552	s	s	15	4	SIC	392	ABS	1	1	02VD 02VO 02VC 02MD 10MO 02MC 02RD 02RO	0	1	3.29308414459	None	None	None	None	1
2.7	2015_May_29_1552	s	s	15	4	SIC	393	ABS	2	0	02VD 02VO 10VC 02MD 02MO 02MC 02RD 02RO	0	1	2.25680804253	None	None	None	None	1
2.7	2015_May_29_1552	s	s	15	4	SIC	394	ABS	2	2	10VD 02VO 02VC 02MD 02MO 02MC 02RD 02RO	0	1	2.18870592117	None	None	None	None	1
2.7	2015_May_29_1552	s	s	15	4	SIC	395	RC	1	2	02VD 02VO 02VC 09MD 02MO 02MC 02RD 02RO	1	0	0.6119120121	-300.0	288.0	-295	284	1
2.7	2015_May_29_1552	s	s	15	4	SIC	396	ABS	0	1	02VD 02VO 02VC 02MD 02MO 02MC 02RD 10RO	0	1	2.71886110306	None	None	None	None	1
2.7	2015_May_29_1552	s	s	15	4	SIC	397	RC	0	2	02VD 02VO 02VC 02MD 02MO 02MC 09RD 02RO	1	0	0.654929876328	19.0	69.0	24	69	1
2.7	2015_May_29_1552	s	s	15	4	SIC	398	ABS	2	1	02VD 10VO 02VC 02MD 02MO 02MC 02RD 02RO	0	1	1.92967391014	None	None	None	None	1
2.7	2015_May_29_1552	s	s	15	4	SIC	399	RC	2	0	02VD 02VO 09VC 02MD 02MO 02MC 02RD 02RO	1	0	0.700442075729	53.0	310.0	55	316	1
2.7	2015_May_29_1552	s	s	15	4	SIC	400	ABS	1	0	02VD 02VO 02VC 02MD 02MO 10MC 02RD 02RO	0	1	2.48295903206	None	None	None	None	1
2.7	2015_May_29_1552	s	s	15	4	SIC	401	RC	2	0	02VD 02VO 09VC 02MD 02MO 02MC 02RD 02RO	1	0	1.52398991585	411.0	393.0	409	395	1
2.7	2015_May_29_1552	s	s	15	4	SIC	402	RC	1	0	02VD 02VO 02VC 02MD 02MO 09MC 02RD 02RO	1	0	1.30588984489	-219.0	-91.0	-222	-95	1
2.7	2015_May_29_1552	s	s	15	4	SIC	403	RC	1	2	02VD 02VO 02VC 09MD 02MO 02MC 02RD 02RO	1	0	2.1627471447	53.0	-215.0	57	-210	1
2.7	2015_May_29_1552	s	s	15	4	SIC	404	ABS	1	0	02VD 02VO 02VC 02MD 02MO 10MC 02RD 02RO	0	1	4.96161699295	None	None	None	None	1
2.7	2015_May_29_1552	s	s	15	4	SIC	405	ABS	1	1	02VD 02VO 02VC 02MD 10MO 02MC 02RD 02RO	0	1	3.56016492844	None	None	None	None	1
2.7	2015_May_29_1552	s	s	15	4	SIC	406	RC	2	2	09VD 02VO 02VC 02MD 02MO 02MC 02RD 02RO	1	0	1.73892998695	38.0	-319.0	37	-320	1
2.7	2015_May_29_1552	s	s	15	4	SIC	407	RC	2	1	02VD 09VO 02VC 02MD 02MO 02MC 02RD 02RO	1	0	2.78358602524	-380.0	-233.0	-377	-239	1
2.7	2015_May_29_1552	s	s	15	4	SIC	408	ABS	0	2	02VD 02VO 02VC 02MD 02MO 02MC 10RD 02RO	0	1	2.77466678619	None	None	None	None	1
2.7	2015_May_29_1552	s	s	15	4	SIC	409	RC	0	2	02VD 02VO 02VC 02MD 02MO 02MC 09RD 02RO	1	0	1.93745803833	485.0	-271.0	495	-264	1
2.7	2015_May_29_1552	s	s	15	4	SIC	410	ABS	2	1	02VD 10VO 02VC 02MD 02MO 02MC 02RD 02RO	0	1	2.85942387581	None	None	None	None	1
2.7	2015_May_29_1552	s	s	15	4	SIC	411	ABS	2	0	02VD 02VO 10VC 02MD 02MO 02MC 02RD 02RO	0	1	2.81263399124	None	None	None	None	1
2.7	2015_May_29_1552	s	s	15	4	SIC	412	RC	0	1	02VD 02VO 02VC 02MD 02MO 02MC 02RD 09RO	1	0	2.83363008499	536.0	-383.0	543	-382	1
2.7	2015_May_29_1552	s	s	15	4	SIC	413	RC	1	1	02VD 02VO 02VC 02MD 09MO 02MC 02RD 02RO	1	0	1.70598196983	530.0	107.0	532	109	1
2.7	2015_May_29_1552	s	s	15	4	SIC	414	ABS	0	1	02VD 02VO 02VC 02MD 02MO 02MC 02RD 10RO	0	1	5.92748498917	None	None	None	None	1
2.7	2015_May_29_1552	s	s	15	4	SIC	415	ABS	2	2	10VD 02VO 02VC 02MD 02MO 02MC 02RD 02RO	0	1	2.29454898834	None	None	None	None	1
2.7	2015_May_29_1552	s	s	15	4	SIC	416	ABS	1	2	02VD 02VO 02VC 10MD 02MO 02MC 02RD 02RO	0	1	2.41231608391	None	None	None	None	1
2.7	2015_May_29_1552	s	s	15	4	SIC	417	RC	1	0	02VD 02VO 02VC 02MD 02MO 09MC 02RD 02RO	1	0	0.972244977951	282.0	324.0	282	312	1
2.7	2015_May_29_1552	s	s	15	4	SIC	418	RC	1	1	02VD 02VO 02VC 02MD 09MO 02MC 02RD 02RO	1	0	0.776186943054	262.0	376.0	258	377	1
2.7	2015_May_29_1552	s	s	15	4	SIC	419	RC	0	1	02VD 02VO 02VC 02MD 02MO 02MC 02RD 09RO	0	1	4.39600896835	349.0	27.0	None	None	0
2.7	2015_May_29_1552	s	s	15	4	SIC	420	ABS	2	0	02VD 02VO 10VC 02MD 02MO 02MC 02RD 02RO	0	1	2.09110212326	None	None	None	None	1
2.7	2015_May_29_1552	s	s	15	4	SIC	421	ABS	1	1	02VD 02VO 02VC 02MD 10MO 02MC 02RD 02RO	0	1	3.31869888306	None	None	None	None	1
2.7	2015_May_29_1552	s	s	15	4	SIC	422	RC	0	2	02VD 02VO 02VC 02MD 02MO 02MC 09RD 02RO	1	0	1.00670480728	250.0	324.0	243	328	1
2.7	2015_May_29_1552	s	s	15	4	SIC	423	ABS	1	2	02VD 02VO 02VC 10MD 02MO 02MC 02RD 02RO	0	1	2.05724692345	None	None	None	None	1
2.7	2015_May_29_1552	s	s	15	4	SIC	424	RC	1	2	02VD 02VO 02VC 09MD 02MO 02MC 02RD 02RO	1	0	2.51310801506	-297.0	-208.0	-296	-212	1
2.7	2015_May_29_1552	s	s	15	4	SIC	425	RC	2	0	02VD 02VO 09VC 02MD 02MO 02MC 02RD 02RO	1	0	1.61901593208	-22.0	261.0	-14	262	1
2.7	2015_May_29_1552	s	s	15	4	SIC	426	ABS	0	1	02VD 02VO 02VC 02MD 02MO 02MC 02RD 10RO	0	1	3.52631092072	None	None	None	None	1
2.7	2015_May_29_1552	s	s	15	4	SIC	427	RC	2	1	02VD 09VO 02VC 02MD 02MO 02MC 02RD 02RO	1	0	1.52944993973	357.0	370.0	357	373	1
2.7	2015_May_29_1552	s	s	15	4	SIC	428	ABS	2	2	10VD 02VO 02VC 02MD 02MO 02MC 02RD 02RO	0	1	2.0236389637	None	None	None	None	1
2.7	2015_May_29_1552	s	s	15	4	SIC	429	ABS	2	1	02VD 10VO 02VC 02MD 02MO 02MC 02RD 02RO	0	1	1.49175691605	None	None	None	None	1
2.7	2015_May_29_1552	s	s	15	4	SIC	430	ABS	1	0	02VD 02VO 02VC 02MD 02MO 10MC 02RD 02RO	0	1	3.06010198593	None	None	None	None	1
2.7	2015_May_29_1552	s	s	15	4	SIC	431	RC	2	2	09VD 02VO 02VC 02MD 02MO 02MC 02RD 02RO	1	0	1.09398603439	-150.0	-159.0	-154	-163	1
2.7	2015_May_29_1552	s	s	15	4	SIC	432	ABS	0	2	02VD 02VO 02VC 02MD 02MO 02MC 10RD 02RO	0	1	3.00084090233	None	None	None	None	1
2.7	2015_May_29_1552	s	s	15	4	SIC	433	ABS	2	2	10VD 02VO 02VC 02MD 02MO 02MC 02RD 02RO	0	1	1.85919094086	None	None	None	None	1
2.7	2015_May_29_1552	s	s	15	4	SIC	434	ABS	0	1	02VD 02VO 02VC 02MD 02MO 02MC 02RD 10RO	0	1	4.13080406189	None	None	None	None	1
2.7	2015_May_29_1552	s	s	15	4	SIC	435	RC	2	0	02VD 02VO 09VC 02MD 02MO 02MC 02RD 02RO	0	1	3.10708808899	-519.0	-110.0	None	None	0
2.7	2015_May_29_1552	s	s	15	4	SIC	436	RC	2	2	09VD 02VO 02VC 02MD 02MO 02MC 02RD 02RO	1	0	1.52950191498	157.0	-382.0	159	-379	1
2.7	2015_May_29_1552	s	s	15	4	SIC	437	RC	0	1	02VD 02VO 02VC 02MD 02MO 02MC 02RD 09RO	1	0	0.740984916687	112.0	36.0	104	39	1
2.7	2015_May_29_1552	s	s	15	4	SIC	438	RC	2	1	02VD 09VO 02VC 02MD 02MO 02MC 02RD 02RO	1	0	1.25881719589	-114.0	-202.0	-121	-207	1
2.7	2015_May_29_1552	s	s	15	4	SIC	439	ABS	1	2	02VD 02VO 02VC 10MD 02MO 02MC 02RD 02RO	0	1	1.89198589325	None	None	None	None	1
2.7	2015_May_29_1552	s	s	15	4	SIC	440	RC	1	0	02VD 02VO 02VC 02MD 02MO 09MC 02RD 02RO	1	0	1.7591650486	218.0	-161.0	218	-158	1
2.7	2015_May_29_1552	s	s	15	4	SIC	441	ABS	1	0	02VD 02VO 02VC 02MD 02MO 10MC 02RD 02RO	0	1	3.98452711105	None	None	None	None	1
2.7	2015_May_29_1552	s	s	15	4	SIC	442	RC	1	2	02VD 02VO 02VC 09MD 02MO 02MC 02RD 02RO	1	0	1.54139685631	530.0	-113.0	545	-104	1
2.7	2015_May_29_1552	s	s	15	4	SIC	443	RC	1	1	02VD 02VO 02VC 02MD 09MO 02MC 02RD 02RO	1	0	1.79809713364	78.0	-178.0	73	-176	1
2.7	2015_May_29_1552	s	s	15	4	SIC	444	ABS	2	1	02VD 10VO 02VC 02MD 02MO 02MC 02RD 02RO	0	1	3.37510895729	None	None	None	None	1
2.7	2015_May_29_1552	s	s	15	4	SIC	445	RC	0	2	02VD 02VO 02VC 02MD 02MO 02MC 09RD 02RO	1	0	3.04796290398	314.0	-118.0	322	-109	1
2.7	2015_May_29_1552	s	s	15	4	SIC	446	ABS	0	2	02VD 02VO 02VC 02MD 02MO 02MC 10RD 02RO	0	1	4.35104298592	None	None	None	None	1
2.7	2015_May_29_1552	s	s	15	4	SIC	447	ABS	2	0	02VD 02VO 10VC 02MD 02MO 02MC 02RD 02RO	0	1	4.04907083511	None	None	None	None	1
2.7	2015_May_29_1552	s	s	15	4	SIC	448	ABS	1	1	02VD 02VO 02VC 02MD 10MO 02MC 02RD 02RO	0	1	2.72451686859	None	None	None	None	1
2.7	2015_May_29_1552	s	s	15	4	SIC	449	RC	0	2	02VD 02VO 02VC 02MD 02MO 02MC 09RD 02RO	1	0	1.26550889015	-251.0	-35.0	-250	-38	1
2.7	2015_May_29_1552	s	s	15	4	SIC	450	ABS	1	2	02VD 02VO 02VC 10MD 02MO 02MC 02RD 02RO	0	1	2.36279606819	None	None	None	None	1
2.7	2015_May_29_1552	s	s	15	4	SIC	451	ABS	0	1	02VD 02VO 02VC 02MD 02MO 02MC 02RD 10RO	0	1	4.93726015091	None	None	None	None	1
2.7	2015_May_29_1552	s	s	15	4	SIC	452	ABS	2	2	10VD 02VO 02VC 02MD 02MO 02MC 02RD 02RO	0	1	2.47129607201	None	None	None	None	1
2.7	2015_May_29_1552	s	s	15	4	SIC	453	RC	2	1	02VD 09VO 02VC 02MD 02MO 02MC 02RD 02RO	1	0	1.88915801048	-135.0	-152.0	-135	-157	1
2.7	2015_May_29_1552	s	s	15	4	SIC	454	RC	2	2	09VD 02VO 02VC 02MD 02MO 02MC 02RD 02RO	1	0	2.22385311127	-34.0	-210.0	-37	-210	1
2.7	2015_May_29_1552	s	s	15	4	SIC	455	ABS	2	1	02VD 10VO 02VC 02MD 02MO 02MC 02RD 02RO	0	1	2.98905205727	None	None	None	None	1
2.7	2015_May_29_1552	s	s	15	4	SIC	456	ABS	2	0	02VD 02VO 10VC 02MD 02MO 02MC 02RD 02RO	0	1	2.82434010506	None	None	None	None	1
2.7	2015_May_29_1552	s	s	15	4	SIC	457	ABS	1	0	02VD 02VO 02VC 02MD 02MO 10MC 02RD 02RO	0	1	3.48969483376	None	None	None	None	1
2.7	2015_May_29_1552	s	s	15	4	SIC	458	ABS	1	1	02VD 02VO 02VC 02MD 10MO 02MC 02RD 02RO	0	1	2.30179405212	None	None	None	None	1
2.7	2015_May_29_1552	s	s	15	4	SIC	459	RC	0	1	02VD 02VO 02VC 02MD 02MO 02MC 02RD 09RO	1	0	2.30649113655	-5.0	-211.0	-8	-208	1
2.7	2015_May_29_1552	s	s	15	4	SIC	460	RC	1	2	02VD 02VO 02VC 09MD 02MO 02MC 02RD 02RO	1	0	0.947638988495	-103.0	381.0	-96	380	1
2.7	2015_May_29_1552	s	s	15	4	SIC	461	ABS	0	2	02VD 02VO 02VC 02MD 02MO 02MC 10RD 02RO	0	1	2.11239099503	None	None	None	None	1
2.7	2015_May_29_1552	s	s	15	4	SIC	462	RC	1	1	02VD 02VO 02VC 02MD 09MO 02MC 02RD 02RO	1	0	1.30022096634	481.0	-133.0	486	-135	1
2.7	2015_May_29_1552	s	s	15	4	SIC	463	RC	2	0	02VD 02VO 09VC 02MD 02MO 02MC 02RD 02RO	1	0	2.63593697548	-401.0	309.0	-398	312	1
2.7	2015_May_29_1552	s	s	15	4	SIC	464	RC	1	0	02VD 02VO 02VC 02MD 02MO 09MC 02RD 02RO	1	0	1.43329596519	210.0	-118.0	208	-117	1
2.7	2015_May_29_1552	s	s	15	4	SIC	465	RC	2	1	02VD 09VO 02VC 02MD 02MO 02MC 02RD 02RO	1	0	1.62373018265	50.0	-179.0	42	-173	1
2.7	2015_May_29_1552	s	s	15	4	SIC	466	RC	0	2	02VD 02VO 02VC 02MD 02MO 02MC 09RD 02RO	1	0	0.85854101181	11.0	385.0	-1	388	1
2.7	2015_May_29_1552	s	s	15	4	SIC	467	RC	0	1	02VD 02VO 02VC 02MD 02MO 02MC 02RD 09RO	1	0	0.782572984695	45.0	21.0	41	14	1
2.7	2015_May_29_1552	s	s	15	4	SIC	468	ABS	0	1	02VD 02VO 02VC 02MD 02MO 02MC 02RD 10RO	0	1	4.19551110268	None	None	None	None	1
2.7	2015_May_29_1552	s	s	15	4	SIC	469	ABS	1	2	02VD 02VO 02VC 10MD 02MO 02MC 02RD 02RO	0	1	3.41950106621	None	None	None	None	1
2.7	2015_May_29_1552	s	s	15	4	SIC	470	ABS	2	2	10VD 02VO 02VC 02MD 02MO 02MC 02RD 02RO	0	1	1.95995593071	None	None	None	None	1
2.7	2015_May_29_1552	s	s	15	4	SIC	471	RC	2	0	02VD 02VO 09VC 02MD 02MO 02MC 02RD 02RO	1	0	1.7486038208	-451.0	-151.0	-447	-146	1
2.7	2015_May_29_1552	s	s	15	4	SIC	472	RC	1	0	02VD 02VO 02VC 02MD 02MO 09MC 02RD 02RO	1	0	0.597093105316	-374.0	90.0	-382	88	1
2.7	2015_May_29_1552	s	s	15	4	SIC	473	ABS	1	0	02VD 02VO 02VC 02MD 02MO 10MC 02RD 02RO	0	1	2.624106884	None	None	None	None	1
2.7	2015_May_29_1552	s	s	15	4	SIC	474	ABS	2	1	02VD 10VO 02VC 02MD 02MO 02MC 02RD 02RO	0	1	1.80021190643	None	None	None	None	1
2.7	2015_May_29_1552	s	s	15	4	SIC	475	RC	1	1	02VD 02VO 02VC 02MD 09MO 02MC 02RD 02RO	1	0	2.88027095795	485.0	-306.0	489	-305	1
2.7	2015_May_29_1552	s	s	15	4	SIC	476	ABS	2	0	02VD 02VO 10VC 02MD 02MO 02MC 02RD 02RO	1	0	2.36029291153	None	None	320	-276	0
2.7	2015_May_29_1552	s	s	15	4	SIC	477	ABS	1	1	02VD 02VO 02VC 02MD 10MO 02MC 02RD 02RO	0	1	2.71348595619	None	None	None	None	1
2.7	2015_May_29_1552	s	s	15	4	SIC	478	RC	2	2	09VD 02VO 02VC 02MD 02MO 02MC 02RD 02RO	1	0	1.70614409447	5.0	-153.0	9	-159	1
2.7	2015_May_29_1552	s	s	15	4	SIC	479	ABS	0	2	02VD 02VO 02VC 02MD 02MO 02MC 10RD 02RO	0	1	2.7493019104	None	None	None	None	1
2.7	2015_May_29_1552	s	s	15	4	SIC	480	RC	1	2	02VD 02VO 02VC 09MD 02MO 02MC 02RD 02RO	1	0	1.56474709511	116.0	-321.0	119	-317	1
