Version	Date	Stimuli	Method	Subject	Session	Condition	Trial	Target	Channel1	Channel2	Distractors	LMouseButton	RMouseButton	RT	TargetX	TargetY	ResponseX	ResponseY	Correct
2.7	2015_May_26_1553	s	s	15	1	Capacity	1	RC	1	0	08VC 15MC	1	0	5.82590913773	422.0	237.0	429	238	1
2.7	2015_May_26_1553	s	s	15	1	Capacity	2	ABS	2	0	16VC 08MC	0	1	5.43190097809	None	None	None	None	1
2.7	2015_May_26_1553	s	s	15	1	Capacity	3	ABS	1	0	08VC 16MC	0	1	10.2229070663	None	None	None	None	1
2.7	2015_May_26_1553	s	s	15	1	Capacity	4	RC	2	0	15VC 08MC	1	0	2.87178397179	176.0	7.0	172	-1	1
2.7	2015_May_26_1553	s	s	15	1	Capacity	5	RC	2	0	15VC 08MC	1	0	2.20623207092	120.0	-9.0	119	-13	1
2.7	2015_May_26_1553	s	s	15	1	Capacity	6	ABS	1	0	08VC 16MC	1	0	6.8941860199	None	None	-365	-376	0
2.7	2015_May_26_1553	s	s	15	1	Capacity	7	ABS	2	0	16VC 08MC	0	1	3.83082699776	None	None	None	None	1
2.7	2015_May_26_1553	s	s	15	1	Capacity	8	RC	1	0	08VC 15MC	1	0	3.7746450901	123.0	394.0	115	399	1
2.7	2015_May_26_1553	s	s	15	1	Capacity	9	ABS	1	0	08VC 16MC	0	1	10.2254111767	None	None	None	None	1
2.7	2015_May_26_1553	s	s	15	1	Capacity	10	RC	2	0	15VC 08MC	1	0	2.12984395027	513.0	-280.0	514	-278	1
2.7	2015_May_26_1553	s	s	15	1	Capacity	11	ABS	2	0	16VC 08MC	1	0	6.7203950882	None	None	-266	341	0
2.7	2015_May_26_1553	s	s	15	1	Capacity	12	RC	1	0	08VC 15MC	1	0	1.7839179039	-385.0	318.0	-386	303	1
2.7	2015_May_26_1553	s	s	15	1	Capacity	13	RC	2	0	15VC 08MC	1	0	1.64733982086	-68.0	115.0	-61	115	1
2.7	2015_May_26_1553	s	s	15	1	Capacity	14	ABS	1	0	08VC 16MC	0	1	5.16658997536	None	None	None	None	1
2.7	2015_May_26_1553	s	s	15	1	Capacity	15	ABS	2	0	16VC 08MC	0	1	5.70578384399	None	None	None	None	1
2.7	2015_May_26_1553	s	s	15	1	Capacity	16	RC	1	0	08VC 15MC	1	0	1.65258407593	313.0	55.0	307	50	1
2.7	2015_May_26_1553	s	s	15	1	Capacity	17	RC	2	0	15VC 08MC	1	0	1.52963399887	-384.0	400.0	-384	398	1
2.7	2015_May_26_1553	s	s	15	1	Capacity	18	ABS	2	0	16VC 08MC	0	1	7.19892597198	None	None	None	None	1
2.7	2015_May_26_1553	s	s	15	1	Capacity	19	ABS	1	0	08VC 16MC	1	0	7.90926098824	None	None	522	-150	0
2.7	2015_May_26_1553	s	s	15	1	Capacity	20	RC	1	0	08VC 15MC	1	0	2.9149479866	-323.0	61.0	-322	63	1
2.7	2015_May_26_1553	s	s	15	1	Capacity	21	ABS	1	0	08VC 16MC	1	0	5.72588801384	None	None	-520	-349	0
2.7	2015_May_26_1553	s	s	15	1	Capacity	22	ABS	2	0	16VC 08MC	0	1	3.67178297043	None	None	None	None	1
2.7	2015_May_26_1553	s	s	15	1	Capacity	23	RC	2	0	15VC 08MC	1	0	2.1978559494	-437.0	227.0	-436	223	1
2.7	2015_May_26_1553	s	s	15	1	Capacity	24	RC	1	0	08VC 15MC	1	0	2.61289596558	-44.0	-299.0	-36	-298	1
2.7	2015_May_26_1553	s	s	15	1	Capacity	25	RC	2	0	15VC 08MC	1	0	2.69132781029	255.0	-33.0	269	-28	1
2.7	2015_May_26_1553	s	s	15	1	Capacity	26	ABS	2	0	16VC 08MC	0	1	7.37441492081	None	None	None	None	1
2.7	2015_May_26_1553	s	s	15	1	Capacity	27	ABS	1	0	08VC 16MC	1	0	4.81347799301	None	None	499	-70	0
2.7	2015_May_26_1553	s	s	15	1	Capacity	28	RC	1	0	08VC 15MC	1	0	2.85963797569	267.0	306.0	261	303	1
2.7	2015_May_26_1553	s	s	15	1	Capacity	29	RC	2	0	15VC 08MC	1	0	1.40372896194	-157.0	347.0	-151	352	1
2.7	2015_May_26_1553	s	s	15	1	Capacity	30	ABS	1	0	08VC 16MC	0	1	5.71661281586	None	None	None	None	1
2.7	2015_May_26_1553	s	s	15	1	Capacity	31	RC	1	0	08VC 15MC	1	0	1.25884795189	-75.0	14.0	-79	18	1
2.7	2015_May_26_1553	s	s	15	1	Capacity	32	ABS	2	0	16VC 08MC	0	1	3.27164721489	None	None	None	None	1
2.7	2015_May_26_1553	s	s	15	1	Capacity	33	RC	1	0	08VC 15MC	1	0	1.45457005501	210.0	47.0	208	44	1
2.7	2015_May_26_1553	s	s	15	1	Capacity	34	ABS	2	0	16VC 08MC	0	1	2.24171900749	None	None	None	None	1
2.7	2015_May_26_1553	s	s	15	1	Capacity	35	RC	2	0	15VC 08MC	1	0	1.45581102371	1.0	189.0	-1	186	1
2.7	2015_May_26_1553	s	s	15	1	Capacity	36	ABS	1	0	08VC 16MC	0	1	4.47218990326	None	None	None	None	1
2.7	2015_May_26_1553	s	s	15	1	Capacity	37	RC	1	0	08VC 15MC	1	0	2.39551615715	322.0	128.0	321	123	1
2.7	2015_May_26_1553	s	s	15	1	Capacity	38	ABS	2	0	16VC 08MC	0	1	2.44760417938	None	None	None	None	1
2.7	2015_May_26_1553	s	s	15	1	Capacity	39	RC	2	0	15VC 08MC	1	0	1.6119389534	80.0	-122.0	86	-131	1
2.7	2015_May_26_1553	s	s	15	1	Capacity	40	ABS	1	0	08VC 16MC	0	1	5.71990704536	None	None	None	None	1
2.7	2015_May_26_1553	s	s	15	1	Capacity	41	ABS	2	0	16VC 08MC	0	1	4.52532505989	None	None	None	None	1
2.7	2015_May_26_1553	s	s	15	1	Capacity	42	ABS	1	0	08VC 16MC	0	1	5.53929018974	None	None	None	None	1
2.7	2015_May_26_1553	s	s	15	1	Capacity	43	RC	1	0	08VC 15MC	1	0	1.52655315399	-147.0	-51.0	-134	-47	1
2.7	2015_May_26_1553	s	s	15	1	Capacity	44	RC	2	0	15VC 08MC	1	0	1.74168515205	-297.0	400.0	-294	391	1
2.7	2015_May_26_1553	s	s	15	1	Capacity	45	ABS	1	0	08VC 16MC	0	1	2.62426900864	None	None	None	None	1
2.7	2015_May_26_1553	s	s	15	1	Capacity	46	ABS	2	0	16VC 08MC	0	1	7.6268529892	None	None	None	None	1
2.7	2015_May_26_1553	s	s	15	1	Capacity	47	RC	2	0	15VC 08MC	1	0	1.32613110542	-364.0	-112.0	-351	-109	1
2.7	2015_May_26_1553	s	s	15	1	Capacity	48	RC	1	0	08VC 15MC	1	0	1.39611196518	-221.0	267.0	-227	265	1
2.7	2015_May_26_1553	s	s	15	1	Capacity	49	ABS	2	0	16VC 08MC	0	1	2.52688980103	None	None	None	None	1
2.7	2015_May_26_1553	s	s	15	1	Capacity	50	RC	1	0	08VC 15MC	0	1	5.22581911087	461.0	-290.0	None	None	0
2.7	2015_May_26_1553	s	s	15	1	Capacity	51	ABS	1	0	08VC 16MC	0	1	4.68411493301	None	None	None	None	1
2.7	2015_May_26_1553	s	s	15	1	Capacity	52	RC	2	0	15VC 08MC	1	0	2.08278203011	-462.0	111.0	-461	99	1
2.7	2015_May_26_1553	s	s	15	1	Capacity	53	RC	1	0	08VC 15MC	1	0	2.83127093315	-180.0	85.0	-168	87	1
2.7	2015_May_26_1553	s	s	15	1	Capacity	54	RC	2	0	15VC 08MC	1	0	2.5336868763	456.0	-392.0	460	-395	1
2.7	2015_May_26_1553	s	s	15	1	Capacity	55	ABS	2	0	16VC 08MC	0	1	4.04281687737	None	None	None	None	1
2.7	2015_May_26_1553	s	s	15	1	Capacity	56	ABS	1	0	08VC 16MC	0	1	4.24616503716	None	None	None	None	1
2.7	2015_May_26_1553	s	s	15	1	Capacity	57	ABS	2	0	16VC 08MC	0	1	5.04554486275	None	None	None	None	1
2.7	2015_May_26_1553	s	s	15	1	Capacity	58	RC	1	0	08VC 15MC	1	0	1.01164197922	-375.0	303.0	-384	312	1
2.7	2015_May_26_1553	s	s	15	1	Capacity	59	ABS	1	0	08VC 16MC	0	1	5.17200303078	None	None	None	None	1
2.7	2015_May_26_1553	s	s	15	1	Capacity	60	RC	2	0	15VC 08MC	1	0	3.07840704918	-491.0	287.0	-499	282	1
2.7	2015_May_26_1553	s	s	15	1	Capacity	61	ABS	1	0	08VC 16MC	0	1	3.12669110298	None	None	None	None	1
2.7	2015_May_26_1553	s	s	15	1	Capacity	62	RC	2	0	15VC 08MC	1	0	1.0554330349	-65.0	179.0	-72	177	1
2.7	2015_May_26_1553	s	s	15	1	Capacity	63	ABS	2	0	16VC 08MC	0	1	2.1128590107	None	None	None	None	1
2.7	2015_May_26_1553	s	s	15	1	Capacity	64	RC	1	0	08VC 15MC	1	0	3.55457401276	137.0	-84.0	139	-81	1
2.7	2015_May_26_1553	s	s	15	1	Capacity	1	ABS	0	1	08RD 16RO	0	1	7.48602294922	None	None	None	None	1
2.7	2015_May_26_1553	s	s	15	1	Capacity	2	RC	0	2	15RD 08RO	1	0	4.01748204231	407.0	29.0	411	29	1
2.7	2015_May_26_1553	s	s	15	1	Capacity	3	RC	0	1	08RD 15RO	1	0	2.72505092621	-380.0	217.0	-376	216	1
2.7	2015_May_26_1553	s	s	15	1	Capacity	4	ABS	0	2	16RD 08RO	0	1	4.4489672184	None	None	None	None	1
2.7	2015_May_26_1553	s	s	15	1	Capacity	5	RC	0	2	15RD 08RO	1	0	1.30094099045	54.0	127.0	65	127	1
2.7	2015_May_26_1553	s	s	15	1	Capacity	6	ABS	0	2	16RD 08RO	0	1	5.11946678162	None	None	None	None	1
2.7	2015_May_26_1553	s	s	15	1	Capacity	7	RC	0	1	08RD 15RO	1	0	1.08593297005	71.0	88.0	69	89	1
2.7	2015_May_26_1553	s	s	15	1	Capacity	8	ABS	0	1	08RD 16RO	0	1	6.35055279732	None	None	None	None	1
2.7	2015_May_26_1553	s	s	15	1	Capacity	9	RC	0	2	15RD 08RO	1	0	2.40033793449	164.0	401.0	176	407	1
2.7	2015_May_26_1553	s	s	15	1	Capacity	10	RC	0	1	08RD 15RO	1	0	1.82096505165	434.0	178.0	432	182	1
2.7	2015_May_26_1553	s	s	15	1	Capacity	11	ABS	0	2	16RD 08RO	0	1	4.05577492714	None	None	None	None	1
2.7	2015_May_26_1553	s	s	15	1	Capacity	12	ABS	0	1	08RD 16RO	0	1	6.73221707344	None	None	None	None	1
2.7	2015_May_26_1553	s	s	15	1	Capacity	13	ABS	0	1	08RD 16RO	0	1	6.63554596901	None	None	None	None	1
2.7	2015_May_26_1553	s	s	15	1	Capacity	14	RC	0	2	15RD 08RO	1	0	2.62443399429	483.0	-226.0	484	-240	1
2.7	2015_May_26_1553	s	s	15	1	Capacity	15	ABS	0	2	16RD 08RO	0	1	6.46134400368	None	None	None	None	1
2.7	2015_May_26_1553	s	s	15	1	Capacity	16	RC	0	1	08RD 15RO	1	0	2.18588590622	285.0	354.0	284	354	1
2.7	2015_May_26_1553	s	s	15	1	Capacity	17	RC	0	2	15RD 08RO	1	0	3.30404090881	450.0	176.0	456	173	1
2.7	2015_May_26_1553	s	s	15	1	Capacity	18	ABS	0	1	08RD 16RO	0	1	9.48655796051	None	None	None	None	1
2.7	2015_May_26_1553	s	s	15	1	Capacity	19	ABS	0	2	16RD 08RO	0	1	5.12322998047	None	None	None	None	1
2.7	2015_May_26_1553	s	s	15	1	Capacity	20	RC	0	1	08RD 15RO	1	0	1.21177005768	-81.0	101.0	-90	101	1
2.7	2015_May_26_1553	s	s	15	1	Capacity	21	ABS	0	2	16RD 08RO	0	1	6.56746196747	None	None	None	None	1
2.7	2015_May_26_1553	s	s	15	1	Capacity	22	RC	0	2	15RD 08RO	1	0	1.70607113838	396.0	47.0	394	46	1
2.7	2015_May_26_1553	s	s	15	1	Capacity	23	ABS	0	1	08RD 16RO	0	1	6.36726403236	None	None	None	None	1
2.7	2015_May_26_1553	s	s	15	1	Capacity	24	RC	0	1	08RD 15RO	1	0	4.90769004822	252.0	-173.0	249	-169	1
2.7	2015_May_26_1553	s	s	15	1	Capacity	25	RC	0	2	15RD 08RO	1	0	2.87148499489	464.0	-19.0	467	-12	1
2.7	2015_May_26_1553	s	s	15	1	Capacity	26	ABS	0	1	08RD 16RO	0	1	5.31974196434	None	None	None	None	1
2.7	2015_May_26_1553	s	s	15	1	Capacity	27	RC	0	1	08RD 15RO	1	0	1.52433300018	534.0	186.0	536	194	1
2.7	2015_May_26_1553	s	s	15	1	Capacity	28	ABS	0	2	16RD 08RO	0	1	4.66051602364	None	None	None	None	1
2.7	2015_May_26_1553	s	s	15	1	Capacity	29	RC	0	1	08RD 15RO	1	0	2.85174894333	354.0	-52.0	355	-49	1
2.7	2015_May_26_1553	s	s	15	1	Capacity	30	ABS	0	2	16RD 08RO	0	1	5.02529096603	None	None	None	None	1
2.7	2015_May_26_1553	s	s	15	1	Capacity	31	ABS	0	1	08RD 16RO	0	1	6.19073987007	None	None	None	None	1
2.7	2015_May_26_1553	s	s	15	1	Capacity	32	RC	0	2	15RD 08RO	1	0	1.8473200798	53.0	-125.0	53	-121	1
2.7	2015_May_26_1553	s	s	15	1	Capacity	33	RC	0	1	08RD 15RO	1	0	2.03287291527	-210.0	-183.0	-206	-182	1
2.7	2015_May_26_1553	s	s	15	1	Capacity	34	ABS	0	1	08RD 16RO	0	1	5.96429491043	None	None	None	None	1
2.7	2015_May_26_1553	s	s	15	1	Capacity	35	RC	0	2	15RD 08RO	1	0	1.47074103355	65.0	348.0	64	353	1
2.7	2015_May_26_1553	s	s	15	1	Capacity	36	ABS	0	2	16RD 08RO	0	1	3.74247479439	None	None	None	None	1
2.7	2015_May_26_1553	s	s	15	1	Capacity	37	RC	0	2	15RD 08RO	1	0	2.0401160717	-454.0	-231.0	-447	-238	1
2.7	2015_May_26_1553	s	s	15	1	Capacity	38	ABS	0	2	16RD 08RO	0	1	3.78399705887	None	None	None	None	1
2.7	2015_May_26_1553	s	s	15	1	Capacity	39	RC	0	1	08RD 15RO	1	0	3.39825201035	304.0	188.0	310	188	1
2.7	2015_May_26_1553	s	s	15	1	Capacity	40	ABS	0	1	08RD 16RO	0	1	4.57533502579	None	None	None	None	1
2.7	2015_May_26_1553	s	s	15	1	Capacity	41	ABS	0	2	16RD 08RO	0	1	4.56028389931	None	None	None	None	1
2.7	2015_May_26_1553	s	s	15	1	Capacity	42	RC	0	2	15RD 08RO	1	0	3.51221084595	55.0	-371.0	51	-374	1
2.7	2015_May_26_1553	s	s	15	1	Capacity	43	RC	0	1	08RD 15RO	1	0	3.44819402695	236.0	-212.0	245	-214	1
2.7	2015_May_26_1553	s	s	15	1	Capacity	44	ABS	0	1	08RD 16RO	0	1	6.02583599091	None	None	None	None	1
2.7	2015_May_26_1553	s	s	15	1	Capacity	45	ABS	0	2	16RD 08RO	0	1	4.45777201653	None	None	None	None	1
2.7	2015_May_26_1553	s	s	15	1	Capacity	46	RC	0	1	08RD 15RO	1	0	5.44915986061	-366.0	-252.0	-353	-247	1
2.7	2015_May_26_1553	s	s	15	1	Capacity	47	RC	0	2	15RD 08RO	1	0	1.69159889221	274.0	-24.0	273	-19	1
2.7	2015_May_26_1553	s	s	15	1	Capacity	48	ABS	0	1	08RD 16RO	0	1	6.32924103737	None	None	None	None	1
2.7	2015_May_26_1553	s	s	15	1	Capacity	49	RC	0	1	08RD 15RO	1	0	3.63659596443	207.0	-154.0	212	-150	1
2.7	2015_May_26_1553	s	s	15	1	Capacity	50	RC	0	2	15RD 08RO	1	0	1.16188597679	-489.0	320.0	-492	312	1
2.7	2015_May_26_1553	s	s	15	1	Capacity	51	ABS	0	1	08RD 16RO	0	1	6.68057489395	None	None	None	None	1
2.7	2015_May_26_1553	s	s	15	1	Capacity	52	ABS	0	2	16RD 08RO	0	1	5.36730098724	None	None	None	None	1
2.7	2015_May_26_1553	s	s	15	1	Capacity	53	ABS	0	1	08RD 16RO	0	1	6.29662919044	None	None	None	None	1
2.7	2015_May_26_1553	s	s	15	1	Capacity	54	ABS	0	2	16RD 08RO	0	1	4.13908100128	None	None	None	None	1
2.7	2015_May_26_1553	s	s	15	1	Capacity	55	RC	0	2	15RD 08RO	0	1	2.27114701271	158.0	-115.0	None	None	0
2.7	2015_May_26_1553	s	s	15	1	Capacity	56	RC	0	1	08RD 15RO	1	0	4.77283096313	75.0	-215.0	81	-215	1
2.7	2015_May_26_1553	s	s	15	1	Capacity	57	ABS	0	2	16RD 08RO	0	1	4.71956586838	None	None	None	None	1
2.7	2015_May_26_1553	s	s	15	1	Capacity	58	RC	0	1	08RD 15RO	1	0	1.43564319611	-175.0	23.0	-168	17	1
2.7	2015_May_26_1553	s	s	15	1	Capacity	59	ABS	0	1	08RD 16RO	0	1	5.41110277176	None	None	None	None	1
2.7	2015_May_26_1553	s	s	15	1	Capacity	60	RC	0	2	15RD 08RO	1	0	3.83662199974	-310.0	-330.0	-307	-333	1
2.7	2015_May_26_1553	s	s	15	1	Capacity	61	ABS	0	1	08RD 16RO	0	1	4.99740099907	None	None	None	None	1
2.7	2015_May_26_1553	s	s	15	1	Capacity	62	RC	0	1	08RD 15RO	1	0	4.68419885635	350.0	-199.0	351	-205	1
2.7	2015_May_26_1553	s	s	15	1	Capacity	63	RC	0	2	15RD 08RO	1	0	3.41830897331	-213.0	-224.0	-222	-219	1
2.7	2015_May_26_1553	s	s	15	1	Capacity	64	ABS	0	2	16RD 08RO	0	1	4.73786091805	None	None	None	None	1
2.7	2015_May_26_1553	s	s	15	1	SIC	1	ABS	1	2	02VD 02VO 02VC 10MD 02MO 02MC 02RD 02RO	0	1	5.63747000694	None	None	None	None	1
2.7	2015_May_26_1553	s	s	15	1	SIC	2	ABS	2	2	10VD 02VO 02VC 02MD 02MO 02MC 02RD 02RO	0	1	5.16037201881	None	None	None	None	1
2.7	2015_May_26_1553	s	s	15	1	SIC	3	ABS	2	0	02VD 02VO 10VC 02MD 02MO 02MC 02RD 02RO	0	1	4.3375980854	None	None	None	None	1
2.7	2015_May_26_1553	s	s	15	1	SIC	4	RC	2	1	02VD 09VO 02VC 02MD 02MO 02MC 02RD 02RO	1	0	1.13745808601	-264.0	353.0	-264	353	1
2.7	2015_May_26_1553	s	s	15	1	SIC	5	ABS	1	1	02VD 02VO 02VC 02MD 10MO 02MC 02RD 02RO	0	1	5.7995429039	None	None	None	None	1
2.7	2015_May_26_1553	s	s	15	1	SIC	6	ABS	0	1	02VD 02VO 02VC 02MD 02MO 02MC 02RD 10RO	0	1	5.43733501434	None	None	None	None	1
2.7	2015_May_26_1553	s	s	15	1	SIC	7	RC	0	1	02VD 02VO 02VC 02MD 02MO 02MC 02RD 09RO	1	0	1.1885240078	-365.0	390.0	-370	381	1
2.7	2015_May_26_1553	s	s	15	1	SIC	8	RC	2	2	09VD 02VO 02VC 02MD 02MO 02MC 02RD 02RO	1	0	1.53005504608	121.0	301.0	114	296	1
2.7	2015_May_26_1553	s	s	15	1	SIC	9	RC	1	0	02VD 02VO 02VC 02MD 02MO 09MC 02RD 02RO	1	0	1.68261098862	32.0	-6.0	33	-10	1
2.7	2015_May_26_1553	s	s	15	1	SIC	10	RC	2	0	02VD 02VO 09VC 02MD 02MO 02MC 02RD 02RO	1	0	1.84741091728	95.0	269.0	99	260	1
2.7	2015_May_26_1553	s	s	15	1	SIC	11	RC	1	1	02VD 02VO 02VC 02MD 09MO 02MC 02RD 02RO	1	0	2.8919479847	235.0	-378.0	237	-380	1
2.7	2015_May_26_1553	s	s	15	1	SIC	12	RC	1	2	02VD 02VO 02VC 09MD 02MO 02MC 02RD 02RO	1	0	2.85954785347	-176.0	-218.0	-175	-219	1
2.7	2015_May_26_1553	s	s	15	1	SIC	13	RC	0	2	02VD 02VO 02VC 02MD 02MO 02MC 09RD 02RO	1	0	5.24894404411	-219.0	318.0	-211	319	1
2.7	2015_May_26_1553	s	s	15	1	SIC	14	ABS	2	1	02VD 10VO 02VC 02MD 02MO 02MC 02RD 02RO	0	1	4.0835981369	None	None	None	None	1
2.7	2015_May_26_1553	s	s	15	1	SIC	15	ABS	0	2	02VD 02VO 02VC 02MD 02MO 02MC 10RD 02RO	0	1	3.2074239254	None	None	None	None	1
2.7	2015_May_26_1553	s	s	15	1	SIC	16	ABS	1	0	02VD 02VO 02VC 02MD 02MO 10MC 02RD 02RO	0	1	5.0697350502	None	None	None	None	1
2.7	2015_May_26_1553	s	s	15	1	SIC	17	RC	2	1	02VD 09VO 02VC 02MD 02MO 02MC 02RD 02RO	1	0	2.11406111717	398.0	399.0	399	395	1
2.7	2015_May_26_1553	s	s	15	1	SIC	18	ABS	1	0	02VD 02VO 02VC 02MD 02MO 10MC 02RD 02RO	0	1	5.19029903412	None	None	None	None	1
2.7	2015_May_26_1553	s	s	15	1	SIC	19	ABS	0	1	02VD 02VO 02VC 02MD 02MO 02MC 02RD 10RO	0	1	6.11423897743	None	None	None	None	1
2.7	2015_May_26_1553	s	s	15	1	SIC	20	RC	1	1	02VD 02VO 02VC 02MD 09MO 02MC 02RD 02RO	1	0	4.22113108635	290.0	348.0	288	350	1
2.7	2015_May_26_1553	s	s	15	1	SIC	21	ABS	2	0	02VD 02VO 10VC 02MD 02MO 02MC 02RD 02RO	0	1	3.33825182915	None	None	None	None	1
2.7	2015_May_26_1553	s	s	15	1	SIC	22	ABS	1	2	02VD 02VO 02VC 10MD 02MO 02MC 02RD 02RO	0	1	3.73061704636	None	None	None	None	1
2.7	2015_May_26_1553	s	s	15	1	SIC	23	RC	2	2	09VD 02VO 02VC 02MD 02MO 02MC 02RD 02RO	1	0	1.78573608398	184.0	-410.0	193	-404	1
2.7	2015_May_26_1553	s	s	15	1	SIC	24	RC	1	0	02VD 02VO 02VC 02MD 02MO 09MC 02RD 02RO	0	1	4.50805091858	88.0	372.0	None	None	0
2.7	2015_May_26_1553	s	s	15	1	SIC	25	ABS	2	2	10VD 02VO 02VC 02MD 02MO 02MC 02RD 02RO	0	1	3.32763195038	None	None	None	None	1
2.7	2015_May_26_1553	s	s	15	1	SIC	26	RC	0	2	02VD 02VO 02VC 02MD 02MO 02MC 09RD 02RO	0	1	3.27167606354	29.0	154.0	None	None	0
2.7	2015_May_26_1553	s	s	15	1	SIC	27	ABS	1	1	02VD 02VO 02VC 02MD 10MO 02MC 02RD 02RO	0	1	6.57925796509	None	None	None	None	1
2.7	2015_May_26_1553	s	s	15	1	SIC	28	ABS	2	1	02VD 10VO 02VC 02MD 02MO 02MC 02RD 02RO	0	1	3.11568593979	None	None	None	None	1
2.7	2015_May_26_1553	s	s	15	1	SIC	29	ABS	0	2	02VD 02VO 02VC 02MD 02MO 02MC 10RD 02RO	0	1	4.57476115227	None	None	None	None	1
2.7	2015_May_26_1553	s	s	15	1	SIC	30	RC	0	1	02VD 02VO 02VC 02MD 02MO 02MC 02RD 09RO	1	0	3.22463417053	374.0	-112.0	382	-106	1
2.7	2015_May_26_1553	s	s	15	1	SIC	31	RC	2	0	02VD 02VO 09VC 02MD 02MO 02MC 02RD 02RO	1	0	1.21204209328	-523.0	37.0	-529	31	1
2.7	2015_May_26_1553	s	s	15	1	SIC	32	RC	1	2	02VD 02VO 02VC 09MD 02MO 02MC 02RD 02RO	1	0	0.870302915573	-220.0	65.0	-214	59	1
2.7	2015_May_26_1553	s	s	15	1	SIC	33	ABS	1	0	02VD 02VO 02VC 02MD 02MO 10MC 02RD 02RO	0	1	4.82185792923	None	None	None	None	1
2.7	2015_May_26_1553	s	s	15	1	SIC	34	RC	1	1	02VD 02VO 02VC 02MD 09MO 02MC 02RD 02RO	1	0	1.55292892456	-473.0	-184.0	-470	-192	1
2.7	2015_May_26_1553	s	s	15	1	SIC	35	ABS	1	1	02VD 02VO 02VC 02MD 10MO 02MC 02RD 02RO	0	1	5.53996515274	None	None	None	None	1
2.7	2015_May_26_1553	s	s	15	1	SIC	36	RC	0	1	02VD 02VO 02VC 02MD 02MO 02MC 02RD 09RO	1	0	2.35973477364	180.0	-276.0	176	-288	1
2.7	2015_May_26_1553	s	s	15	1	SIC	37	ABS	1	2	02VD 02VO 02VC 10MD 02MO 02MC 02RD 02RO	0	1	4.43688488007	None	None	None	None	1
2.7	2015_May_26_1553	s	s	15	1	SIC	38	ABS	2	2	10VD 02VO 02VC 02MD 02MO 02MC 02RD 02RO	0	1	3.31870007515	None	None	None	None	1
2.7	2015_May_26_1553	s	s	15	1	SIC	39	RC	1	2	02VD 02VO 02VC 09MD 02MO 02MC 02RD 02RO	1	0	1.6306810379	98.0	-186.0	109	-184	1
2.7	2015_May_26_1553	s	s	15	1	SIC	40	ABS	0	2	02VD 02VO 02VC 02MD 02MO 02MC 10RD 02RO	0	1	5.37467002869	None	None	None	None	1
2.7	2015_May_26_1553	s	s	15	1	SIC	41	RC	2	2	09VD 02VO 02VC 02MD 02MO 02MC 02RD 02RO	1	0	2.12724685669	-156.0	-233.0	-154	-232	1
2.7	2015_May_26_1553	s	s	15	1	SIC	42	RC	1	0	02VD 02VO 02VC 02MD 02MO 09MC 02RD 02RO	1	0	1.44139194489	136.0	-26.0	140	-31	1
2.7	2015_May_26_1553	s	s	15	1	SIC	43	RC	2	0	02VD 02VO 09VC 02MD 02MO 02MC 02RD 02RO	1	0	2.57200884819	-419.0	300.0	-416	291	1
2.7	2015_May_26_1553	s	s	15	1	SIC	44	ABS	2	0	02VD 02VO 10VC 02MD 02MO 02MC 02RD 02RO	0	1	3.89272999763	None	None	None	None	1
2.7	2015_May_26_1553	s	s	15	1	SIC	45	ABS	0	1	02VD 02VO 02VC 02MD 02MO 02MC 02RD 10RO	0	1	4.37840890884	None	None	None	None	1
2.7	2015_May_26_1553	s	s	15	1	SIC	46	ABS	2	1	02VD 10VO 02VC 02MD 02MO 02MC 02RD 02RO	0	1	3.82209801674	None	None	None	None	1
2.7	2015_May_26_1553	s	s	15	1	SIC	47	RC	2	1	02VD 09VO 02VC 02MD 02MO 02MC 02RD 02RO	0	1	5.0687379837	-409.0	-377.0	None	None	0
2.7	2015_May_26_1553	s	s	15	1	SIC	48	RC	0	2	02VD 02VO 02VC 02MD 02MO 02MC 09RD 02RO	1	0	2.315117836	85.0	-218.0	80	-218	1
2.7	2015_May_26_1553	s	s	15	1	SIC	49	ABS	1	1	02VD 02VO 02VC 02MD 10MO 02MC 02RD 02RO	0	1	3.82496094704	None	None	None	None	1
2.7	2015_May_26_1553	s	s	15	1	SIC	50	ABS	0	2	02VD 02VO 02VC 02MD 02MO 02MC 10RD 02RO	0	1	3.10679101944	None	None	None	None	1
2.7	2015_May_26_1553	s	s	15	1	SIC	51	ABS	0	1	02VD 02VO 02VC 02MD 02MO 02MC 02RD 10RO	0	1	6.62118291855	None	None	None	None	1
2.7	2015_May_26_1553	s	s	15	1	SIC	52	RC	1	2	02VD 02VO 02VC 09MD 02MO 02MC 02RD 02RO	1	0	1.29417705536	-276.0	53.0	-280	50	1
2.7	2015_May_26_1553	s	s	15	1	SIC	53	RC	1	1	02VD 02VO 02VC 02MD 09MO 02MC 02RD 02RO	1	0	2.61245417595	59.0	270.0	59	258	1
2.7	2015_May_26_1553	s	s	15	1	SIC	54	RC	0	1	02VD 02VO 02VC 02MD 02MO 02MC 02RD 09RO	1	0	1.55835795403	358.0	203.0	360	194	1
2.7	2015_May_26_1553	s	s	15	1	SIC	55	ABS	1	2	02VD 02VO 02VC 10MD 02MO 02MC 02RD 02RO	0	1	3.39739394188	None	None	None	None	1
2.7	2015_May_26_1553	s	s	15	1	SIC	56	ABS	2	1	02VD 10VO 02VC 02MD 02MO 02MC 02RD 02RO	0	1	2.45366692543	None	None	None	None	1
2.7	2015_May_26_1553	s	s	15	1	SIC	57	RC	2	0	02VD 02VO 09VC 02MD 02MO 02MC 02RD 02RO	1	0	2.20105290413	282.0	342.0	288	334	1
2.7	2015_May_26_1553	s	s	15	1	SIC	58	RC	2	1	02VD 09VO 02VC 02MD 02MO 02MC 02RD 02RO	1	0	1.34776997566	225.0	15.0	229	18	1
2.7	2015_May_26_1553	s	s	15	1	SIC	59	RC	1	0	02VD 02VO 02VC 02MD 02MO 09MC 02RD 02RO	1	0	3.11050701141	423.0	-232.0	429	-233	1
2.7	2015_May_26_1553	s	s	15	1	SIC	60	ABS	2	2	10VD 02VO 02VC 02MD 02MO 02MC 02RD 02RO	0	1	3.62047696114	None	None	None	None	1
2.7	2015_May_26_1553	s	s	15	1	SIC	61	ABS	2	0	02VD 02VO 10VC 02MD 02MO 02MC 02RD 02RO	0	1	3.50330400467	None	None	None	None	1
2.7	2015_May_26_1553	s	s	15	1	SIC	62	RC	0	2	02VD 02VO 02VC 02MD 02MO 02MC 09RD 02RO	1	0	2.61012816429	-256.0	-272.0	-253	-264	1
2.7	2015_May_26_1553	s	s	15	1	SIC	63	RC	2	2	09VD 02VO 02VC 02MD 02MO 02MC 02RD 02RO	1	0	1.17377614975	-270.0	-152.0	-270	-158	1
2.7	2015_May_26_1553	s	s	15	1	SIC	64	ABS	1	0	02VD 02VO 02VC 02MD 02MO 10MC 02RD 02RO	0	1	3.95424580574	None	None	None	None	1
2.7	2015_May_26_1553	s	s	15	1	SIC	65	RC	1	1	02VD 02VO 02VC 02MD 09MO 02MC 02RD 02RO	1	0	1.95328307152	-192.0	262.0	-189	260	1
2.7	2015_May_26_1553	s	s	15	1	SIC	66	RC	2	1	02VD 09VO 02VC 02MD 02MO 02MC 02RD 02RO	1	0	1.12654900551	-10.0	-261.0	2	-256	1
2.7	2015_May_26_1553	s	s	15	1	SIC	67	RC	2	2	09VD 02VO 02VC 02MD 02MO 02MC 02RD 02RO	1	0	2.74546718597	529.0	-107.0	523	-103	1
2.7	2015_May_26_1553	s	s	15	1	SIC	68	RC	1	2	02VD 02VO 02VC 09MD 02MO 02MC 02RD 02RO	1	0	1.39726901054	-198.0	203.0	-203	204	1
2.7	2015_May_26_1553	s	s	15	1	SIC	69	ABS	0	2	02VD 02VO 02VC 02MD 02MO 02MC 10RD 02RO	0	1	6.83812093735	None	None	None	None	1
2.7	2015_May_26_1553	s	s	15	1	SIC	70	RC	2	0	02VD 02VO 09VC 02MD 02MO 02MC 02RD 02RO	1	0	1.07054305077	-324.0	310.0	-328	304	1
2.7	2015_May_26_1553	s	s	15	1	SIC	71	ABS	2	0	02VD 02VO 10VC 02MD 02MO 02MC 02RD 02RO	0	1	4.29201316833	None	None	None	None	1
2.7	2015_May_26_1553	s	s	15	1	SIC	72	ABS	2	1	02VD 10VO 02VC 02MD 02MO 02MC 02RD 02RO	0	1	3.67167901993	None	None	None	None	1
2.7	2015_May_26_1553	s	s	15	1	SIC	73	ABS	1	0	02VD 02VO 02VC 02MD 02MO 10MC 02RD 02RO	0	1	4.79868602753	None	None	None	None	1
2.7	2015_May_26_1553	s	s	15	1	SIC	74	ABS	1	2	02VD 02VO 02VC 10MD 02MO 02MC 02RD 02RO	0	1	3.04375696182	None	None	None	None	1
2.7	2015_May_26_1553	s	s	15	1	SIC	75	ABS	1	1	02VD 02VO 02VC 02MD 10MO 02MC 02RD 02RO	0	1	4.63715195656	None	None	None	None	1
2.7	2015_May_26_1553	s	s	15	1	SIC	76	RC	0	2	02VD 02VO 02VC 02MD 02MO 02MC 09RD 02RO	1	0	3.25375795364	-429.0	-217.0	-438	-217	1
2.7	2015_May_26_1553	s	s	15	1	SIC	77	RC	1	0	02VD 02VO 02VC 02MD 02MO 09MC 02RD 02RO	1	0	3.50173306465	216.0	-39.0	215	-38	1
2.7	2015_May_26_1553	s	s	15	1	SIC	78	RC	0	1	02VD 02VO 02VC 02MD 02MO 02MC 02RD 09RO	1	0	1.47663211823	324.0	-87.0	325	-89	1
2.7	2015_May_26_1553	s	s	15	1	SIC	79	ABS	0	1	02VD 02VO 02VC 02MD 02MO 02MC 02RD 10RO	0	1	4.96657419205	None	None	None	None	1
2.7	2015_May_26_1553	s	s	15	1	SIC	80	ABS	2	2	10VD 02VO 02VC 02MD 02MO 02MC 02RD 02RO	0	1	3.29053807259	None	None	None	None	1
2.7	2015_May_26_1553	s	s	15	1	SIC	81	RC	1	1	02VD 02VO 02VC 02MD 09MO 02MC 02RD 02RO	1	0	4.23122382164	500.0	-36.0	502	-31	1
2.7	2015_May_26_1553	s	s	15	1	SIC	82	ABS	2	2	10VD 02VO 02VC 02MD 02MO 02MC 02RD 02RO	0	1	4.1425178051	None	None	None	None	1
2.7	2015_May_26_1553	s	s	15	1	SIC	83	ABS	2	0	02VD 02VO 10VC 02MD 02MO 02MC 02RD 02RO	0	1	2.90672087669	None	None	None	None	1
2.7	2015_May_26_1553	s	s	15	1	SIC	84	ABS	1	1	02VD 02VO 02VC 02MD 10MO 02MC 02RD 02RO	0	1	4.28108501434	None	None	None	None	1
2.7	2015_May_26_1553	s	s	15	1	SIC	85	ABS	0	1	02VD 02VO 02VC 02MD 02MO 02MC 02RD 10RO	0	1	5.07255721092	None	None	None	None	1
2.7	2015_May_26_1553	s	s	15	1	SIC	86	RC	0	1	02VD 02VO 02VC 02MD 02MO 02MC 02RD 09RO	1	0	2.87962007523	496.0	-341.0	491	-341	1
2.7	2015_May_26_1553	s	s	15	1	SIC	87	ABS	0	2	02VD 02VO 02VC 02MD 02MO 02MC 10RD 02RO	0	1	4.30245614052	None	None	None	None	1
2.7	2015_May_26_1553	s	s	15	1	SIC	88	ABS	1	0	02VD 02VO 02VC 02MD 02MO 10MC 02RD 02RO	0	1	3.81042718887	None	None	None	None	1
2.7	2015_May_26_1553	s	s	15	1	SIC	89	RC	2	1	02VD 09VO 02VC 02MD 02MO 02MC 02RD 02RO	1	0	1.12611699104	-177.0	214.0	-185	211	1
2.7	2015_May_26_1553	s	s	15	1	SIC	90	RC	2	0	02VD 02VO 09VC 02MD 02MO 02MC 02RD 02RO	1	0	1.19695997238	273.0	156.0	277	152	1
2.7	2015_May_26_1553	s	s	15	1	SIC	91	RC	1	0	02VD 02VO 02VC 02MD 02MO 09MC 02RD 02RO	1	0	1.77185320854	-364.0	143.0	-362	139	1
2.7	2015_May_26_1553	s	s	15	1	SIC	92	ABS	2	1	02VD 10VO 02VC 02MD 02MO 02MC 02RD 02RO	0	1	3.13696098328	None	None	None	None	1
2.7	2015_May_26_1553	s	s	15	1	SIC	93	RC	0	2	02VD 02VO 02VC 02MD 02MO 02MC 09RD 02RO	1	0	2.44768500328	203.0	-355.0	205	-354	1
2.7	2015_May_26_1553	s	s	15	1	SIC	94	RC	1	2	02VD 02VO 02VC 09MD 02MO 02MC 02RD 02RO	1	0	1.59488296509	-275.0	-20.0	-273	-23	1
2.7	2015_May_26_1553	s	s	15	1	SIC	95	ABS	1	2	02VD 02VO 02VC 10MD 02MO 02MC 02RD 02RO	0	1	3.41319108009	None	None	None	None	1
2.7	2015_May_26_1553	s	s	15	1	SIC	96	RC	2	2	09VD 02VO 02VC 02MD 02MO 02MC 02RD 02RO	1	0	1.72458100319	390.0	66.0	396	72	1
2.7	2015_May_26_1553	s	s	15	1	SIC	97	RC	2	0	02VD 02VO 09VC 02MD 02MO 02MC 02RD 02RO	1	0	0.882014989853	-483.0	209.0	-485	203	1
2.7	2015_May_26_1553	s	s	15	1	SIC	98	RC	0	2	02VD 02VO 02VC 02MD 02MO 02MC 09RD 02RO	1	0	2.97375106812	-527.0	-246.0	-527	-250	1
2.7	2015_May_26_1553	s	s	15	1	SIC	99	ABS	2	0	02VD 02VO 10VC 02MD 02MO 02MC 02RD 02RO	1	0	3.67209506035	None	None	-387	-282	0
2.7	2015_May_26_1553	s	s	15	1	SIC	100	RC	1	1	02VD 02VO 02VC 02MD 09MO 02MC 02RD 02RO	1	0	1.95330905914	-205.0	-374.0	-200	-382	1
2.7	2015_May_26_1553	s	s	15	1	SIC	101	ABS	1	2	02VD 02VO 02VC 10MD 02MO 02MC 02RD 02RO	0	1	3.57208514214	None	None	None	None	1
2.7	2015_May_26_1553	s	s	15	1	SIC	102	RC	2	1	02VD 09VO 02VC 02MD 02MO 02MC 02RD 02RO	1	0	1.24219989777	138.0	346.0	139	342	1
2.7	2015_May_26_1553	s	s	15	1	SIC	103	ABS	2	1	02VD 10VO 02VC 02MD 02MO 02MC 02RD 02RO	0	1	3.51879191399	None	None	None	None	1
2.7	2015_May_26_1553	s	s	15	1	SIC	104	RC	1	0	02VD 02VO 02VC 02MD 02MO 09MC 02RD 02RO	1	0	2.69835591316	120.0	-355.0	117	-355	1
2.7	2015_May_26_1553	s	s	15	1	SIC	105	ABS	0	2	02VD 02VO 02VC 02MD 02MO 02MC 10RD 02RO	0	1	4.05698895454	None	None	None	None	1
2.7	2015_May_26_1553	s	s	15	1	SIC	106	ABS	1	0	02VD 02VO 02VC 02MD 02MO 10MC 02RD 02RO	0	1	4.38982200623	None	None	None	None	1
2.7	2015_May_26_1553	s	s	15	1	SIC	107	ABS	1	1	02VD 02VO 02VC 02MD 10MO 02MC 02RD 02RO	0	1	3.78674983978	None	None	None	None	1
2.7	2015_May_26_1553	s	s	15	1	SIC	108	RC	1	2	02VD 02VO 02VC 09MD 02MO 02MC 02RD 02RO	1	0	4.83141112328	440.0	-258.0	444	-255	1
2.7	2015_May_26_1553	s	s	15	1	SIC	109	ABS	0	1	02VD 02VO 02VC 02MD 02MO 02MC 02RD 10RO	0	1	5.45605587959	None	None	None	None	1
2.7	2015_May_26_1553	s	s	15	1	SIC	110	RC	0	1	02VD 02VO 02VC 02MD 02MO 02MC 02RD 09RO	1	0	2.67121005058	487.0	40.0	496	37	1
2.7	2015_May_26_1553	s	s	15	1	SIC	111	ABS	2	2	10VD 02VO 02VC 02MD 02MO 02MC 02RD 02RO	1	0	4.27843499184	None	None	123	-18	0
2.7	2015_May_26_1553	s	s	15	1	SIC	112	RC	2	2	09VD 02VO 02VC 02MD 02MO 02MC 02RD 02RO	1	0	1.13436603546	-364.0	226.0	-358	234	1
2.7	2015_May_26_1553	s	s	15	1	SIC	113	RC	1	2	02VD 02VO 02VC 09MD 02MO 02MC 02RD 02RO	1	0	1.20786499977	277.0	-55.0	274	-58	1
2.7	2015_May_26_1553	s	s	15	1	SIC	114	ABS	0	1	02VD 02VO 02VC 02MD 02MO 02MC 02RD 10RO	0	1	4.43689489365	None	None	None	None	1
2.7	2015_May_26_1553	s	s	15	1	SIC	115	ABS	2	1	02VD 10VO 02VC 02MD 02MO 02MC 02RD 02RO	0	1	2.4829659462	None	None	None	None	1
2.7	2015_May_26_1553	s	s	15	1	SIC	116	RC	2	1	02VD 09VO 02VC 02MD 02MO 02MC 02RD 02RO	1	0	0.776243925095	-224.0	201.0	-215	203	1
2.7	2015_May_26_1553	s	s	15	1	SIC	117	RC	1	0	02VD 02VO 02VC 02MD 02MO 09MC 02RD 02RO	1	0	4.79350805283	-459.0	-154.0	-456	-146	1
2.7	2015_May_26_1553	s	s	15	1	SIC	118	RC	1	1	02VD 02VO 02VC 02MD 09MO 02MC 02RD 02RO	1	0	1.1713809967	-232.0	-72.0	-226	-71	1
2.7	2015_May_26_1553	s	s	15	1	SIC	119	RC	0	1	02VD 02VO 02VC 02MD 02MO 02MC 02RD 09RO	1	0	1.52958106995	118.0	179.0	118	181	1
2.7	2015_May_26_1553	s	s	15	1	SIC	120	RC	2	0	02VD 02VO 09VC 02MD 02MO 02MC 02RD 02RO	1	0	0.784713029861	-92.0	345.0	-93	339	1
2.7	2015_May_26_1553	s	s	15	1	SIC	121	RC	2	2	09VD 02VO 02VC 02MD 02MO 02MC 02RD 02RO	1	0	1.15067791939	94.0	246.0	96	234	1
2.7	2015_May_26_1553	s	s	15	1	SIC	122	ABS	1	0	02VD 02VO 02VC 02MD 02MO 10MC 02RD 02RO	0	1	6.91739821434	None	None	None	None	1
2.7	2015_May_26_1553	s	s	15	1	SIC	123	RC	0	2	02VD 02VO 02VC 02MD 02MO 02MC 09RD 02RO	1	0	1.37685513496	-82.0	-43.0	-74	-46	1
2.7	2015_May_26_1553	s	s	15	1	SIC	124	ABS	2	2	10VD 02VO 02VC 02MD 02MO 02MC 02RD 02RO	0	1	3.4010951519	None	None	None	None	1
2.7	2015_May_26_1553	s	s	15	1	SIC	125	ABS	1	2	02VD 02VO 02VC 10MD 02MO 02MC 02RD 02RO	0	1	3.22205400467	None	None	None	None	1
2.7	2015_May_26_1553	s	s	15	1	SIC	126	ABS	2	0	02VD 02VO 10VC 02MD 02MO 02MC 02RD 02RO	0	1	5.25747799873	None	None	None	None	1
2.7	2015_May_26_1553	s	s	15	1	SIC	127	ABS	0	2	02VD 02VO 02VC 02MD 02MO 02MC 10RD 02RO	0	1	3.98392081261	None	None	None	None	1
2.7	2015_May_26_1553	s	s	15	1	SIC	128	ABS	1	1	02VD 02VO 02VC 02MD 10MO 02MC 02RD 02RO	0	1	6.84633588791	None	None	None	None	1
2.7	2015_May_26_1553	s	s	15	1	SIC	129	ABS	1	1	02VD 02VO 02VC 02MD 10MO 02MC 02RD 02RO	1	0	5.2550611496	None	None	-356	171	0
2.7	2015_May_26_1553	s	s	15	1	SIC	130	RC	0	1	02VD 02VO 02VC 02MD 02MO 02MC 02RD 09RO	1	0	3.45996785164	331.0	-346.0	338	-353	1
2.7	2015_May_26_1553	s	s	15	1	SIC	131	ABS	2	2	10VD 02VO 02VC 02MD 02MO 02MC 02RD 02RO	0	1	3.63134694099	None	None	None	None	1
2.7	2015_May_26_1553	s	s	15	1	SIC	132	RC	2	0	02VD 02VO 09VC 02MD 02MO 02MC 02RD 02RO	1	0	0.823364973068	142.0	246.0	139	243	1
2.7	2015_May_26_1553	s	s	15	1	SIC	133	ABS	0	2	02VD 02VO 02VC 02MD 02MO 02MC 10RD 02RO	0	1	3.93739199638	None	None	None	None	1
2.7	2015_May_26_1553	s	s	15	1	SIC	134	RC	1	1	02VD 02VO 02VC 02MD 09MO 02MC 02RD 02RO	1	0	2.16519808769	-365.0	404.0	-367	396	1
2.7	2015_May_26_1553	s	s	15	1	SIC	135	ABS	1	2	02VD 02VO 02VC 10MD 02MO 02MC 02RD 02RO	0	1	3.57294607162	None	None	None	None	1
2.7	2015_May_26_1553	s	s	15	1	SIC	136	RC	1	0	02VD 02VO 02VC 02MD 02MO 09MC 02RD 02RO	1	0	3.24570608139	222.0	-55.0	225	-55	1
2.7	2015_May_26_1553	s	s	15	1	SIC	137	ABS	1	0	02VD 02VO 02VC 02MD 02MO 10MC 02RD 02RO	0	1	4.29548501968	None	None	None	None	1
2.7	2015_May_26_1553	s	s	15	1	SIC	138	RC	2	2	09VD 02VO 02VC 02MD 02MO 02MC 02RD 02RO	1	0	1.72632288933	422.0	98.0	419	100	1
2.7	2015_May_26_1553	s	s	15	1	SIC	139	ABS	2	0	02VD 02VO 10VC 02MD 02MO 02MC 02RD 02RO	0	1	2.92490792274	None	None	None	None	1
2.7	2015_May_26_1553	s	s	15	1	SIC	140	RC	1	2	02VD 02VO 02VC 09MD 02MO 02MC 02RD 02RO	1	0	1.16468214989	-480.0	330.0	-485	328	1
2.7	2015_May_26_1553	s	s	15	1	SIC	141	ABS	2	1	02VD 10VO 02VC 02MD 02MO 02MC 02RD 02RO	0	1	3.49236392975	None	None	None	None	1
2.7	2015_May_26_1553	s	s	15	1	SIC	142	RC	2	1	02VD 09VO 02VC 02MD 02MO 02MC 02RD 02RO	1	0	1.81211400032	263.0	152.0	261	145	1
2.7	2015_May_26_1553	s	s	15	1	SIC	143	RC	0	2	02VD 02VO 02VC 02MD 02MO 02MC 09RD 02RO	1	0	2.46777319908	526.0	-15.0	532	-15	1
2.7	2015_May_26_1553	s	s	15	1	SIC	144	ABS	0	1	02VD 02VO 02VC 02MD 02MO 02MC 02RD 10RO	0	1	4.90495705605	None	None	None	None	1
2.7	2015_May_26_1553	s	s	15	1	SIC	145	ABS	1	1	02VD 02VO 02VC 02MD 10MO 02MC 02RD 02RO	1	0	4.28383994102	None	None	-462	220	0
2.7	2015_May_26_1553	s	s	15	1	SIC	146	ABS	1	2	02VD 02VO 02VC 10MD 02MO 02MC 02RD 02RO	0	1	3.01879000664	None	None	None	None	1
2.7	2015_May_26_1553	s	s	15	1	SIC	147	ABS	0	2	02VD 02VO 02VC 02MD 02MO 02MC 10RD 02RO	0	1	3.24789595604	None	None	None	None	1
2.7	2015_May_26_1553	s	s	15	1	SIC	148	RC	2	0	02VD 02VO 09VC 02MD 02MO 02MC 02RD 02RO	1	0	1.49425411224	0.0	-66.0	6	-61	1
2.7	2015_May_26_1553	s	s	15	1	SIC	149	ABS	2	2	10VD 02VO 02VC 02MD 02MO 02MC 02RD 02RO	0	1	3.00090289116	None	None	None	None	1
2.7	2015_May_26_1553	s	s	15	1	SIC	150	RC	0	1	02VD 02VO 02VC 02MD 02MO 02MC 02RD 09RO	1	0	0.882637023926	-157.0	99.0	-149	93	1
2.7	2015_May_26_1553	s	s	15	1	SIC	151	RC	1	2	02VD 02VO 02VC 09MD 02MO 02MC 02RD 02RO	1	0	2.18870592117	-383.0	211.0	-378	208	1
2.7	2015_May_26_1553	s	s	15	1	SIC	152	ABS	2	1	02VD 10VO 02VC 02MD 02MO 02MC 02RD 02RO	0	1	3.03098201752	None	None	None	None	1
2.7	2015_May_26_1553	s	s	15	1	SIC	153	RC	2	2	09VD 02VO 02VC 02MD 02MO 02MC 02RD 02RO	1	0	1.88270401955	345.0	-248.0	354	-246	1
2.7	2015_May_26_1553	s	s	15	1	SIC	154	RC	2	1	02VD 09VO 02VC 02MD 02MO 02MC 02RD 02RO	1	0	2.48294305801	-330.0	225.0	-328	227	1
2.7	2015_May_26_1553	s	s	15	1	SIC	155	ABS	0	1	02VD 02VO 02VC 02MD 02MO 02MC 02RD 10RO	0	1	4.56630396843	None	None	None	None	1
2.7	2015_May_26_1553	s	s	15	1	SIC	156	RC	1	1	02VD 02VO 02VC 02MD 09MO 02MC 02RD 02RO	1	0	3.70316004753	-314.0	-121.0	-310	-123	1
2.7	2015_May_26_1553	s	s	15	1	SIC	157	RC	0	2	02VD 02VO 02VC 02MD 02MO 02MC 09RD 02RO	1	0	4.15153288841	35.0	402.0	40	398	1
2.7	2015_May_26_1553	s	s	15	1	SIC	158	RC	1	0	02VD 02VO 02VC 02MD 02MO 09MC 02RD 02RO	1	0	6.69215083122	-532.0	73.0	-529	66	1
2.7	2015_May_26_1553	s	s	15	1	SIC	159	ABS	2	0	02VD 02VO 10VC 02MD 02MO 02MC 02RD 02RO	0	1	2.57405400276	None	None	None	None	1
2.7	2015_May_26_1553	s	s	15	1	SIC	160	ABS	1	0	02VD 02VO 02VC 02MD 02MO 10MC 02RD 02RO	0	1	3.75417995453	None	None	None	None	1
2.7	2015_May_26_1553	s	s	15	1	SIC	161	RC	0	1	02VD 02VO 02VC 02MD 02MO 02MC 02RD 09RO	1	0	1.49428391457	-480.0	310.0	-480	299	1
2.7	2015_May_26_1553	s	s	15	1	SIC	162	RC	2	0	02VD 02VO 09VC 02MD 02MO 02MC 02RD 02RO	1	0	1.51768493652	-12.0	-9.0	-8	-8	1
2.7	2015_May_26_1553	s	s	15	1	SIC	163	ABS	1	1	02VD 02VO 02VC 02MD 10MO 02MC 02RD 02RO	0	1	4.36630296707	None	None	None	None	1
2.7	2015_May_26_1553	s	s	15	1	SIC	164	RC	1	2	02VD 02VO 02VC 09MD 02MO 02MC 02RD 02RO	1	0	4.92846989632	-279.0	391.0	-279	371	1
2.7	2015_May_26_1553	s	s	15	1	SIC	165	RC	1	1	02VD 02VO 02VC 02MD 09MO 02MC 02RD 02RO	1	0	1.59213399887	321.0	380.0	324	371	1
2.7	2015_May_26_1553	s	s	15	1	SIC	166	ABS	2	0	02VD 02VO 10VC 02MD 02MO 02MC 02RD 02RO	0	1	3.0419280529	None	None	None	None	1
2.7	2015_May_26_1553	s	s	15	1	SIC	167	RC	2	1	02VD 09VO 02VC 02MD 02MO 02MC 02RD 02RO	1	0	1.18009209633	300.0	340.0	297	349	1
2.7	2015_May_26_1553	s	s	15	1	SIC	168	ABS	1	0	02VD 02VO 02VC 02MD 02MO 10MC 02RD 02RO	0	1	3.89148807526	None	None	None	None	1
2.7	2015_May_26_1553	s	s	15	1	SIC	169	ABS	2	1	02VD 10VO 02VC 02MD 02MO 02MC 02RD 02RO	0	1	2.68843698502	None	None	None	None	1
2.7	2015_May_26_1553	s	s	15	1	SIC	170	ABS	0	1	02VD 02VO 02VC 02MD 02MO 02MC 02RD 10RO	0	1	4.4688141346	None	None	None	None	1
2.7	2015_May_26_1553	s	s	15	1	SIC	171	RC	1	0	02VD 02VO 02VC 02MD 02MO 09MC 02RD 02RO	1	0	1.93666815758	461.0	317.0	461	313	1
2.7	2015_May_26_1553	s	s	15	1	SIC	172	ABS	0	2	02VD 02VO 02VC 02MD 02MO 02MC 10RD 02RO	0	1	3.954611063	None	None	None	None	1
2.7	2015_May_26_1553	s	s	15	1	SIC	173	RC	2	2	09VD 02VO 02VC 02MD 02MO 02MC 02RD 02RO	1	0	0.787967920303	-12.0	109.0	-7	106	1
2.7	2015_May_26_1553	s	s	15	1	SIC	174	RC	0	2	02VD 02VO 02VC 02MD 02MO 02MC 09RD 02RO	1	0	0.984158039093	-223.0	228.0	-224	229	1
2.7	2015_May_26_1553	s	s	15	1	SIC	175	ABS	2	2	10VD 02VO 02VC 02MD 02MO 02MC 02RD 02RO	0	1	3.05959105492	None	None	None	None	1
2.7	2015_May_26_1553	s	s	15	1	SIC	176	ABS	1	2	02VD 02VO 02VC 10MD 02MO 02MC 02RD 02RO	0	1	3.68082594872	None	None	None	None	1
2.7	2015_May_26_1553	s	s	15	1	SIC	177	RC	1	1	02VD 02VO 02VC 02MD 09MO 02MC 02RD 02RO	1	0	3.33824801445	12.0	-196.0	21	-198	1
2.7	2015_May_26_1553	s	s	15	1	SIC	178	RC	2	1	02VD 09VO 02VC 02MD 02MO 02MC 02RD 02RO	1	0	2.10632491112	-376.0	-293.0	-376	-297	1
2.7	2015_May_26_1553	s	s	15	1	SIC	179	ABS	2	2	10VD 02VO 02VC 02MD 02MO 02MC 02RD 02RO	0	1	3.15062212944	None	None	None	None	1
2.7	2015_May_26_1553	s	s	15	1	SIC	180	RC	2	2	09VD 02VO 02VC 02MD 02MO 02MC 02RD 02RO	1	0	1.56069898605	-159.0	-119.0	-149	-121	1
2.7	2015_May_26_1553	s	s	15	1	SIC	181	ABS	2	0	02VD 02VO 10VC 02MD 02MO 02MC 02RD 02RO	0	1	3.6481320858	None	None	None	None	1
2.7	2015_May_26_1553	s	s	15	1	SIC	182	RC	1	0	02VD 02VO 02VC 02MD 02MO 09MC 02RD 02RO	1	0	1.26511406898	10.0	31.0	18	31	1
2.7	2015_May_26_1553	s	s	15	1	SIC	183	RC	0	1	02VD 02VO 02VC 02MD 02MO 02MC 02RD 09RO	0	1	4.89594817162	-471.0	-212.0	None	None	0
2.7	2015_May_26_1553	s	s	15	1	SIC	184	RC	0	2	02VD 02VO 02VC 02MD 02MO 02MC 09RD 02RO	1	0	2.63600301743	-270.0	-271.0	-274	-262	1
2.7	2015_May_26_1553	s	s	15	1	SIC	185	ABS	0	2	02VD 02VO 02VC 02MD 02MO 02MC 10RD 02RO	0	1	4.12812185287	None	None	None	None	1
2.7	2015_May_26_1553	s	s	15	1	SIC	186	ABS	1	1	02VD 02VO 02VC 02MD 10MO 02MC 02RD 02RO	0	1	3.93066000938	None	None	None	None	1
2.7	2015_May_26_1553	s	s	15	1	SIC	187	RC	2	0	02VD 02VO 09VC 02MD 02MO 02MC 02RD 02RO	1	0	1.14111208916	152.0	26.0	152	27	1
2.7	2015_May_26_1553	s	s	15	1	SIC	188	ABS	2	1	02VD 10VO 02VC 02MD 02MO 02MC 02RD 02RO	0	1	2.24236607552	None	None	None	None	1
2.7	2015_May_26_1553	s	s	15	1	SIC	189	ABS	1	2	02VD 02VO 02VC 10MD 02MO 02MC 02RD 02RO	0	1	3.49508094788	None	None	None	None	1
2.7	2015_May_26_1553	s	s	15	1	SIC	190	RC	1	2	02VD 02VO 02VC 09MD 02MO 02MC 02RD 02RO	1	0	0.882219076157	-349.0	182.0	-345	178	1
2.7	2015_May_26_1553	s	s	15	1	SIC	191	ABS	0	1	02VD 02VO 02VC 02MD 02MO 02MC 02RD 10RO	0	1	5.0843808651	None	None	None	None	1
2.7	2015_May_26_1553	s	s	15	1	SIC	192	ABS	1	0	02VD 02VO 02VC 02MD 02MO 10MC 02RD 02RO	0	1	3.15950918198	None	None	None	None	1
2.7	2015_May_26_1553	s	s	15	1	SIC	193	ABS	0	2	02VD 02VO 02VC 02MD 02MO 02MC 10RD 02RO	0	1	3.78442406654	None	None	None	None	1
2.7	2015_May_26_1553	s	s	15	1	SIC	194	ABS	0	1	02VD 02VO 02VC 02MD 02MO 02MC 02RD 10RO	0	1	4.65526890755	None	None	None	None	1
2.7	2015_May_26_1553	s	s	15	1	SIC	195	ABS	1	0	02VD 02VO 02VC 02MD 02MO 10MC 02RD 02RO	0	1	3.30696892738	None	None	None	None	1
2.7	2015_May_26_1553	s	s	15	1	SIC	196	RC	1	0	02VD 02VO 02VC 02MD 02MO 09MC 02RD 02RO	1	0	1.60566496849	388.0	-324.0	382	-329	1
2.7	2015_May_26_1553	s	s	15	1	SIC	197	RC	2	2	09VD 02VO 02VC 02MD 02MO 02MC 02RD 02RO	1	0	2.182929039	-259.0	-386.0	-264	-386	1
2.7	2015_May_26_1553	s	s	15	1	SIC	198	RC	2	1	02VD 09VO 02VC 02MD 02MO 02MC 02RD 02RO	0	1	2.23008298874	480.0	67.0	None	None	0
2.7	2015_May_26_1553	s	s	15	1	SIC	199	RC	2	0	02VD 02VO 09VC 02MD 02MO 02MC 02RD 02RO	1	0	4.70243310928	-315.0	-177.0	-318	-177	1
2.7	2015_May_26_1553	s	s	15	1	SIC	200	ABS	2	0	02VD 02VO 10VC 02MD 02MO 02MC 02RD 02RO	0	1	6.99952602386	None	None	None	None	1
2.7	2015_May_26_1553	s	s	15	1	SIC	201	ABS	1	1	02VD 02VO 02VC 02MD 10MO 02MC 02RD 02RO	0	1	3.71484804153	None	None	None	None	1
2.7	2015_May_26_1553	s	s	15	1	SIC	202	RC	1	1	02VD 02VO 02VC 02MD 09MO 02MC 02RD 02RO	1	0	1.70614099503	-12.0	-144.0	-8	-142	1
2.7	2015_May_26_1553	s	s	15	1	SIC	203	RC	0	2	02VD 02VO 02VC 02MD 02MO 02MC 09RD 02RO	1	0	1.24422502518	128.0	-314.0	128	-315	1
2.7	2015_May_26_1553	s	s	15	1	SIC	204	ABS	1	2	02VD 02VO 02VC 10MD 02MO 02MC 02RD 02RO	0	1	3.09687709808	None	None	None	None	1
2.7	2015_May_26_1553	s	s	15	1	SIC	205	RC	1	2	02VD 02VO 02VC 09MD 02MO 02MC 02RD 02RO	0	1	2.14766788483	534.0	-384.0	None	None	0
2.7	2015_May_26_1553	s	s	15	1	SIC	206	ABS	2	2	10VD 02VO 02VC 02MD 02MO 02MC 02RD 02RO	0	1	2.65957593918	None	None	None	None	1
2.7	2015_May_26_1553	s	s	15	1	SIC	207	RC	0	1	02VD 02VO 02VC 02MD 02MO 02MC 02RD 09RO	1	0	1.25881814957	-343.0	-12.0	-345	-20	1
2.7	2015_May_26_1553	s	s	15	1	SIC	208	ABS	2	1	02VD 10VO 02VC 02MD 02MO 02MC 02RD 02RO	0	1	2.51812386513	None	None	None	None	1
2.7	2015_May_26_1553	s	s	15	1	SIC	209	RC	1	2	02VD 02VO 02VC 09MD 02MO 02MC 02RD 02RO	1	0	0.912109136581	-93.0	-123.0	-95	-126	1
2.7	2015_May_26_1553	s	s	15	1	SIC	210	ABS	0	2	02VD 02VO 02VC 02MD 02MO 02MC 10RD 02RO	0	1	4.05437397957	None	None	None	None	1
2.7	2015_May_26_1553	s	s	15	1	SIC	211	RC	1	1	02VD 02VO 02VC 02MD 09MO 02MC 02RD 02RO	1	0	1.03516077995	-226.0	182.0	-231	177	1
2.7	2015_May_26_1553	s	s	15	1	SIC	212	ABS	2	1	02VD 10VO 02VC 02MD 02MO 02MC 02RD 02RO	0	1	2.98913192749	None	None	None	None	1
2.7	2015_May_26_1553	s	s	15	1	SIC	213	RC	1	0	02VD 02VO 02VC 02MD 02MO 09MC 02RD 02RO	1	0	2.38919210434	-64.0	370.0	-55	377	1
2.7	2015_May_26_1553	s	s	15	1	SIC	214	ABS	1	2	02VD 02VO 02VC 10MD 02MO 02MC 02RD 02RO	0	1	2.68298912048	None	None	None	None	1
2.7	2015_May_26_1553	s	s	15	1	SIC	215	ABS	0	1	02VD 02VO 02VC 02MD 02MO 02MC 02RD 10RO	0	1	4.06056690216	None	None	None	None	1
2.7	2015_May_26_1553	s	s	15	1	SIC	216	ABS	1	1	02VD 02VO 02VC 02MD 10MO 02MC 02RD 02RO	0	1	3.97212409973	None	None	None	None	1
2.7	2015_May_26_1553	s	s	15	1	SIC	217	ABS	1	0	02VD 02VO 02VC 02MD 02MO 10MC 02RD 02RO	0	1	3.71404004097	None	None	None	None	1
2.7	2015_May_26_1553	s	s	15	1	SIC	218	RC	0	2	02VD 02VO 02VC 02MD 02MO 02MC 09RD 02RO	1	0	1.20626592636	62.0	284.0	58	273	1
2.7	2015_May_26_1553	s	s	15	1	SIC	219	RC	0	1	02VD 02VO 02VC 02MD 02MO 02MC 02RD 09RO	0	1	5.12809419632	109.0	378.0	None	None	0
2.7	2015_May_26_1553	s	s	15	1	SIC	220	RC	2	2	09VD 02VO 02VC 02MD 02MO 02MC 02RD 02RO	1	0	1.36479496956	321.0	63.0	325	62	1
2.7	2015_May_26_1553	s	s	15	1	SIC	221	ABS	2	0	02VD 02VO 10VC 02MD 02MO 02MC 02RD 02RO	0	1	2.84823513031	None	None	None	None	1
2.7	2015_May_26_1553	s	s	15	1	SIC	222	ABS	2	2	10VD 02VO 02VC 02MD 02MO 02MC 02RD 02RO	0	1	3.45991683006	None	None	None	None	1
2.7	2015_May_26_1553	s	s	15	1	SIC	223	RC	2	1	02VD 09VO 02VC 02MD 02MO 02MC 02RD 02RO	1	0	2.17217493057	279.0	24.0	280	22	1
2.7	2015_May_26_1553	s	s	15	1	SIC	224	RC	2	0	02VD 02VO 09VC 02MD 02MO 02MC 02RD 02RO	1	0	1.6187620163	493.0	105.0	496	97	1
2.7	2015_May_26_1553	s	s	15	1	SIC	225	RC	2	2	09VD 02VO 02VC 02MD 02MO 02MC 02RD 02RO	1	0	2.7182161808	-519.0	-302.0	-522	-301	1
2.7	2015_May_26_1553	s	s	15	1	SIC	226	RC	2	0	02VD 02VO 09VC 02MD 02MO 02MC 02RD 02RO	1	0	0.921097040176	-202.0	-42.0	-209	-36	1
2.7	2015_May_26_1553	s	s	15	1	SIC	227	ABS	2	0	02VD 02VO 10VC 02MD 02MO 02MC 02RD 02RO	0	1	1.9269888401	None	None	None	None	1
2.7	2015_May_26_1553	s	s	15	1	SIC	228	RC	1	2	02VD 02VO 02VC 09MD 02MO 02MC 02RD 02RO	1	0	1.18808698654	-35.0	-93.0	-39	-92	1
2.7	2015_May_26_1553	s	s	15	1	SIC	229	RC	0	1	02VD 02VO 02VC 02MD 02MO 02MC 02RD 09RO	0	1	1.7858300209	430.0	-168.0	None	None	0
2.7	2015_May_26_1553	s	s	15	1	SIC	230	RC	1	0	02VD 02VO 02VC 02MD 02MO 09MC 02RD 02RO	1	0	0.670192956924	25.0	81.0	19	72	1
2.7	2015_May_26_1553	s	s	15	1	SIC	231	ABS	1	1	02VD 02VO 02VC 02MD 10MO 02MC 02RD 02RO	0	1	3.36033606529	None	None	None	None	1
2.7	2015_May_26_1553	s	s	15	1	SIC	232	ABS	0	2	02VD 02VO 02VC 02MD 02MO 02MC 10RD 02RO	0	1	3.69541692734	None	None	None	None	1
2.7	2015_May_26_1553	s	s	15	1	SIC	233	ABS	1	2	02VD 02VO 02VC 10MD 02MO 02MC 02RD 02RO	0	1	3.05982780457	None	None	None	None	1
2.7	2015_May_26_1553	s	s	15	1	SIC	234	ABS	2	2	10VD 02VO 02VC 02MD 02MO 02MC 02RD 02RO	0	1	2.65957999229	None	None	None	None	1
2.7	2015_May_26_1553	s	s	15	1	SIC	235	ABS	2	1	02VD 10VO 02VC 02MD 02MO 02MC 02RD 02RO	0	1	2.36521100998	None	None	None	None	1
2.7	2015_May_26_1553	s	s	15	1	SIC	236	RC	0	2	02VD 02VO 02VC 02MD 02MO 02MC 09RD 02RO	1	0	2.38886713982	-417.0	-93.0	-426	-97	1
2.7	2015_May_26_1553	s	s	15	1	SIC	237	RC	2	1	02VD 09VO 02VC 02MD 02MO 02MC 02RD 02RO	1	0	3.98985290527	-201.0	2.0	-197	1	1
2.7	2015_May_26_1553	s	s	15	1	SIC	238	ABS	0	1	02VD 02VO 02VC 02MD 02MO 02MC 02RD 10RO	0	1	5.56040811539	None	None	None	None	1
2.7	2015_May_26_1553	s	s	15	1	SIC	239	ABS	1	0	02VD 02VO 02VC 02MD 02MO 10MC 02RD 02RO	0	1	2.98392510414	None	None	None	None	1
2.7	2015_May_26_1553	s	s	15	1	SIC	240	RC	1	1	02VD 02VO 02VC 02MD 09MO 02MC 02RD 02RO	1	0	2.17260909081	171.0	-384.0	183	-382	1
2.7	2015_May_26_1553	s	s	15	1	SIC	241	RC	1	1	02VD 02VO 02VC 02MD 09MO 02MC 02RD 02RO	1	0	3.21261787415	15.0	-360.0	13	-363	1
2.7	2015_May_26_1553	s	s	15	1	SIC	242	ABS	1	0	02VD 02VO 02VC 02MD 02MO 10MC 02RD 02RO	0	1	3.76094603539	None	None	None	None	1
2.7	2015_May_26_1553	s	s	15	1	SIC	243	RC	2	1	02VD 09VO 02VC 02MD 02MO 02MC 02RD 02RO	1	0	1.68861603737	353.0	-341.0	355	-339	1
2.7	2015_May_26_1553	s	s	15	1	SIC	244	RC	0	2	02VD 02VO 02VC 02MD 02MO 02MC 09RD 02RO	1	0	2.26827001572	-4.0	306.0	-5	301	1
2.7	2015_May_26_1553	s	s	15	1	SIC	245	ABS	2	0	02VD 02VO 10VC 02MD 02MO 02MC 02RD 02RO	0	1	2.27099108696	None	None	None	None	1
2.7	2015_May_26_1553	s	s	15	1	SIC	246	RC	0	1	02VD 02VO 02VC 02MD 02MO 02MC 02RD 09RO	1	0	2.54179286957	400.0	335.0	399	326	1
2.7	2015_May_26_1553	s	s	15	1	SIC	247	ABS	2	2	10VD 02VO 02VC 02MD 02MO 02MC 02RD 02RO	0	1	2.61249899864	None	None	None	None	1
2.7	2015_May_26_1553	s	s	15	1	SIC	248	ABS	0	1	02VD 02VO 02VC 02MD 02MO 02MC 02RD 10RO	0	1	4.48073601723	None	None	None	None	1
2.7	2015_May_26_1553	s	s	15	1	SIC	249	RC	2	0	02VD 02VO 09VC 02MD 02MO 02MC 02RD 02RO	1	0	1.63551211357	-216.0	-74.0	-215	-65	1
2.7	2015_May_26_1553	s	s	15	1	SIC	250	ABS	0	2	02VD 02VO 02VC 02MD 02MO 02MC 10RD 02RO	0	1	3.09500789642	None	None	None	None	1
2.7	2015_May_26_1553	s	s	15	1	SIC	251	ABS	1	2	02VD 02VO 02VC 10MD 02MO 02MC 02RD 02RO	0	1	2.57107615471	None	None	None	None	1
2.7	2015_May_26_1553	s	s	15	1	SIC	252	ABS	1	1	02VD 02VO 02VC 02MD 10MO 02MC 02RD 02RO	0	1	4.66865301132	None	None	None	None	1
2.7	2015_May_26_1553	s	s	15	1	SIC	253	RC	1	2	02VD 02VO 02VC 09MD 02MO 02MC 02RD 02RO	1	0	1.34558010101	301.0	299.0	293	293	1
2.7	2015_May_26_1553	s	s	15	1	SIC	254	RC	2	2	09VD 02VO 02VC 02MD 02MO 02MC 02RD 02RO	1	0	3.96614003181	-383.0	-383.0	-372	-378	1
2.7	2015_May_26_1553	s	s	15	1	SIC	255	ABS	2	1	02VD 10VO 02VC 02MD 02MO 02MC 02RD 02RO	0	1	3.41877317429	None	None	None	None	1
2.7	2015_May_26_1553	s	s	15	1	SIC	256	RC	1	0	02VD 02VO 02VC 02MD 02MO 09MC 02RD 02RO	0	1	4.62531304359	483.0	-190.0	None	None	0
2.7	2015_May_26_1553	s	s	15	1	SIC	257	RC	0	1	02VD 02VO 02VC 02MD 02MO 02MC 02RD 09RO	1	0	2.10995197296	389.0	-190.0	398	-181	1
2.7	2015_May_26_1553	s	s	15	1	SIC	258	ABS	0	1	02VD 02VO 02VC 02MD 02MO 02MC 02RD 10RO	0	1	6.9483859539	None	None	None	None	1
2.7	2015_May_26_1553	s	s	15	1	SIC	259	RC	1	2	02VD 02VO 02VC 09MD 02MO 02MC 02RD 02RO	1	0	1.59482502937	256.0	-172.0	252	-169	1
2.7	2015_May_26_1553	s	s	15	1	SIC	260	RC	2	2	09VD 02VO 02VC 02MD 02MO 02MC 02RD 02RO	1	0	1.60781288147	3.0	-163.0	-2	-164	1
2.7	2015_May_26_1553	s	s	15	1	SIC	261	ABS	2	0	02VD 02VO 10VC 02MD 02MO 02MC 02RD 02RO	0	1	3.29523086548	None	None	None	None	1
2.7	2015_May_26_1553	s	s	15	1	SIC	262	RC	2	0	02VD 02VO 09VC 02MD 02MO 02MC 02RD 02RO	1	0	1.79507899284	-35.0	-197.0	-37	-199	1
2.7	2015_May_26_1553	s	s	15	1	SIC	263	ABS	2	1	02VD 10VO 02VC 02MD 02MO 02MC 02RD 02RO	0	1	3.9720659256	None	None	None	None	1
2.7	2015_May_26_1553	s	s	15	1	SIC	264	ABS	2	2	10VD 02VO 02VC 02MD 02MO 02MC 02RD 02RO	0	1	2.55352187157	None	None	None	None	1
2.7	2015_May_26_1553	s	s	15	1	SIC	265	ABS	1	2	02VD 02VO 02VC 10MD 02MO 02MC 02RD 02RO	0	1	2.70166611671	None	None	None	None	1
2.7	2015_May_26_1553	s	s	15	1	SIC	266	ABS	0	2	02VD 02VO 02VC 02MD 02MO 02MC 10RD 02RO	0	1	3.30126786232	None	None	None	None	1
2.7	2015_May_26_1553	s	s	15	1	SIC	267	RC	1	0	02VD 02VO 02VC 02MD 02MO 09MC 02RD 02RO	1	0	4.11913609505	-217.0	312.0	-217	306	1
2.7	2015_May_26_1553	s	s	15	1	SIC	268	RC	1	1	02VD 02VO 02VC 02MD 09MO 02MC 02RD 02RO	1	0	2.95138001442	-267.0	-133.0	-273	-134	1
2.7	2015_May_26_1553	s	s	15	1	SIC	269	RC	2	1	02VD 09VO 02VC 02MD 02MO 02MC 02RD 02RO	1	0	1.94142007828	385.0	341.0	381	334	1
2.7	2015_May_26_1553	s	s	15	1	SIC	270	ABS	1	1	02VD 02VO 02VC 02MD 10MO 02MC 02RD 02RO	0	1	3.34261894226	None	None	None	None	1
2.7	2015_May_26_1553	s	s	15	1	SIC	271	RC	0	2	02VD 02VO 02VC 02MD 02MO 02MC 09RD 02RO	1	0	1.6328690052	-120.0	-306.0	-127	-313	1
2.7	2015_May_26_1553	s	s	15	1	SIC	272	ABS	1	0	02VD 02VO 02VC 02MD 02MO 10MC 02RD 02RO	0	1	3.82102203369	None	None	None	None	1
2.7	2015_May_26_1553	s	s	15	1	SIC	273	RC	0	1	02VD 02VO 02VC 02MD 02MO 02MC 02RD 09RO	1	0	3.55449008942	-277.0	-217.0	-281	-217	1
2.7	2015_May_26_1553	s	s	15	1	SIC	274	ABS	1	0	02VD 02VO 02VC 02MD 02MO 10MC 02RD 02RO	0	1	3.70697712898	None	None	None	None	1
2.7	2015_May_26_1553	s	s	15	1	SIC	275	RC	2	1	02VD 09VO 02VC 02MD 02MO 02MC 02RD 02RO	1	0	1.82037997246	-277.0	52.0	-279	50	1
2.7	2015_May_26_1553	s	s	15	1	SIC	276	RC	1	0	02VD 02VO 02VC 02MD 02MO 09MC 02RD 02RO	1	0	2.49188113213	-343.0	374.0	-339	363	1
2.7	2015_May_26_1553	s	s	15	1	SIC	277	RC	1	1	02VD 02VO 02VC 02MD 09MO 02MC 02RD 02RO	1	0	3.02433300018	56.0	337.0	64	342	1
2.7	2015_May_26_1553	s	s	15	1	SIC	278	RC	0	2	02VD 02VO 02VC 02MD 02MO 02MC 09RD 02RO	1	0	1.69202804565	-276.0	-127.0	-272	-129	1
2.7	2015_May_26_1553	s	s	15	1	SIC	279	RC	2	0	02VD 02VO 09VC 02MD 02MO 02MC 02RD 02RO	1	0	1.97678613663	-275.0	178.0	-278	186	1
2.7	2015_May_26_1553	s	s	15	1	SIC	280	RC	1	2	02VD 02VO 02VC 09MD 02MO 02MC 02RD 02RO	1	0	2.21227097511	193.0	-370.0	192	-371	1
2.7	2015_May_26_1553	s	s	15	1	SIC	281	ABS	2	0	02VD 02VO 10VC 02MD 02MO 02MC 02RD 02RO	0	1	3.44816994667	None	None	None	None	1
2.7	2015_May_26_1553	s	s	15	1	SIC	282	ABS	0	1	02VD 02VO 02VC 02MD 02MO 02MC 02RD 10RO	0	1	2.45131015778	None	None	None	None	1
2.7	2015_May_26_1553	s	s	15	1	SIC	283	ABS	1	1	02VD 02VO 02VC 02MD 10MO 02MC 02RD 02RO	0	1	3.53051280975	None	None	None	None	1
2.7	2015_May_26_1553	s	s	15	1	SIC	284	ABS	2	1	02VD 10VO 02VC 02MD 02MO 02MC 02RD 02RO	0	1	2.9975039959	None	None	None	None	1
2.7	2015_May_26_1553	s	s	15	1	SIC	285	ABS	2	2	10VD 02VO 02VC 02MD 02MO 02MC 02RD 02RO	0	1	2.56552815437	None	None	None	None	1
2.7	2015_May_26_1553	s	s	15	1	SIC	286	ABS	1	2	02VD 02VO 02VC 10MD 02MO 02MC 02RD 02RO	0	1	1.6680150032	None	None	None	None	1
2.7	2015_May_26_1553	s	s	15	1	SIC	287	RC	2	2	09VD 02VO 02VC 02MD 02MO 02MC 02RD 02RO	1	0	1.85563087463	254.0	-256.0	249	-264	1
2.7	2015_May_26_1553	s	s	15	1	SIC	288	ABS	0	2	02VD 02VO 02VC 02MD 02MO 02MC 10RD 02RO	0	1	3.53950691223	None	None	None	None	1
2.7	2015_May_26_1553	s	s	15	1	SIC	289	RC	1	2	02VD 02VO 02VC 09MD 02MO 02MC 02RD 02RO	1	0	1.10093688965	-196.0	228.0	-197	222	1
2.7	2015_May_26_1553	s	s	15	1	SIC	290	ABS	0	1	02VD 02VO 02VC 02MD 02MO 02MC 02RD 10RO	0	1	14.5691101551	None	None	None	None	1
2.7	2015_May_26_1553	s	s	15	1	SIC	291	ABS	1	1	02VD 02VO 02VC 02MD 10MO 02MC 02RD 02RO	0	1	3.00085902214	None	None	None	None	1
2.7	2015_May_26_1553	s	s	15	1	SIC	292	RC	2	0	02VD 02VO 09VC 02MD 02MO 02MC 02RD 02RO	0	1	2.65685200691	442.0	-124.0	None	None	0
2.7	2015_May_26_1553	s	s	15	1	SIC	293	RC	2	2	09VD 02VO 02VC 02MD 02MO 02MC 02RD 02RO	1	0	2.20927286148	-453.0	-232.0	-444	-232	1
2.7	2015_May_26_1553	s	s	15	1	SIC	294	ABS	2	1	02VD 10VO 02VC 02MD 02MO 02MC 02RD 02RO	0	1	2.065928936	None	None	None	None	1
2.7	2015_May_26_1553	s	s	15	1	SIC	295	ABS	2	0	02VD 02VO 10VC 02MD 02MO 02MC 02RD 02RO	0	1	2.39695191383	None	None	None	None	1
2.7	2015_May_26_1553	s	s	15	1	SIC	296	RC	2	1	02VD 09VO 02VC 02MD 02MO 02MC 02RD 02RO	1	0	1.07749390602	16.0	-37.0	17	-29	1
2.7	2015_May_26_1553	s	s	15	1	SIC	297	ABS	1	0	02VD 02VO 02VC 02MD 02MO 10MC 02RD 02RO	0	1	3.87188386917	None	None	None	None	1
2.7	2015_May_26_1553	s	s	15	1	SIC	298	ABS	0	2	02VD 02VO 02VC 02MD 02MO 02MC 10RD 02RO	0	1	2.86849999428	None	None	None	None	1
2.7	2015_May_26_1553	s	s	15	1	SIC	299	RC	0	1	02VD 02VO 02VC 02MD 02MO 02MC 02RD 09RO	1	0	3.04798388481	-197.0	-222.0	-190	-213	1
2.7	2015_May_26_1553	s	s	15	1	SIC	300	ABS	2	2	10VD 02VO 02VC 02MD 02MO 02MC 02RD 02RO	0	1	2.12977695465	None	None	None	None	1
2.7	2015_May_26_1553	s	s	15	1	SIC	301	RC	1	1	02VD 02VO 02VC 02MD 09MO 02MC 02RD 02RO	1	0	1.23527598381	-374.0	-64.0	-379	-66	1
2.7	2015_May_26_1553	s	s	15	1	SIC	302	ABS	1	2	02VD 02VO 02VC 10MD 02MO 02MC 02RD 02RO	0	1	2.85951399803	None	None	None	None	1
2.7	2015_May_26_1553	s	s	15	1	SIC	303	RC	0	2	02VD 02VO 02VC 02MD 02MO 02MC 09RD 02RO	1	0	2.77441596985	-323.0	-60.0	-316	-67	1
2.7	2015_May_26_1553	s	s	15	1	SIC	304	RC	1	0	02VD 02VO 02VC 02MD 02MO 09MC 02RD 02RO	1	0	2.57710790634	349.0	-96.0	349	-97	1
2.7	2015_May_26_1553	s	s	15	1	SIC	305	RC	0	1	02VD 02VO 02VC 02MD 02MO 02MC 02RD 09RO	1	0	1.58831596375	60.0	-45.0	58	-52	1
2.7	2015_May_26_1553	s	s	15	1	SIC	306	ABS	2	1	02VD 10VO 02VC 02MD 02MO 02MC 02RD 02RO	0	1	2.51832008362	None	None	None	None	1
2.7	2015_May_26_1553	s	s	15	1	SIC	307	ABS	1	2	02VD 02VO 02VC 10MD 02MO 02MC 02RD 02RO	0	1	2.45347285271	None	None	None	None	1
2.7	2015_May_26_1553	s	s	15	1	SIC	308	ABS	2	2	10VD 02VO 02VC 02MD 02MO 02MC 02RD 02RO	0	1	10.3221180439	None	None	None	None	1
2.7	2015_May_26_1553	s	s	15	1	SIC	309	ABS	0	2	02VD 02VO 02VC 02MD 02MO 02MC 10RD 02RO	0	1	3.21267795563	None	None	None	None	1
2.7	2015_May_26_1553	s	s	15	1	SIC	310	ABS	2	0	02VD 02VO 10VC 02MD 02MO 02MC 02RD 02RO	0	1	2.40954589844	None	None	None	None	1
2.7	2015_May_26_1553	s	s	15	1	SIC	311	ABS	0	1	02VD 02VO 02VC 02MD 02MO 02MC 02RD 10RO	0	1	5.14838004112	None	None	None	None	1
2.7	2015_May_26_1553	s	s	15	1	SIC	312	ABS	1	0	02VD 02VO 02VC 02MD 02MO 10MC 02RD 02RO	0	1	5.04197001457	None	None	None	None	1
2.7	2015_May_26_1553	s	s	15	1	SIC	313	RC	1	1	02VD 02VO 02VC 02MD 09MO 02MC 02RD 02RO	0	1	10.1642079353	-421.0	160.0	None	None	0
2.7	2015_May_26_1553	s	s	15	1	SIC	314	RC	2	1	02VD 09VO 02VC 02MD 02MO 02MC 02RD 02RO	1	0	1.53798508644	-472.0	-211.0	-474	-205	1
2.7	2015_May_26_1553	s	s	15	1	SIC	315	RC	1	0	02VD 02VO 02VC 02MD 02MO 09MC 02RD 02RO	1	0	2.52545499802	346.0	105.0	358	108	1
2.7	2015_May_26_1553	s	s	15	1	SIC	316	RC	2	0	02VD 02VO 09VC 02MD 02MO 02MC 02RD 02RO	1	0	0.68212890625	-346.0	296.0	-343	292	1
2.7	2015_May_26_1553	s	s	15	1	SIC	317	RC	1	2	02VD 02VO 02VC 09MD 02MO 02MC 02RD 02RO	1	0	2.09450316429	165.0	349.0	170	354	1
2.7	2015_May_26_1553	s	s	15	1	SIC	318	RC	0	2	02VD 02VO 02VC 02MD 02MO 02MC 09RD 02RO	1	0	1.46761703491	434.0	-10.0	436	-13	1
2.7	2015_May_26_1553	s	s	15	1	SIC	319	RC	2	2	09VD 02VO 02VC 02MD 02MO 02MC 02RD 02RO	1	0	1.12602710724	-6.0	-132.0	-9	-134	1
2.7	2015_May_26_1553	s	s	15	1	SIC	320	ABS	1	1	02VD 02VO 02VC 02MD 10MO 02MC 02RD 02RO	0	1	2.50666117668	None	None	None	None	1
2.7	2015_May_26_1553	s	s	15	1	SIC	321	RC	2	0	02VD 02VO 09VC 02MD 02MO 02MC 02RD 02RO	1	0	1.43230700493	73.0	-127.0	65	-126	1
2.7	2015_May_26_1553	s	s	15	1	SIC	322	ABS	2	2	10VD 02VO 02VC 02MD 02MO 02MC 02RD 02RO	0	1	1.97664403915	None	None	None	None	1
2.7	2015_May_26_1553	s	s	15	1	SIC	323	ABS	1	1	02VD 02VO 02VC 02MD 10MO 02MC 02RD 02RO	0	1	9.77759194374	None	None	None	None	1
2.7	2015_May_26_1553	s	s	15	1	SIC	324	ABS	1	2	02VD 02VO 02VC 10MD 02MO 02MC 02RD 02RO	0	1	2.7455329895	None	None	None	None	1
2.7	2015_May_26_1553	s	s	15	1	SIC	325	RC	1	0	02VD 02VO 02VC 02MD 02MO 09MC 02RD 02RO	1	0	1.96236419678	219.0	-65.0	207	-63	1
2.7	2015_May_26_1553	s	s	15	1	SIC	326	ABS	2	1	02VD 10VO 02VC 02MD 02MO 02MC 02RD 02RO	0	1	2.67483901978	None	None	None	None	1
2.7	2015_May_26_1553	s	s	15	1	SIC	327	RC	1	1	02VD 02VO 02VC 02MD 09MO 02MC 02RD 02RO	1	0	1.00585794449	-58.0	-17.0	-59	-21	1
2.7	2015_May_26_1553	s	s	15	1	SIC	328	RC	0	2	02VD 02VO 02VC 02MD 02MO 02MC 09RD 02RO	1	0	1.54813313484	-60.0	165.0	-67	162	1
2.7	2015_May_26_1553	s	s	15	1	SIC	329	RC	2	1	02VD 09VO 02VC 02MD 02MO 02MC 02RD 02RO	0	1	2.69528079033	294.0	19.0	None	None	0
2.7	2015_May_26_1553	s	s	15	1	SIC	330	RC	1	2	02VD 02VO 02VC 09MD 02MO 02MC 02RD 02RO	1	0	1.94948601723	117.0	186.0	109	184	1
2.7	2015_May_26_1553	s	s	15	1	SIC	331	ABS	0	1	02VD 02VO 02VC 02MD 02MO 02MC 02RD 10RO	0	1	8.68342208862	None	None	None	None	1
2.7	2015_May_26_1553	s	s	15	1	SIC	332	RC	0	1	02VD 02VO 02VC 02MD 02MO 02MC 02RD 09RO	1	0	1.14122891426	-209.0	59.0	-216	52	1
2.7	2015_May_26_1553	s	s	15	1	SIC	333	ABS	2	0	02VD 02VO 10VC 02MD 02MO 02MC 02RD 02RO	0	1	1.75322413445	None	None	None	None	1
2.7	2015_May_26_1553	s	s	15	1	SIC	334	RC	2	2	09VD 02VO 02VC 02MD 02MO 02MC 02RD 02RO	1	0	1.7246799469	423.0	36.0	422	40	1
2.7	2015_May_26_1553	s	s	15	1	SIC	335	ABS	1	0	02VD 02VO 02VC 02MD 02MO 10MC 02RD 02RO	0	0	-1	None	None	None	None	-1
2.7	2015_May_26_1553	s	s	15	1	SIC	336	ABS	0	2	02VD 02VO 02VC 02MD 02MO 02MC 10RD 02RO	0	1	3.53953194618	None	None	None	None	1
2.7	2015_May_26_1553	s	s	15	1	SIC	337	RC	1	0	02VD 02VO 02VC 02MD 02MO 09MC 02RD 02RO	1	0	3.49248600006	-315.0	218.0	-317	207	1
2.7	2015_May_26_1553	s	s	15	1	SIC	338	ABS	1	2	02VD 02VO 02VC 10MD 02MO 02MC 02RD 02RO	0	1	2.35358285904	None	None	None	None	1
2.7	2015_May_26_1553	s	s	15	1	SIC	339	ABS	0	2	02VD 02VO 02VC 02MD 02MO 02MC 10RD 02RO	0	1	3.02164292336	None	None	None	None	1
2.7	2015_May_26_1553	s	s	15	1	SIC	340	ABS	1	1	02VD 02VO 02VC 02MD 10MO 02MC 02RD 02RO	0	1	2.87977910042	None	None	None	None	1
2.7	2015_May_26_1553	s	s	15	1	SIC	341	ABS	2	1	02VD 10VO 02VC 02MD 02MO 02MC 02RD 02RO	0	1	2.8310379982	None	None	None	None	1
2.7	2015_May_26_1553	s	s	15	1	SIC	342	RC	0	1	02VD 02VO 02VC 02MD 02MO 02MC 02RD 09RO	0	1	12.0936899185	-324.0	-179.0	None	None	0
2.7	2015_May_26_1553	s	s	15	1	SIC	343	RC	1	1	02VD 02VO 02VC 02MD 09MO 02MC 02RD 02RO	1	0	1.69157195091	-204.0	235.0	-204	227	1
2.7	2015_May_26_1553	s	s	15	1	SIC	344	ABS	0	1	02VD 02VO 02VC 02MD 02MO 02MC 02RD 10RO	0	1	3.34880709648	None	None	None	None	1
2.7	2015_May_26_1553	s	s	15	1	SIC	345	RC	0	2	02VD 02VO 02VC 02MD 02MO 02MC 09RD 02RO	1	0	1.05870199203	-165.0	44.0	-169	38	1
2.7	2015_May_26_1553	s	s	15	1	SIC	346	ABS	2	0	02VD 02VO 10VC 02MD 02MO 02MC 02RD 02RO	0	1	2.41763997078	None	None	None	None	1
2.7	2015_May_26_1553	s	s	15	1	SIC	347	RC	2	2	09VD 02VO 02VC 02MD 02MO 02MC 02RD 02RO	1	0	1.19681596756	265.0	174.0	261	175	1
2.7	2015_May_26_1553	s	s	15	1	SIC	348	RC	2	0	02VD 02VO 09VC 02MD 02MO 02MC 02RD 02RO	1	0	1.18856692314	375.0	-115.0	366	-119	1
2.7	2015_May_26_1553	s	s	15	1	SIC	349	ABS	2	2	10VD 02VO 02VC 02MD 02MO 02MC 02RD 02RO	0	1	8.16298103333	None	None	None	None	1
2.7	2015_May_26_1553	s	s	15	1	SIC	350	RC	2	1	02VD 09VO 02VC 02MD 02MO 02MC 02RD 02RO	1	0	1.38820505142	-53.0	-192.0	-44	-187	1
2.7	2015_May_26_1553	s	s	15	1	SIC	351	RC	1	2	02VD 02VO 02VC 09MD 02MO 02MC 02RD 02RO	1	0	0.876682043076	-47.0	240.0	-48	231	1
2.7	2015_May_26_1553	s	s	15	1	SIC	352	ABS	1	0	02VD 02VO 02VC 02MD 02MO 10MC 02RD 02RO	0	1	2.89139103889	None	None	None	None	1
2.7	2015_May_26_1553	s	s	15	1	SIC	353	RC	0	2	02VD 02VO 02VC 02MD 02MO 02MC 09RD 02RO	1	0	1.00812411308	-489.0	37.0	-492	28	1
2.7	2015_May_26_1553	s	s	15	1	SIC	354	RC	1	2	02VD 02VO 02VC 09MD 02MO 02MC 02RD 02RO	0	1	0.252578020096	391.0	127.0	None	None	0
2.7	2015_May_26_1553	s	s	15	1	SIC	355	RC	2	1	02VD 09VO 02VC 02MD 02MO 02MC 02RD 02RO	0	1	1.09403395653	87.0	-157.0	None	None	0
2.7	2015_May_26_1553	s	s	15	1	SIC	356	ABS	0	2	02VD 02VO 02VC 02MD 02MO 02MC 10RD 02RO	0	1	17.2315988541	None	None	None	None	1
2.7	2015_May_26_1553	s	s	15	1	SIC	357	RC	2	0	02VD 02VO 09VC 02MD 02MO 02MC 02RD 02RO	0	1	2.07083892822	123.0	-55.0	None	None	0
2.7	2015_May_26_1553	s	s	15	1	SIC	358	RC	0	1	02VD 02VO 02VC 02MD 02MO 02MC 02RD 09RO	0	1	3.52696490288	191.0	-104.0	None	None	0
2.7	2015_May_26_1553	s	s	15	1	SIC	359	ABS	1	2	02VD 02VO 02VC 10MD 02MO 02MC 02RD 02RO	0	1	2.79711580276	None	None	None	None	1
2.7	2015_May_26_1553	s	s	15	1	SIC	360	ABS	1	0	02VD 02VO 02VC 02MD 02MO 10MC 02RD 02RO	0	1	3.18661284447	None	None	None	None	1
2.7	2015_May_26_1553	s	s	15	1	SIC	361	ABS	2	2	10VD 02VO 02VC 02MD 02MO 02MC 02RD 02RO	0	1	2.61927700043	None	None	None	None	1
2.7	2015_May_26_1553	s	s	15	1	SIC	362	RC	1	0	02VD 02VO 02VC 02MD 02MO 09MC 02RD 02RO	1	0	2.39792490005	-404.0	-196.0	-408	-203	1
2.7	2015_May_26_1553	s	s	15	1	SIC	363	ABS	2	1	02VD 10VO 02VC 02MD 02MO 02MC 02RD 02RO	0	1	1.84424304962	None	None	None	None	1
2.7	2015_May_26_1553	s	s	15	1	SIC	364	ABS	0	1	02VD 02VO 02VC 02MD 02MO 02MC 02RD 10RO	0	1	3.63660311699	None	None	None	None	1
2.7	2015_May_26_1553	s	s	15	1	SIC	365	RC	1	1	02VD 02VO 02VC 02MD 09MO 02MC 02RD 02RO	1	0	1.00849294662	-231.0	277.0	-236	267	1
2.7	2015_May_26_1553	s	s	15	1	SIC	366	ABS	1	1	02VD 02VO 02VC 02MD 10MO 02MC 02RD 02RO	0	1	3.03047299385	None	None	None	None	1
2.7	2015_May_26_1553	s	s	15	1	SIC	367	ABS	2	0	02VD 02VO 10VC 02MD 02MO 02MC 02RD 02RO	0	1	2.31820988655	None	None	None	None	1
2.7	2015_May_26_1553	s	s	15	1	SIC	368	RC	2	2	09VD 02VO 02VC 02MD 02MO 02MC 02RD 02RO	1	0	1.11740493774	395.0	134.0	398	135	1
2.7	2015_May_26_1553	s	s	15	1	SIC	369	RC	1	1	02VD 02VO 02VC 02MD 09MO 02MC 02RD 02RO	1	0	1.20023584366	170.0	336.0	165	338	1
2.7	2015_May_26_1553	s	s	15	1	SIC	370	ABS	1	0	02VD 02VO 02VC 02MD 02MO 10MC 02RD 02RO	0	1	3.72789907455	None	None	None	None	1
2.7	2015_May_26_1553	s	s	15	1	SIC	371	ABS	2	0	02VD 02VO 10VC 02MD 02MO 02MC 02RD 02RO	0	1	2.35352897644	None	None	None	None	1
2.7	2015_May_26_1553	s	s	15	1	SIC	372	ABS	0	2	02VD 02VO 02VC 02MD 02MO 02MC 10RD 02RO	0	1	3.06328511238	None	None	None	None	1
2.7	2015_May_26_1553	s	s	15	1	SIC	373	RC	0	1	02VD 02VO 02VC 02MD 02MO 02MC 02RD 09RO	0	1	3.72530603409	432.0	-325.0	None	None	0
2.7	2015_May_26_1553	s	s	15	1	SIC	374	RC	0	2	02VD 02VO 02VC 02MD 02MO 02MC 09RD 02RO	1	0	1.38251781464	493.0	186.0	-139	-138	0
2.7	2015_May_26_1553	s	s	15	1	SIC	375	RC	2	0	02VD 02VO 09VC 02MD 02MO 02MC 02RD 02RO	1	0	1.44722795486	301.0	-119.0	303	-124	1
2.7	2015_May_26_1553	s	s	15	1	SIC	376	ABS	2	2	10VD 02VO 02VC 02MD 02MO 02MC 02RD 02RO	0	1	2.07102489471	None	None	None	None	1
2.7	2015_May_26_1553	s	s	15	1	SIC	377	ABS	1	2	02VD 02VO 02VC 10MD 02MO 02MC 02RD 02RO	0	1	2.56535100937	None	None	None	None	1
2.7	2015_May_26_1553	s	s	15	1	SIC	378	RC	2	2	09VD 02VO 02VC 02MD 02MO 02MC 02RD 02RO	1	0	1.84452009201	-487.0	-72.0	-490	-70	1
2.7	2015_May_26_1553	s	s	15	1	SIC	379	ABS	1	1	02VD 02VO 02VC 02MD 10MO 02MC 02RD 02RO	0	1	4.08398509026	None	None	None	None	1
2.7	2015_May_26_1553	s	s	15	1	SIC	380	RC	1	0	02VD 02VO 02VC 02MD 02MO 09MC 02RD 02RO	1	0	2.52545189857	72.0	-237.0	73	-229	1
2.7	2015_May_26_1553	s	s	15	1	SIC	381	ABS	2	1	02VD 10VO 02VC 02MD 02MO 02MC 02RD 02RO	0	1	3.58330416679	None	None	None	None	1
2.7	2015_May_26_1553	s	s	15	1	SIC	382	RC	2	1	02VD 09VO 02VC 02MD 02MO 02MC 02RD 02RO	1	0	1.29081892967	316.0	103.0	327	106	1
2.7	2015_May_26_1553	s	s	15	1	SIC	383	RC	1	2	02VD 02VO 02VC 09MD 02MO 02MC 02RD 02RO	0	1	1.64728212357	346.0	-151.0	None	None	0
2.7	2015_May_26_1553	s	s	15	1	SIC	384	ABS	0	1	02VD 02VO 02VC 02MD 02MO 02MC 02RD 10RO	0	1	3.48350811005	None	None	None	None	1
2.7	2015_May_26_1553	s	s	15	1	SIC	385	RC	1	1	02VD 02VO 02VC 02MD 09MO 02MC 02RD 02RO	1	0	1.48939108849	171.0	57.0	171	48	1
2.7	2015_May_26_1553	s	s	15	1	SIC	386	RC	2	1	02VD 09VO 02VC 02MD 02MO 02MC 02RD 02RO	1	0	2.09460091591	-267.0	-243.0	-263	-239	1
2.7	2015_May_26_1553	s	s	15	1	SIC	387	RC	2	2	09VD 02VO 02VC 02MD 02MO 02MC 02RD 02RO	1	0	2.28651690483	59.0	-171.0	56	-168	1
2.7	2015_May_26_1553	s	s	15	1	SIC	388	RC	2	0	02VD 02VO 09VC 02MD 02MO 02MC 02RD 02RO	1	0	1.34896397591	-30.0	310.0	-40	309	1
2.7	2015_May_26_1553	s	s	15	1	SIC	389	RC	1	0	02VD 02VO 02VC 02MD 02MO 09MC 02RD 02RO	1	0	1.4558968544	53.0	-112.0	57	-108	1
2.7	2015_May_26_1553	s	s	15	1	SIC	390	ABS	0	2	02VD 02VO 02VC 02MD 02MO 02MC 10RD 02RO	0	1	3.50430297852	None	None	None	None	1
2.7	2015_May_26_1553	s	s	15	1	SIC	391	ABS	1	2	02VD 02VO 02VC 10MD 02MO 02MC 02RD 02RO	0	1	2.77718806267	None	None	None	None	1
2.7	2015_May_26_1553	s	s	15	1	SIC	392	ABS	2	0	02VD 02VO 10VC 02MD 02MO 02MC 02RD 02RO	0	1	2.58389186859	None	None	None	None	1
2.7	2015_May_26_1553	s	s	15	1	SIC	393	ABS	0	1	02VD 02VO 02VC 02MD 02MO 02MC 02RD 10RO	0	1	5.17839789391	None	None	None	None	1
2.7	2015_May_26_1553	s	s	15	1	SIC	394	RC	0	1	02VD 02VO 02VC 02MD 02MO 02MC 02RD 09RO	1	0	3.47788786888	-274.0	-350.0	-276	-348	1
2.7	2015_May_26_1553	s	s	15	1	SIC	395	ABS	2	2	10VD 02VO 02VC 02MD 02MO 02MC 02RD 02RO	0	1	2.8803319931	None	None	None	None	1
2.7	2015_May_26_1553	s	s	15	1	SIC	396	ABS	1	1	02VD 02VO 02VC 02MD 10MO 02MC 02RD 02RO	0	1	4.37383890152	None	None	None	None	1
2.7	2015_May_26_1553	s	s	15	1	SIC	397	ABS	2	1	02VD 10VO 02VC 02MD 02MO 02MC 02RD 02RO	0	1	3.98382210732	None	None	None	None	1
2.7	2015_May_26_1553	s	s	15	1	SIC	398	ABS	1	0	02VD 02VO 02VC 02MD 02MO 10MC 02RD 02RO	0	1	3.47170901299	None	None	None	None	1
2.7	2015_May_26_1553	s	s	15	1	SIC	399	RC	0	2	02VD 02VO 02VC 02MD 02MO 02MC 09RD 02RO	1	0	1.83552002907	-164.0	-230.0	-167	-232	1
2.7	2015_May_26_1553	s	s	15	1	SIC	400	RC	1	2	02VD 02VO 02VC 09MD 02MO 02MC 02RD 02RO	1	0	0.947001934052	-405.0	298.0	-400	296	1
2.7	2015_May_26_1553	s	s	15	1	SIC	401	ABS	2	0	02VD 02VO 10VC 02MD 02MO 02MC 02RD 02RO	0	1	1.94682002068	None	None	None	None	1
2.7	2015_May_26_1553	s	s	15	1	SIC	402	ABS	1	0	02VD 02VO 02VC 02MD 02MO 10MC 02RD 02RO	0	1	3.33050203323	None	None	None	None	1
2.7	2015_May_26_1553	s	s	15	1	SIC	403	ABS	0	1	02VD 02VO 02VC 02MD 02MO 02MC 02RD 10RO	0	1	3.58700990677	None	None	None	None	1
2.7	2015_May_26_1553	s	s	15	1	SIC	404	RC	1	1	02VD 02VO 02VC 02MD 09MO 02MC 02RD 02RO	0	1	3.05974006653	-130.0	307.0	None	None	0
2.7	2015_May_26_1553	s	s	15	1	SIC	405	RC	1	0	02VD 02VO 02VC 02MD 02MO 09MC 02RD 02RO	1	0	1.63553309441	-104.0	-285.0	-107	-285	1
2.7	2015_May_26_1553	s	s	15	1	SIC	406	RC	0	1	02VD 02VO 02VC 02MD 02MO 02MC 02RD 09RO	1	0	2.29990792274	426.0	-103.0	428	-102	1
2.7	2015_May_26_1553	s	s	15	1	SIC	407	ABS	0	2	02VD 02VO 02VC 02MD 02MO 02MC 10RD 02RO	0	1	2.07702183723	None	None	None	None	1
2.7	2015_May_26_1553	s	s	15	1	SIC	408	RC	2	2	09VD 02VO 02VC 02MD 02MO 02MC 02RD 02RO	1	0	1.3589849472	258.0	269.0	252	273	1
2.7	2015_May_26_1553	s	s	15	1	SIC	409	RC	1	2	02VD 02VO 02VC 09MD 02MO 02MC 02RD 02RO	1	0	2.14940881729	-176.0	-322.0	-172	-324	1
2.7	2015_May_26_1553	s	s	15	1	SIC	410	RC	2	1	02VD 09VO 02VC 02MD 02MO 02MC 02RD 02RO	1	0	1.44724488258	-400.0	-126.0	-397	-126	1
2.7	2015_May_26_1553	s	s	15	1	SIC	411	RC	0	2	02VD 02VO 02VC 02MD 02MO 02MC 09RD 02RO	1	0	1.64448785782	109.0	-331.0	110	-330	1
2.7	2015_May_26_1553	s	s	15	1	SIC	412	RC	2	0	02VD 02VO 09VC 02MD 02MO 02MC 02RD 02RO	1	0	1.46592211723	332.0	335.0	328	337	1
2.7	2015_May_26_1553	s	s	15	1	SIC	413	ABS	2	2	10VD 02VO 02VC 02MD 02MO 02MC 02RD 02RO	0	1	3.49175786972	None	None	None	None	1
2.7	2015_May_26_1553	s	s	15	1	SIC	414	ABS	1	1	02VD 02VO 02VC 02MD 10MO 02MC 02RD 02RO	0	1	3.28337311745	None	None	None	None	1
2.7	2015_May_26_1553	s	s	15	1	SIC	415	ABS	1	2	02VD 02VO 02VC 10MD 02MO 02MC 02RD 02RO	0	1	2.74808216095	None	None	None	None	1
2.7	2015_May_26_1553	s	s	15	1	SIC	416	ABS	2	1	02VD 10VO 02VC 02MD 02MO 02MC 02RD 02RO	0	1	2.29188799858	None	None	None	None	1
2.7	2015_May_26_1553	s	s	15	1	SIC	417	ABS	1	2	02VD 02VO 02VC 10MD 02MO 02MC 02RD 02RO	0	1	2.7536509037	None	None	None	None	1
2.7	2015_May_26_1553	s	s	15	1	SIC	418	RC	2	2	09VD 02VO 02VC 02MD 02MO 02MC 02RD 02RO	1	0	1.18329596519	-180.0	-100.0	-179	-96	1
2.7	2015_May_26_1553	s	s	15	1	SIC	419	RC	1	0	02VD 02VO 02VC 02MD 02MO 09MC 02RD 02RO	1	0	1.27066302299	385.0	18.0	383	24	1
2.7	2015_May_26_1553	s	s	15	1	SIC	420	ABS	2	0	02VD 02VO 10VC 02MD 02MO 02MC 02RD 02RO	0	1	2.52726483345	None	None	None	None	1
2.7	2015_May_26_1553	s	s	15	1	SIC	421	RC	0	2	02VD 02VO 02VC 02MD 02MO 02MC 09RD 02RO	1	0	1.02059793472	11.0	84.0	7	87	1
2.7	2015_May_26_1553	s	s	15	1	SIC	422	ABS	2	1	02VD 10VO 02VC 02MD 02MO 02MC 02RD 02RO	0	1	2.44188380241	None	None	None	None	1
2.7	2015_May_26_1553	s	s	15	1	SIC	423	ABS	0	2	02VD 02VO 02VC 02MD 02MO 02MC 10RD 02RO	0	1	2.87948489189	None	None	None	None	1
2.7	2015_May_26_1553	s	s	15	1	SIC	424	ABS	1	1	02VD 02VO 02VC 02MD 10MO 02MC 02RD 02RO	0	1	3.47172498703	None	None	None	None	1
2.7	2015_May_26_1553	s	s	15	1	SIC	425	RC	1	1	02VD 02VO 02VC 02MD 09MO 02MC 02RD 02RO	1	0	1.40691518784	21.0	49.0	31	54	1
2.7	2015_May_26_1553	s	s	15	1	SIC	426	ABS	1	0	02VD 02VO 02VC 02MD 02MO 10MC 02RD 02RO	0	1	3.19540309906	None	None	None	None	1
2.7	2015_May_26_1553	s	s	15	1	SIC	427	RC	1	2	02VD 02VO 02VC 09MD 02MO 02MC 02RD 02RO	1	0	1.88260006905	105.0	-281.0	109	-288	1
2.7	2015_May_26_1553	s	s	15	1	SIC	428	ABS	2	2	10VD 02VO 02VC 02MD 02MO 02MC 02RD 02RO	0	1	2.07100892067	None	None	None	None	1
2.7	2015_May_26_1553	s	s	15	1	SIC	429	RC	2	0	02VD 02VO 09VC 02MD 02MO 02MC 02RD 02RO	1	0	9.42243289948	427.0	-225.0	438	-216	1
2.7	2015_May_26_1553	s	s	15	1	SIC	430	ABS	0	1	02VD 02VO 02VC 02MD 02MO 02MC 02RD 10RO	0	1	4.95210695267	None	None	None	None	1
2.7	2015_May_26_1553	s	s	15	1	SIC	431	RC	0	1	02VD 02VO 02VC 02MD 02MO 02MC 02RD 09RO	1	0	1.64154791832	334.0	84.0	335	86	1
2.7	2015_May_26_1553	s	s	15	1	SIC	432	RC	2	1	02VD 09VO 02VC 02MD 02MO 02MC 02RD 02RO	1	0	2.17702484131	-365.0	-311.0	-361	-312	1
2.7	2015_May_26_1553	s	s	15	1	SIC	433	RC	0	2	02VD 02VO 02VC 02MD 02MO 02MC 09RD 02RO	1	0	2.65951919556	470.0	-177.0	465	-176	1
2.7	2015_May_26_1553	s	s	15	1	SIC	434	ABS	1	0	02VD 02VO 02VC 02MD 02MO 10MC 02RD 02RO	0	1	2.63965702057	None	None	None	None	1
2.7	2015_May_26_1553	s	s	15	1	SIC	435	RC	0	1	02VD 02VO 02VC 02MD 02MO 02MC 02RD 09RO	1	0	0.96456193924	365.0	199.0	364	195	1
2.7	2015_May_26_1553	s	s	15	1	SIC	436	RC	2	1	02VD 09VO 02VC 02MD 02MO 02MC 02RD 02RO	1	0	0.988102912903	359.0	-71.0	363	-72	1
2.7	2015_May_26_1553	s	s	15	1	SIC	437	ABS	2	2	10VD 02VO 02VC 02MD 02MO 02MC 02RD 02RO	0	1	2.73647689819	None	None	None	None	1
2.7	2015_May_26_1553	s	s	15	1	SIC	438	RC	2	0	02VD 02VO 09VC 02MD 02MO 02MC 02RD 02RO	1	0	0.752647161484	250.0	181.0	258	186	1
2.7	2015_May_26_1553	s	s	15	1	SIC	439	ABS	1	1	02VD 02VO 02VC 02MD 10MO 02MC 02RD 02RO	0	1	3.35400485992	None	None	None	None	1
2.7	2015_May_26_1553	s	s	15	1	SIC	440	RC	1	0	02VD 02VO 02VC 02MD 02MO 09MC 02RD 02RO	1	0	1.2829990387	182.0	-194.0	180	-196	1
2.7	2015_May_26_1553	s	s	15	1	SIC	441	ABS	0	1	02VD 02VO 02VC 02MD 02MO 02MC 02RD 10RO	0	1	3.74240207672	None	None	None	None	1
2.7	2015_May_26_1553	s	s	15	1	SIC	442	RC	1	1	02VD 02VO 02VC 02MD 09MO 02MC 02RD 02RO	1	0	1.1948261261	-163.0	-132.0	-156	-129	1
2.7	2015_May_26_1553	s	s	15	1	SIC	443	ABS	2	0	02VD 02VO 10VC 02MD 02MO 02MC 02RD 02RO	0	1	2.1475520134	None	None	None	None	1
2.7	2015_May_26_1553	s	s	15	1	SIC	444	ABS	2	1	02VD 10VO 02VC 02MD 02MO 02MC 02RD 02RO	0	1	2.12993097305	None	None	None	None	1
2.7	2015_May_26_1553	s	s	15	1	SIC	445	ABS	1	2	02VD 02VO 02VC 10MD 02MO 02MC 02RD 02RO	0	1	2.03570008278	None	None	None	None	1
2.7	2015_May_26_1553	s	s	15	1	SIC	446	RC	1	2	02VD 02VO 02VC 09MD 02MO 02MC 02RD 02RO	1	0	0.6114590168	-171.0	129.0	-170	116	1
2.7	2015_May_26_1553	s	s	15	1	SIC	447	ABS	0	2	02VD 02VO 02VC 02MD 02MO 02MC 10RD 02RO	0	1	1.65593791008	None	None	None	None	1
2.7	2015_May_26_1553	s	s	15	1	SIC	448	RC	2	2	09VD 02VO 02VC 02MD 02MO 02MC 02RD 02RO	1	0	1.55029201508	-32.0	-137.0	-22	-133	1
2.7	2015_May_26_1553	s	s	15	1	SIC	449	RC	2	1	02VD 09VO 02VC 02MD 02MO 02MC 02RD 02RO	1	0	2.07726788521	342.0	-375.0	353	-374	1
2.7	2015_May_26_1553	s	s	15	1	SIC	450	ABS	2	0	02VD 02VO 10VC 02MD 02MO 02MC 02RD 02RO	0	1	3.03108596802	None	None	None	None	1
2.7	2015_May_26_1553	s	s	15	1	SIC	451	RC	0	2	02VD 02VO 02VC 02MD 02MO 02MC 09RD 02RO	1	0	0.935936927795	-74.0	-185.0	-70	-183	1
2.7	2015_May_26_1553	s	s	15	1	SIC	452	ABS	1	1	02VD 02VO 02VC 02MD 10MO 02MC 02RD 02RO	0	1	2.63956308365	None	None	None	None	1
2.7	2015_May_26_1553	s	s	15	1	SIC	453	RC	2	2	09VD 02VO 02VC 02MD 02MO 02MC 02RD 02RO	1	0	2.20604395866	-168.0	-389.0	-176	-389	1
2.7	2015_May_26_1553	s	s	15	1	SIC	454	ABS	2	1	02VD 10VO 02VC 02MD 02MO 02MC 02RD 02RO	0	1	1.97239589691	None	None	None	None	1
2.7	2015_May_26_1553	s	s	15	1	SIC	455	ABS	2	2	10VD 02VO 02VC 02MD 02MO 02MC 02RD 02RO	1	0	1.24712085724	None	None	-408	376	0
2.7	2015_May_26_1553	s	s	15	1	SIC	456	RC	2	0	02VD 02VO 09VC 02MD 02MO 02MC 02RD 02RO	1	0	1.6660888195	-219.0	-47.0	-218	-56	1
2.7	2015_May_26_1553	s	s	15	1	SIC	457	RC	1	1	02VD 02VO 02VC 02MD 09MO 02MC 02RD 02RO	1	0	2.06835699081	-134.0	-321.0	-128	-321	1
2.7	2015_May_26_1553	s	s	15	1	SIC	458	ABS	0	2	02VD 02VO 02VC 02MD 02MO 02MC 10RD 02RO	0	1	2.17691802979	None	None	None	None	1
2.7	2015_May_26_1553	s	s	15	1	SIC	459	ABS	0	1	02VD 02VO 02VC 02MD 02MO 02MC 02RD 10RO	0	1	3.73835897446	None	None	None	None	1
2.7	2015_May_26_1553	s	s	15	1	SIC	460	ABS	1	2	02VD 02VO 02VC 10MD 02MO 02MC 02RD 02RO	0	1	2.84790015221	None	None	None	None	1
2.7	2015_May_26_1553	s	s	15	1	SIC	461	ABS	1	0	02VD 02VO 02VC 02MD 02MO 10MC 02RD 02RO	0	1	3.38510513306	None	None	None	None	1
2.7	2015_May_26_1553	s	s	15	1	SIC	462	RC	1	2	02VD 02VO 02VC 09MD 02MO 02MC 02RD 02RO	1	0	1.12361502647	202.0	19.0	215	22	1
2.7	2015_May_26_1553	s	s	15	1	SIC	463	RC	1	0	02VD 02VO 02VC 02MD 02MO 09MC 02RD 02RO	1	0	3.10408997536	-163.0	-281.0	-171	-280	1
2.7	2015_May_26_1553	s	s	15	1	SIC	464	RC	0	1	02VD 02VO 02VC 02MD 02MO 02MC 02RD 09RO	1	0	3.50148320198	444.0	263.0	445	262	1
2.7	2015_May_26_1553	s	s	15	1	SIC	465	RC	1	2	02VD 02VO 02VC 09MD 02MO 02MC 02RD 02RO	1	0	1.17064118385	239.0	89.0	231	85	1
2.7	2015_May_26_1553	s	s	15	1	SIC	466	RC	0	2	02VD 02VO 02VC 02MD 02MO 02MC 09RD 02RO	0	1	2.87863707542	188.0	391.0	None	None	0
2.7	2015_May_26_1553	s	s	15	1	SIC	467	RC	2	2	09VD 02VO 02VC 02MD 02MO 02MC 02RD 02RO	1	0	2.56519603729	-531.0	131.0	-531	117	1
2.7	2015_May_26_1553	s	s	15	1	SIC	468	RC	1	1	02VD 02VO 02VC 02MD 09MO 02MC 02RD 02RO	1	0	1.03237104416	-118.0	140.0	-116	136	1
2.7	2015_May_26_1553	s	s	15	1	SIC	469	ABS	2	2	10VD 02VO 02VC 02MD 02MO 02MC 02RD 02RO	0	1	2.38882517815	None	None	None	None	1
2.7	2015_May_26_1553	s	s	15	1	SIC	470	ABS	0	1	02VD 02VO 02VC 02MD 02MO 02MC 02RD 10RO	0	1	2.61916399002	None	None	None	None	1
2.7	2015_May_26_1553	s	s	15	1	SIC	471	RC	0	1	02VD 02VO 02VC 02MD 02MO 02MC 02RD 09RO	0	1	4.0131688118	524.0	100.0	None	None	0
2.7	2015_May_26_1553	s	s	15	1	SIC	472	RC	2	1	02VD 09VO 02VC 02MD 02MO 02MC 02RD 02RO	1	0	1.82057499886	-340.0	300.0	-336	302	1
2.7	2015_May_26_1553	s	s	15	1	SIC	473	RC	2	0	02VD 02VO 09VC 02MD 02MO 02MC 02RD 02RO	1	0	1.56485486031	400.0	3.0	402	-2	1
2.7	2015_May_26_1553	s	s	15	1	SIC	474	ABS	1	0	02VD 02VO 02VC 02MD 02MO 10MC 02RD 02RO	0	1	2.8787689209	None	None	None	None	1
2.7	2015_May_26_1553	s	s	15	1	SIC	475	ABS	1	2	02VD 02VO 02VC 10MD 02MO 02MC 02RD 02RO	0	1	2.2594230175	None	None	None	None	1
2.7	2015_May_26_1553	s	s	15	1	SIC	476	ABS	0	2	02VD 02VO 02VC 02MD 02MO 02MC 10RD 02RO	0	1	2.83254694939	None	None	None	None	1
2.7	2015_May_26_1553	s	s	15	1	SIC	477	ABS	2	0	02VD 02VO 10VC 02MD 02MO 02MC 02RD 02RO	0	1	2.30158615112	None	None	None	None	1
2.7	2015_May_26_1553	s	s	15	1	SIC	478	RC	1	0	02VD 02VO 02VC 02MD 02MO 09MC 02RD 02RO	0	1	1.77400302887	-385.0	-261.0	None	None	0
2.7	2015_May_26_1553	s	s	15	1	SIC	479	ABS	2	1	02VD 10VO 02VC 02MD 02MO 02MC 02RD 02RO	0	1	2.24754905701	None	None	None	None	1
2.7	2015_May_26_1553	s	s	15	1	SIC	480	ABS	1	1	02VD 02VO 02VC 02MD 10MO 02MC 02RD 02RO	0	1	3.07171201706	None	None	None	None	1
