Version	Date	Stimuli	Method	Subject	Session	Condition	Trial	Target	Channel1	Channel2	Distractors	LMouseButton	RMouseButton	RT	TargetX	TargetY	ResponseX	ResponseY	Correct
2.7	2015_Jun_03_1010	s	s	17	3	Capacity	1	ABS	1	0	08VC 16MC	0	1	1.13791489601	None	None	None	None	1
2.7	2015_Jun_03_1010	s	s	17	3	Capacity	2	RC	1	0	08VC 15MC	1	0	2.77116012573	-162.0	169.0	-164	164	1
2.7	2015_Jun_03_1010	s	s	17	3	Capacity	3	RC	2	0	15VC 08MC	1	0	1.57012796402	-536.0	-320.0	-528	-320	1
2.7	2015_Jun_03_1010	s	s	17	3	Capacity	4	ABS	2	0	16VC 08MC	0	1	2.3299100399	None	None	None	None	1
2.7	2015_Jun_03_1010	s	s	17	3	Capacity	5	ABS	1	0	08VC 16MC	0	1	1.32941603661	None	None	None	None	1
2.7	2015_Jun_03_1010	s	s	17	3	Capacity	6	RC	1	0	08VC 15MC	1	0	1.27066612244	-304.0	-136.0	-301	-137	1
2.7	2015_Jun_03_1010	s	s	17	3	Capacity	7	ABS	2	0	16VC 08MC	0	1	8.14463496208	None	None	None	None	1
2.7	2015_Jun_03_1010	s	s	17	3	Capacity	8	RC	2	0	15VC 08MC	1	0	0.787955999374	431.0	66.0	431	60	1
2.7	2015_Jun_03_1010	s	s	17	3	Capacity	9	RC	1	0	08VC 15MC	1	0	1.99782896042	-382.0	-130.0	-380	-129	1
2.7	2015_Jun_03_1010	s	s	17	3	Capacity	10	RC	2	0	15VC 08MC	1	0	1.18804192543	367.0	120.0	375	115	1
2.7	2015_Jun_03_1010	s	s	17	3	Capacity	11	ABS	1	0	08VC 16MC	0	1	2.95105719566	None	None	None	None	1
2.7	2015_Jun_03_1010	s	s	17	3	Capacity	12	ABS	2	0	16VC 08MC	0	1	1.85912895203	None	None	None	None	1
2.7	2015_Jun_03_1010	s	s	17	3	Capacity	13	ABS	1	0	08VC 16MC	0	1	3.24422001839	None	None	None	None	1
2.7	2015_Jun_03_1010	s	s	17	3	Capacity	14	RC	2	0	15VC 08MC	1	0	0.867028951645	-521.0	20.0	-523	22	1
2.7	2015_Jun_03_1010	s	s	17	3	Capacity	15	RC	1	0	08VC 15MC	1	0	1.64215683937	-499.0	-396.0	-495	-395	1
2.7	2015_Jun_03_1010	s	s	17	3	Capacity	16	ABS	2	0	16VC 08MC	0	1	2.12407898903	None	None	None	None	1
2.7	2015_Jun_03_1010	s	s	17	3	Capacity	17	ABS	1	0	08VC 16MC	0	1	2.5383541584	None	None	None	None	1
2.7	2015_Jun_03_1010	s	s	17	3	Capacity	18	RC	1	0	08VC 15MC	1	0	0.900075912476	-70.0	-292.0	-77	-294	1
2.7	2015_Jun_03_1010	s	s	17	3	Capacity	19	ABS	2	0	16VC 08MC	0	1	2.20053195953	None	None	None	None	1
2.7	2015_Jun_03_1010	s	s	17	3	Capacity	20	RC	2	0	15VC 08MC	1	0	1.73579907417	-224.0	-230.0	-227	-233	1
2.7	2015_Jun_03_1010	s	s	17	3	Capacity	21	RC	1	0	08VC 15MC	1	0	0.870349884033	-397.0	-79.0	-396	-75	1
2.7	2015_Jun_03_1010	s	s	17	3	Capacity	22	ABS	1	0	08VC 16MC	0	1	2.29462599754	None	None	None	None	1
2.7	2015_Jun_03_1010	s	s	17	3	Capacity	23	RC	2	0	15VC 08MC	1	0	0.787952184677	126.0	-23.0	120	-21	1
2.7	2015_Jun_03_1010	s	s	17	3	Capacity	24	ABS	2	0	16VC 08MC	0	1	1.93871378899	None	None	None	None	1
2.7	2015_Jun_03_1010	s	s	17	3	Capacity	25	RC	1	0	08VC 15MC	1	0	3.56320500374	154.0	-284.0	152	-281	1
2.7	2015_Jun_03_1010	s	s	17	3	Capacity	26	ABS	1	0	08VC 16MC	0	1	2.7627928257	None	None	None	None	1
2.7	2015_Jun_03_1010	s	s	17	3	Capacity	27	ABS	2	0	16VC 08MC	0	1	2.91309809685	None	None	None	None	1
2.7	2015_Jun_03_1010	s	s	17	3	Capacity	28	RC	2	0	15VC 08MC	1	0	1.90357398987	-163.0	-360.0	-174	-356	1
2.7	2015_Jun_03_1010	s	s	17	3	Capacity	29	ABS	1	0	08VC 16MC	0	1	2.32510685921	None	None	None	None	1
2.7	2015_Jun_03_1010	s	s	17	3	Capacity	30	RC	2	0	15VC 08MC	0	1	2.41902184486	-136.0	-372.0	None	None	0
2.7	2015_Jun_03_1010	s	s	17	3	Capacity	31	ABS	2	0	16VC 08MC	0	1	2.12980604172	None	None	None	None	1
2.7	2015_Jun_03_1010	s	s	17	3	Capacity	32	RC	1	0	08VC 15MC	1	0	1.07051491737	-363.0	330.0	-354	334	1
2.7	2015_Jun_03_1010	s	s	17	3	Capacity	33	ABS	2	0	16VC 08MC	0	1	1.30317187309	None	None	None	None	1
2.7	2015_Jun_03_1010	s	s	17	3	Capacity	34	ABS	1	0	08VC 16MC	0	1	1.93778419495	None	None	None	None	1
2.7	2015_Jun_03_1010	s	s	17	3	Capacity	35	RC	2	0	15VC 08MC	1	0	0.854994058609	-150.0	123.0	-146	121	1
2.7	2015_Jun_03_1010	s	s	17	3	Capacity	36	RC	1	0	08VC 15MC	1	0	1.72518992424	517.0	-238.0	518	-238	1
2.7	2015_Jun_03_1010	s	s	17	3	Capacity	37	ABS	1	0	08VC 16MC	0	1	1.72716188431	None	None	None	None	1
2.7	2015_Jun_03_1010	s	s	17	3	Capacity	38	RC	2	0	15VC 08MC	1	0	0.665555000305	418.0	165.0	423	171	1
2.7	2015_Jun_03_1010	s	s	17	3	Capacity	39	ABS	2	0	16VC 08MC	0	1	1.60650205612	None	None	None	None	1
2.7	2015_Jun_03_1010	s	s	17	3	Capacity	40	RC	1	0	08VC 15MC	1	0	1.06806111336	-506.0	-74.0	-508	-75	1
2.7	2015_Jun_03_1010	s	s	17	3	Capacity	41	ABS	1	0	08VC 16MC	0	1	2.23564720154	None	None	None	None	1
2.7	2015_Jun_03_1010	s	s	17	3	Capacity	42	RC	1	0	08VC 15MC	1	0	0.93842291832	493.0	66.0	501	75	1
2.7	2015_Jun_03_1010	s	s	17	3	Capacity	43	RC	2	0	15VC 08MC	1	0	0.923516988754	73.0	226.0	74	221	1
2.7	2015_Jun_03_1010	s	s	17	3	Capacity	44	ABS	2	0	16VC 08MC	0	1	2.18603205681	None	None	None	None	1
2.7	2015_Jun_03_1010	s	s	17	3	Capacity	45	ABS	2	0	16VC 08MC	0	1	2.71571779251	None	None	None	None	1
2.7	2015_Jun_03_1010	s	s	17	3	Capacity	46	RC	1	0	08VC 15MC	1	0	2.62421107292	-485.0	-88.0	-489	-95	1
2.7	2015_Jun_03_1010	s	s	17	3	Capacity	47	RC	2	0	15VC 08MC	1	0	0.655037164688	495.0	376.0	500	380	1
2.7	2015_Jun_03_1010	s	s	17	3	Capacity	48	ABS	1	0	08VC 16MC	0	1	1.79648089409	None	None	None	None	1
2.7	2015_Jun_03_1010	s	s	17	3	Capacity	49	ABS	2	0	16VC 08MC	0	1	1.94723892212	None	None	None	None	1
2.7	2015_Jun_03_1010	s	s	17	3	Capacity	50	RC	2	0	15VC 08MC	1	0	1.72394800186	-345.0	-399.0	-351	-399	1
2.7	2015_Jun_03_1010	s	s	17	3	Capacity	51	ABS	1	0	08VC 16MC	0	1	1.1293721199	None	None	None	None	1
2.7	2015_Jun_03_1010	s	s	17	3	Capacity	52	RC	1	0	08VC 15MC	1	0	0.773044109344	435.0	344.0	436	331	1
2.7	2015_Jun_03_1010	s	s	17	3	Capacity	53	RC	2	0	15VC 08MC	1	0	0.870347976685	-33.0	-63.0	-36	-58	1
2.7	2015_Jun_03_1010	s	s	17	3	Capacity	54	ABS	1	0	08VC 16MC	0	1	1.74760508537	None	None	None	None	1
2.7	2015_Jun_03_1010	s	s	17	3	Capacity	55	RC	1	0	08VC 15MC	1	0	1.52553582191	357.0	-373.0	359	-372	1
2.7	2015_Jun_03_1010	s	s	17	3	Capacity	56	ABS	2	0	16VC 08MC	0	1	1.3125629425	None	None	None	None	1
2.7	2015_Jun_03_1010	s	s	17	3	Capacity	57	RC	1	0	08VC 15MC	1	0	0.776237010956	456.0	-156.0	460	-154	1
2.7	2015_Jun_03_1010	s	s	17	3	Capacity	58	RC	2	0	15VC 08MC	1	0	0.957129955292	216.0	-261.0	218	-259	1
2.7	2015_Jun_03_1010	s	s	17	3	Capacity	59	ABS	2	0	16VC 08MC	0	1	1.37066888809	None	None	None	None	1
2.7	2015_Jun_03_1010	s	s	17	3	Capacity	60	ABS	1	0	08VC 16MC	0	1	1.67090797424	None	None	None	None	1
2.7	2015_Jun_03_1010	s	s	17	3	Capacity	61	RC	2	0	15VC 08MC	1	0	0.658634901047	-135.0	-52.0	-137	-52	1
2.7	2015_Jun_03_1010	s	s	17	3	Capacity	62	ABS	1	0	08VC 16MC	0	1	0.988127946854	None	None	None	None	1
2.7	2015_Jun_03_1010	s	s	17	3	Capacity	63	RC	1	0	08VC 15MC	1	0	0.817700862885	-329.0	87.0	-331	82	1
2.7	2015_Jun_03_1010	s	s	17	3	Capacity	64	ABS	2	0	16VC 08MC	0	1	1.65386104584	None	None	None	None	1
2.7	2015_Jun_03_1010	s	s	17	3	Capacity	1	ABS	0	1	08RD 16RO	0	1	3.53918981552	None	None	None	None	1
2.7	2015_Jun_03_1010	s	s	17	3	Capacity	2	RC	0	1	08RD 15RO	1	0	1.40605187416	-497.0	169.0	-502	167	1
2.7	2015_Jun_03_1010	s	s	17	3	Capacity	3	RC	0	2	15RD 08RO	0	1	2.60950899124	293.0	50.0	None	None	0
2.7	2015_Jun_03_1010	s	s	17	3	Capacity	4	ABS	0	2	16RD 08RO	0	1	2.75741410255	None	None	None	None	1
2.7	2015_Jun_03_1010	s	s	17	3	Capacity	5	RC	0	2	15RD 08RO	1	0	1.94791388512	433.0	-362.0	435	-361	1
2.7	2015_Jun_03_1010	s	s	17	3	Capacity	6	ABS	0	1	08RD 16RO	0	1	4.70761299133	None	None	None	None	1
2.7	2015_Jun_03_1010	s	s	17	3	Capacity	7	RC	0	1	08RD 15RO	0	1	5.16665410995	105.0	390.0	None	None	0
2.7	2015_Jun_03_1010	s	s	17	3	Capacity	8	ABS	0	2	16RD 08RO	0	1	2.21211099625	None	None	None	None	1
2.7	2015_Jun_03_1010	s	s	17	3	Capacity	9	ABS	0	1	08RD 16RO	0	1	4.22509503365	None	None	None	None	1
2.7	2015_Jun_03_1010	s	s	17	3	Capacity	10	RC	0	1	08RD 15RO	1	0	5.53972291946	-347.0	308.0	-351	317	1
2.7	2015_Jun_03_1010	s	s	17	3	Capacity	11	ABS	0	2	16RD 08RO	0	1	3.08324193954	None	None	None	None	1
2.7	2015_Jun_03_1010	s	s	17	3	Capacity	12	RC	0	2	15RD 08RO	1	0	1.3232281208	-60.0	-45.0	-66	-47	1
2.7	2015_Jun_03_1010	s	s	17	3	Capacity	13	ABS	0	1	08RD 16RO	0	1	5.10791778564	None	None	None	None	1
2.7	2015_Jun_03_1010	s	s	17	3	Capacity	14	ABS	0	2	16RD 08RO	0	1	3.05976295471	None	None	None	None	1
2.7	2015_Jun_03_1010	s	s	17	3	Capacity	15	RC	0	2	15RD 08RO	1	0	0.764434099197	-48.0	65.0	-52	58	1
2.7	2015_Jun_03_1010	s	s	17	3	Capacity	16	RC	0	1	08RD 15RO	1	0	3.52510213852	423.0	318.0	425	325	1
2.7	2015_Jun_03_1010	s	s	17	3	Capacity	17	ABS	0	1	08RD 16RO	0	1	7.37435603142	None	None	None	None	1
2.7	2015_Jun_03_1010	s	s	17	3	Capacity	18	RC	0	1	08RD 15RO	1	0	3.46035504341	504.0	219.0	512	220	1
2.7	2015_Jun_03_1010	s	s	17	3	Capacity	19	RC	0	2	15RD 08RO	1	0	1.57660889626	-371.0	-65.0	-365	-63	1
2.7	2015_Jun_03_1010	s	s	17	3	Capacity	20	ABS	0	2	16RD 08RO	0	1	2.44761705399	None	None	None	None	1
2.7	2015_Jun_03_1010	s	s	17	3	Capacity	21	ABS	0	2	16RD 08RO	0	1	2.64202904701	None	None	None	None	1
2.7	2015_Jun_03_1010	s	s	17	3	Capacity	22	ABS	0	1	08RD 16RO	0	1	3.74902200699	None	None	None	None	1
2.7	2015_Jun_03_1010	s	s	17	3	Capacity	23	RC	0	1	08RD 15RO	1	0	3.7728099823	345.0	-10.0	350	-10	1
2.7	2015_Jun_03_1010	s	s	17	3	Capacity	24	RC	0	2	15RD 08RO	0	1	3.87945199013	326.0	-153.0	None	None	0
2.7	2015_Jun_03_1010	s	s	17	3	Capacity	25	ABS	0	1	08RD 16RO	0	1	4.90274882317	None	None	None	None	1
2.7	2015_Jun_03_1010	s	s	17	3	Capacity	26	RC	0	2	15RD 08RO	1	0	1.37101221085	-252.0	277.0	-258	272	1
2.7	2015_Jun_03_1010	s	s	17	3	Capacity	27	RC	0	1	08RD 15RO	1	0	0.850582122803	-67.0	265.0	-58	263	1
2.7	2015_Jun_03_1010	s	s	17	3	Capacity	28	ABS	0	2	16RD 08RO	0	1	2.9277639389	None	None	None	None	1
2.7	2015_Jun_03_1010	s	s	17	3	Capacity	29	RC	0	1	08RD 15RO	1	0	3.63649487495	406.0	53.0	408	52	1
2.7	2015_Jun_03_1010	s	s	17	3	Capacity	30	ABS	0	1	08RD 16RO	0	1	4.90768885612	None	None	None	None	1
2.7	2015_Jun_03_1010	s	s	17	3	Capacity	31	RC	0	2	15RD 08RO	1	0	1.49144101143	76.0	-312.0	74	-313	1
2.7	2015_Jun_03_1010	s	s	17	3	Capacity	32	ABS	0	2	16RD 08RO	0	1	4.04850482941	None	None	None	None	1
2.7	2015_Jun_03_1010	s	s	17	3	Capacity	33	ABS	0	2	16RD 08RO	0	1	4.0956351757	None	None	None	None	1
2.7	2015_Jun_03_1010	s	s	17	3	Capacity	34	RC	0	1	08RD 15RO	1	0	1.47069501877	-335.0	241.0	-342	244	1
2.7	2015_Jun_03_1010	s	s	17	3	Capacity	35	RC	0	2	15RD 08RO	1	0	1.92415499687	318.0	-91.0	311	-92	1
2.7	2015_Jun_03_1010	s	s	17	3	Capacity	36	ABS	0	1	08RD 16RO	0	1	5.64475011826	None	None	None	None	1
2.7	2015_Jun_03_1010	s	s	17	3	Capacity	37	RC	0	1	08RD 15RO	1	0	2.14167284966	-422.0	-1.0	-420	-5	1
2.7	2015_Jun_03_1010	s	s	17	3	Capacity	38	ABS	0	1	08RD 16RO	0	1	4.54866409302	None	None	None	None	1
2.7	2015_Jun_03_1010	s	s	17	3	Capacity	39	RC	0	2	15RD 08RO	1	0	2.36524605751	-459.0	-259.0	-460	-258	1
2.7	2015_Jun_03_1010	s	s	17	3	Capacity	40	ABS	0	2	16RD 08RO	0	1	3.47888994217	None	None	None	None	1
2.7	2015_Jun_03_1010	s	s	17	3	Capacity	41	ABS	0	2	16RD 08RO	0	1	3.66004610062	None	None	None	None	1
2.7	2015_Jun_03_1010	s	s	17	3	Capacity	42	RC	0	2	15RD 08RO	1	0	0.700129032135	33.0	182.0	35	182	1
2.7	2015_Jun_03_1010	s	s	17	3	Capacity	43	RC	0	1	08RD 15RO	1	0	1.62376499176	-371.0	-9.0	-369	-5	1
2.7	2015_Jun_03_1010	s	s	17	3	Capacity	44	ABS	0	1	08RD 16RO	0	1	5.30468606949	None	None	None	None	1
2.7	2015_Jun_03_1010	s	s	17	3	Capacity	45	RC	0	1	08RD 15RO	1	0	2.36240005493	-347.0	-404.0	-352	-401	1
2.7	2015_Jun_03_1010	s	s	17	3	Capacity	46	ABS	0	2	16RD 08RO	0	1	3.33716392517	None	None	None	None	1
2.7	2015_Jun_03_1010	s	s	17	3	Capacity	47	RC	0	2	15RD 08RO	1	0	0.925858974457	-216.0	-266.0	-207	-264	1
2.7	2015_Jun_03_1010	s	s	17	3	Capacity	48	ABS	0	1	08RD 16RO	0	1	4.17546987534	None	None	None	None	1
2.7	2015_Jun_03_1010	s	s	17	3	Capacity	49	ABS	0	1	08RD 16RO	0	1	5.33151984215	None	None	None	None	1
2.7	2015_Jun_03_1010	s	s	17	3	Capacity	50	ABS	0	2	16RD 08RO	0	1	2.659542799	None	None	None	None	1
2.7	2015_Jun_03_1010	s	s	17	3	Capacity	51	RC	0	1	08RD 15RO	1	0	3.53728318214	-265.0	-262.0	-271	-268	1
2.7	2015_Jun_03_1010	s	s	17	3	Capacity	52	RC	0	2	15RD 08RO	1	0	2.35346198082	-39.0	347.0	-45	347	1
2.7	2015_Jun_03_1010	s	s	17	3	Capacity	53	RC	0	2	15RD 08RO	1	0	3.86704301834	-323.0	303.0	-321	312	1
2.7	2015_Jun_03_1010	s	s	17	3	Capacity	54	RC	0	1	08RD 15RO	1	0	0.714807987213	-125.0	101.0	-136	110	1
2.7	2015_Jun_03_1010	s	s	17	3	Capacity	55	ABS	0	2	16RD 08RO	0	1	3.39590907097	None	None	None	None	1
2.7	2015_Jun_03_1010	s	s	17	3	Capacity	56	ABS	0	1	08RD 16RO	0	1	4.48412585258	None	None	None	None	1
2.7	2015_Jun_03_1010	s	s	17	3	Capacity	57	RC	0	1	08RD 15RO	1	0	1.14109015465	29.0	-243.0	26	-245	1
2.7	2015_Jun_03_1010	s	s	17	3	Capacity	58	RC	0	2	15RD 08RO	1	0	1.31350207329	-342.0	159.0	-333	165	1
2.7	2015_Jun_03_1010	s	s	17	3	Capacity	59	ABS	0	2	16RD 08RO	0	1	7.83858704567	None	None	None	None	1
2.7	2015_Jun_03_1010	s	s	17	3	Capacity	60	ABS	0	1	08RD 16RO	0	1	5.80930280685	None	None	None	None	1
2.7	2015_Jun_03_1010	s	s	17	3	Capacity	61	RC	0	2	15RD 08RO	1	0	2.9951710701	353.0	-119.0	358	-116	1
2.7	2015_Jun_03_1010	s	s	17	3	Capacity	62	ABS	0	1	08RD 16RO	0	1	5.93172311783	None	None	None	None	1
2.7	2015_Jun_03_1010	s	s	17	3	Capacity	63	ABS	0	2	16RD 08RO	0	1	4.54282712936	None	None	None	None	1
2.7	2015_Jun_03_1010	s	s	17	3	Capacity	64	RC	0	1	08RD 15RO	1	0	1.18822097778	-429.0	110.0	-435	110	1
2.7	2015_Jun_03_1010	s	s	17	3	SIC	1	ABS	1	1	02VD 02VO 02VC 02MD 10MO 02MC 02RD 02RO	0	1	3.10664892197	None	None	None	None	1
2.7	2015_Jun_03_1010	s	s	17	3	SIC	2	RC	0	1	02VD 02VO 02VC 02MD 02MO 02MC 02RD 09RO	1	0	2.10619711876	108.0	-331.0	105	-336	1
2.7	2015_Jun_03_1010	s	s	17	3	SIC	3	RC	1	2	02VD 02VO 02VC 09MD 02MO 02MC 02RD 02RO	1	0	1.57662010193	-210.0	-359.0	-210	-360	1
2.7	2015_Jun_03_1010	s	s	17	3	SIC	4	RC	1	0	02VD 02VO 02VC 02MD 02MO 09MC 02RD 02RO	1	0	2.93630290031	361.0	-81.0	364	-72	1
2.7	2015_Jun_03_1010	s	s	17	3	SIC	5	ABS	2	0	02VD 02VO 10VC 02MD 02MO 02MC 02RD 02RO	0	1	2.71046590805	None	None	None	None	1
2.7	2015_Jun_03_1010	s	s	17	3	SIC	6	RC	1	1	02VD 02VO 02VC 02MD 09MO 02MC 02RD 02RO	1	0	1.36174893379	253.0	-134.0	251	-129	1
2.7	2015_Jun_03_1010	s	s	17	3	SIC	7	ABS	0	2	02VD 02VO 02VC 02MD 02MO 02MC 10RD 02RO	0	1	2.2240049839	None	None	None	None	1
2.7	2015_Jun_03_1010	s	s	17	3	SIC	8	ABS	1	0	02VD 02VO 02VC 02MD 02MO 10MC 02RD 02RO	0	1	1.83566999435	None	None	None	None	1
2.7	2015_Jun_03_1010	s	s	17	3	SIC	9	ABS	2	1	02VD 10VO 02VC 02MD 02MO 02MC 02RD 02RO	0	1	1.81782793999	None	None	None	None	1
2.7	2015_Jun_03_1010	s	s	17	3	SIC	10	RC	2	2	09VD 02VO 02VC 02MD 02MO 02MC 02RD 02RO	1	0	2.28286099434	-295.0	391.0	-288	394	1
2.7	2015_Jun_03_1010	s	s	17	3	SIC	11	ABS	1	2	02VD 02VO 02VC 10MD 02MO 02MC 02RD 02RO	0	1	3.53051781654	None	None	None	None	1
2.7	2015_Jun_03_1010	s	s	17	3	SIC	12	RC	2	1	02VD 09VO 02VC 02MD 02MO 02MC 02RD 02RO	1	0	0.819394826889	200.0	12.0	189	13	1
2.7	2015_Jun_03_1010	s	s	17	3	SIC	13	ABS	2	2	10VD 02VO 02VC 02MD 02MO 02MC 02RD 02RO	0	1	2.5299282074	None	None	None	None	1
2.7	2015_Jun_03_1010	s	s	17	3	SIC	14	RC	2	0	02VD 02VO 09VC 02MD 02MO 02MC 02RD 02RO	1	0	1.2235481739	-438.0	317.0	-445	314	1
2.7	2015_Jun_03_1010	s	s	17	3	SIC	15	ABS	0	1	02VD 02VO 02VC 02MD 02MO 02MC 02RD 10RO	0	1	3.58316588402	None	None	None	None	1
2.7	2015_Jun_03_1010	s	s	17	3	SIC	16	RC	0	2	02VD 02VO 02VC 02MD 02MO 02MC 09RD 02RO	1	0	1.89439415932	455.0	-161.0	455	-164	1
2.7	2015_Jun_03_1010	s	s	17	3	SIC	17	ABS	0	2	02VD 02VO 02VC 02MD 02MO 02MC 10RD 02RO	0	1	2.54542708397	None	None	None	None	1
2.7	2015_Jun_03_1010	s	s	17	3	SIC	18	ABS	2	2	10VD 02VO 02VC 02MD 02MO 02MC 02RD 02RO	0	1	1.41772699356	None	None	None	None	1
2.7	2015_Jun_03_1010	s	s	17	3	SIC	19	ABS	2	1	02VD 10VO 02VC 02MD 02MO 02MC 02RD 02RO	0	1	1.75686311722	None	None	None	None	1
2.7	2015_Jun_03_1010	s	s	17	3	SIC	20	ABS	1	2	02VD 02VO 02VC 10MD 02MO 02MC 02RD 02RO	0	1	2.20039820671	None	None	None	None	1
2.7	2015_Jun_03_1010	s	s	17	3	SIC	21	RC	0	1	02VD 02VO 02VC 02MD 02MO 02MC 02RD 09RO	1	0	4.778247118	-540.0	274.0	-545	276	1
2.7	2015_Jun_03_1010	s	s	17	3	SIC	22	ABS	0	1	02VD 02VO 02VC 02MD 02MO 02MC 02RD 10RO	0	1	2.38493800163	None	None	None	None	1
2.7	2015_Jun_03_1010	s	s	17	3	SIC	23	RC	1	0	02VD 02VO 02VC 02MD 02MO 09MC 02RD 02RO	1	0	1.34117388725	-355.0	-1.0	-340	5	1
2.7	2015_Jun_03_1010	s	s	17	3	SIC	24	RC	0	2	02VD 02VO 02VC 02MD 02MO 02MC 09RD 02RO	1	0	1.17679405212	-179.0	-211.0	-178	-205	1
2.7	2015_Jun_03_1010	s	s	17	3	SIC	25	ABS	1	1	02VD 02VO 02VC 02MD 10MO 02MC 02RD 02RO	0	1	2.28321290016	None	None	None	None	1
2.7	2015_Jun_03_1010	s	s	17	3	SIC	26	RC	2	1	02VD 09VO 02VC 02MD 02MO 02MC 02RD 02RO	1	0	1.12656998634	110.0	367.0	110	366	1
2.7	2015_Jun_03_1010	s	s	17	3	SIC	27	RC	2	0	02VD 02VO 09VC 02MD 02MO 02MC 02RD 02RO	1	0	0.817867040634	-350.0	116.0	-353	117	1
2.7	2015_Jun_03_1010	s	s	17	3	SIC	28	RC	1	2	02VD 02VO 02VC 09MD 02MO 02MC 02RD 02RO	1	0	1.14922618866	201.0	-164.0	203	-165	1
2.7	2015_Jun_03_1010	s	s	17	3	SIC	29	ABS	2	0	02VD 02VO 10VC 02MD 02MO 02MC 02RD 02RO	0	1	3.7496919632	None	None	None	None	1
2.7	2015_Jun_03_1010	s	s	17	3	SIC	30	RC	2	2	09VD 02VO 02VC 02MD 02MO 02MC 02RD 02RO	1	0	1.07037806511	-293.0	324.0	-297	325	1
2.7	2015_Jun_03_1010	s	s	17	3	SIC	31	ABS	1	0	02VD 02VO 02VC 02MD 02MO 10MC 02RD 02RO	0	1	2.85579609871	None	None	None	None	1
2.7	2015_Jun_03_1010	s	s	17	3	SIC	32	RC	1	1	02VD 02VO 02VC 02MD 09MO 02MC 02RD 02RO	1	0	0.749058008194	-108.0	183.0	-111	181	1
2.7	2015_Jun_03_1010	s	s	17	3	SIC	33	ABS	1	0	02VD 02VO 02VC 02MD 02MO 10MC 02RD 02RO	0	1	4.74294614792	None	None	None	None	1
2.7	2015_Jun_03_1010	s	s	17	3	SIC	34	ABS	2	2	10VD 02VO 02VC 02MD 02MO 02MC 02RD 02RO	0	1	2.37148118019	None	None	None	None	1
2.7	2015_Jun_03_1010	s	s	17	3	SIC	35	RC	1	2	02VD 02VO 02VC 09MD 02MO 02MC 02RD 02RO	1	0	0.964594841003	292.0	382.0	295	380	1
2.7	2015_Jun_03_1010	s	s	17	3	SIC	36	ABS	2	0	02VD 02VO 10VC 02MD 02MO 02MC 02RD 02RO	0	1	3.5894818306	None	None	None	None	1
2.7	2015_Jun_03_1010	s	s	17	3	SIC	37	RC	1	0	02VD 02VO 02VC 02MD 02MO 09MC 02RD 02RO	1	0	1.27063107491	-500.0	188.0	-501	186	1
2.7	2015_Jun_03_1010	s	s	17	3	SIC	38	RC	0	2	02VD 02VO 02VC 02MD 02MO 02MC 09RD 02RO	1	0	0.870384931564	41.0	-141.0	49	-147	1
2.7	2015_Jun_03_1010	s	s	17	3	SIC	39	RC	2	2	09VD 02VO 02VC 02MD 02MO 02MC 02RD 02RO	1	0	1.24426198006	119.0	-213.0	114	-209	1
2.7	2015_Jun_03_1010	s	s	17	3	SIC	40	RC	2	1	02VD 09VO 02VC 02MD 02MO 02MC 02RD 02RO	1	0	1.62372303009	525.0	-322.0	536	-318	1
2.7	2015_Jun_03_1010	s	s	17	3	SIC	41	RC	1	1	02VD 02VO 02VC 02MD 09MO 02MC 02RD 02RO	1	0	1.88264989853	-505.0	-179.0	-511	-185	1
2.7	2015_Jun_03_1010	s	s	17	3	SIC	42	ABS	1	1	02VD 02VO 02VC 02MD 10MO 02MC 02RD 02RO	0	1	2.53730607033	None	None	None	None	1
2.7	2015_Jun_03_1010	s	s	17	3	SIC	43	ABS	1	2	02VD 02VO 02VC 10MD 02MO 02MC 02RD 02RO	0	1	1.74170184135	None	None	None	None	1
2.7	2015_Jun_03_1010	s	s	17	3	SIC	44	ABS	0	1	02VD 02VO 02VC 02MD 02MO 02MC 02RD 10RO	0	1	4.66906094551	None	None	None	None	1
2.7	2015_Jun_03_1010	s	s	17	3	SIC	45	RC	0	1	02VD 02VO 02VC 02MD 02MO 02MC 02RD 09RO	1	0	2.1736869812	-53.0	-163.0	-69	-154	1
2.7	2015_Jun_03_1010	s	s	17	3	SIC	46	RC	2	0	02VD 02VO 09VC 02MD 02MO 02MC 02RD 02RO	1	0	1.80715489388	-507.0	235.0	-503	238	1
2.7	2015_Jun_03_1010	s	s	17	3	SIC	47	ABS	0	2	02VD 02VO 02VC 02MD 02MO 02MC 10RD 02RO	0	1	2.29184412956	None	None	None	None	1
2.7	2015_Jun_03_1010	s	s	17	3	SIC	48	ABS	2	1	02VD 10VO 02VC 02MD 02MO 02MC 02RD 02RO	0	1	2.11440706253	None	None	None	None	1
2.7	2015_Jun_03_1010	s	s	17	3	SIC	49	RC	1	2	02VD 02VO 02VC 09MD 02MO 02MC 02RD 02RO	1	0	1.16465783119	311.0	-170.0	301	-168	1
2.7	2015_Jun_03_1010	s	s	17	3	SIC	50	RC	2	2	09VD 02VO 02VC 02MD 02MO 02MC 02RD 02RO	1	0	1.59195804596	64.0	381.0	67	383	1
2.7	2015_Jun_03_1010	s	s	17	3	SIC	51	ABS	0	1	02VD 02VO 02VC 02MD 02MO 02MC 02RD 10RO	0	1	3.24801802635	None	None	None	None	1
2.7	2015_Jun_03_1010	s	s	17	3	SIC	52	ABS	2	2	10VD 02VO 02VC 02MD 02MO 02MC 02RD 02RO	0	1	2.71834301949	None	None	None	None	1
2.7	2015_Jun_03_1010	s	s	17	3	SIC	53	RC	2	0	02VD 02VO 09VC 02MD 02MO 02MC 02RD 02RO	1	0	0.964468955994	-185.0	220.0	-190	229	1
2.7	2015_Jun_03_1010	s	s	17	3	SIC	54	ABS	1	2	02VD 02VO 02VC 10MD 02MO 02MC 02RD 02RO	0	1	2.63324809074	None	None	None	None	1
2.7	2015_Jun_03_1010	s	s	17	3	SIC	55	RC	1	0	02VD 02VO 02VC 02MD 02MO 09MC 02RD 02RO	1	0	2.11488199234	242.0	-235.0	242	-230	1
2.7	2015_Jun_03_1010	s	s	17	3	SIC	56	ABS	0	2	02VD 02VO 02VC 02MD 02MO 02MC 10RD 02RO	0	1	3.10332989693	None	None	None	None	1
2.7	2015_Jun_03_1010	s	s	17	3	SIC	57	ABS	1	0	02VD 02VO 02VC 02MD 02MO 10MC 02RD 02RO	0	1	3.57755303383	None	None	None	None	1
2.7	2015_Jun_03_1010	s	s	17	3	SIC	58	RC	1	1	02VD 02VO 02VC 02MD 09MO 02MC 02RD 02RO	1	0	0.834981918335	-168.0	178.0	-175	187	1
2.7	2015_Jun_03_1010	s	s	17	3	SIC	59	ABS	2	1	02VD 10VO 02VC 02MD 02MO 02MC 02RD 02RO	0	1	6.31676506996	None	None	None	None	1
2.7	2015_Jun_03_1010	s	s	17	3	SIC	60	RC	2	1	02VD 09VO 02VC 02MD 02MO 02MC 02RD 02RO	1	0	0.682011842728	79.0	-53.0	77	-66	1
2.7	2015_Jun_03_1010	s	s	17	3	SIC	61	ABS	2	0	02VD 02VO 10VC 02MD 02MO 02MC 02RD 02RO	0	1	1.99601817131	None	None	None	None	1
2.7	2015_Jun_03_1010	s	s	17	3	SIC	62	RC	0	1	02VD 02VO 02VC 02MD 02MO 02MC 02RD 09RO	1	0	3.20464897156	352.0	-19.0	345	-14	1
2.7	2015_Jun_03_1010	s	s	17	3	SIC	63	ABS	1	1	02VD 02VO 02VC 02MD 10MO 02MC 02RD 02RO	0	1	2.4548561573	None	None	None	None	1
2.7	2015_Jun_03_1010	s	s	17	3	SIC	64	RC	0	2	02VD 02VO 02VC 02MD 02MO 02MC 09RD 02RO	1	0	0.882172822952	-243.0	247.0	-233	251	1
2.7	2015_Jun_03_1010	s	s	17	3	SIC	65	ABS	1	1	02VD 02VO 02VC 02MD 10MO 02MC 02RD 02RO	0	1	2.42137098312	None	None	None	None	1
2.7	2015_Jun_03_1010	s	s	17	3	SIC	66	ABS	2	0	02VD 02VO 10VC 02MD 02MO 02MC 02RD 02RO	0	1	2.83642697334	None	None	None	None	1
2.7	2015_Jun_03_1010	s	s	17	3	SIC	67	RC	0	2	02VD 02VO 02VC 02MD 02MO 02MC 09RD 02RO	1	0	1.44712305069	302.0	-177.0	299	-180	1
2.7	2015_Jun_03_1010	s	s	17	3	SIC	68	RC	2	0	02VD 02VO 09VC 02MD 02MO 02MC 02RD 02RO	1	0	1.89447808266	530.0	319.0	540	328	1
2.7	2015_Jun_03_1010	s	s	17	3	SIC	69	ABS	0	1	02VD 02VO 02VC 02MD 02MO 02MC 02RD 10RO	0	1	2.78549480438	None	None	None	None	1
2.7	2015_Jun_03_1010	s	s	17	3	SIC	70	RC	1	0	02VD 02VO 02VC 02MD 02MO 09MC 02RD 02RO	0	1	1.80030703545	-360.0	-253.0	None	None	0
2.7	2015_Jun_03_1010	s	s	17	3	SIC	71	ABS	1	2	02VD 02VO 02VC 10MD 02MO 02MC 02RD 02RO	0	1	2.48015594482	None	None	None	None	1
2.7	2015_Jun_03_1010	s	s	17	3	SIC	72	ABS	1	0	02VD 02VO 02VC 02MD 02MO 10MC 02RD 02RO	0	1	2.80913591385	None	None	None	None	1
2.7	2015_Jun_03_1010	s	s	17	3	SIC	73	RC	0	1	02VD 02VO 02VC 02MD 02MO 02MC 02RD 09RO	1	0	2.6595480442	373.0	-187.0	366	-186	1
2.7	2015_Jun_03_1010	s	s	17	3	SIC	74	RC	2	2	09VD 02VO 02VC 02MD 02MO 02MC 02RD 02RO	1	0	1.59494996071	259.0	99.0	263	99	1
2.7	2015_Jun_03_1010	s	s	17	3	SIC	75	ABS	0	2	02VD 02VO 02VC 02MD 02MO 02MC 10RD 02RO	0	1	2.33687186241	None	None	None	None	1
2.7	2015_Jun_03_1010	s	s	17	3	SIC	76	ABS	2	2	10VD 02VO 02VC 02MD 02MO 02MC 02RD 02RO	0	1	3.53045296669	None	None	None	None	1
2.7	2015_Jun_03_1010	s	s	17	3	SIC	77	ABS	2	1	02VD 10VO 02VC 02MD 02MO 02MC 02RD 02RO	0	1	2.84316587448	None	None	None	None	1
2.7	2015_Jun_03_1010	s	s	17	3	SIC	78	RC	1	1	02VD 02VO 02VC 02MD 09MO 02MC 02RD 02RO	1	0	2.79808092117	361.0	-219.0	368	-222	1
2.7	2015_Jun_03_1010	s	s	17	3	SIC	79	RC	1	2	02VD 02VO 02VC 09MD 02MO 02MC 02RD 02RO	1	0	1.99451899529	-252.0	-272.0	-256	-264	1
2.7	2015_Jun_03_1010	s	s	17	3	SIC	80	RC	2	1	02VD 09VO 02VC 02MD 02MO 02MC 02RD 02RO	1	0	0.961886882782	-4.0	107.0	-6	115	1
2.7	2015_Jun_03_1010	s	s	17	3	SIC	81	RC	2	1	02VD 09VO 02VC 02MD 02MO 02MC 02RD 02RO	1	0	0.97399520874	38.0	203.0	36	206	1
2.7	2015_Jun_03_1010	s	s	17	3	SIC	82	RC	0	2	02VD 02VO 02VC 02MD 02MO 02MC 09RD 02RO	1	0	0.811573982239	-230.0	241.0	-235	241	1
2.7	2015_Jun_03_1010	s	s	17	3	SIC	83	ABS	0	1	02VD 02VO 02VC 02MD 02MO 02MC 02RD 10RO	0	1	4.01678991318	None	None	None	None	1
2.7	2015_Jun_03_1010	s	s	17	3	SIC	84	RC	2	0	02VD 02VO 09VC 02MD 02MO 02MC 02RD 02RO	1	0	3.44328093529	92.0	-141.0	85	-147	1
2.7	2015_Jun_03_1010	s	s	17	3	SIC	85	ABS	1	2	02VD 02VO 02VC 10MD 02MO 02MC 02RD 02RO	0	1	1.67981290817	None	None	None	None	1
2.7	2015_Jun_03_1010	s	s	17	3	SIC	86	RC	1	2	02VD 02VO 02VC 09MD 02MO 02MC 02RD 02RO	1	0	1.9180059433	-163.0	-352.0	-167	-346	1
2.7	2015_Jun_03_1010	s	s	17	3	SIC	87	ABS	1	1	02VD 02VO 02VC 02MD 10MO 02MC 02RD 02RO	0	1	2.91848015785	None	None	None	None	1
2.7	2015_Jun_03_1010	s	s	17	3	SIC	88	ABS	2	0	02VD 02VO 10VC 02MD 02MO 02MC 02RD 02RO	0	1	2.66560697556	None	None	None	None	1
2.7	2015_Jun_03_1010	s	s	17	3	SIC	89	ABS	0	2	02VD 02VO 02VC 02MD 02MO 02MC 10RD 02RO	0	1	2.86721587181	None	None	None	None	1
2.7	2015_Jun_03_1010	s	s	17	3	SIC	90	RC	1	1	02VD 02VO 02VC 02MD 09MO 02MC 02RD 02RO	1	0	1.25889515877	-113.0	-208.0	-112	-207	1
2.7	2015_Jun_03_1010	s	s	17	3	SIC	91	RC	0	1	02VD 02VO 02VC 02MD 02MO 02MC 02RD 09RO	1	0	2.00943589211	-380.0	-395.0	-375	-396	1
2.7	2015_Jun_03_1010	s	s	17	3	SIC	92	RC	1	0	02VD 02VO 02VC 02MD 02MO 09MC 02RD 02RO	1	0	0.804593801498	-123.0	-90.0	-119	-92	1
2.7	2015_Jun_03_1010	s	s	17	3	SIC	93	ABS	1	0	02VD 02VO 02VC 02MD 02MO 10MC 02RD 02RO	0	1	4.55194807053	None	None	None	None	1
2.7	2015_Jun_03_1010	s	s	17	3	SIC	94	RC	2	2	09VD 02VO 02VC 02MD 02MO 02MC 02RD 02RO	1	0	1.43562293053	-480.0	-371.0	-488	-371	1
2.7	2015_Jun_03_1010	s	s	17	3	SIC	95	ABS	2	2	10VD 02VO 02VC 02MD 02MO 02MC 02RD 02RO	0	1	2.38390302658	None	None	None	None	1
2.7	2015_Jun_03_1010	s	s	17	3	SIC	96	ABS	2	1	02VD 10VO 02VC 02MD 02MO 02MC 02RD 02RO	0	1	2.71847486496	None	None	None	None	1
2.7	2015_Jun_03_1010	s	s	17	3	SIC	97	ABS	2	1	02VD 10VO 02VC 02MD 02MO 02MC 02RD 02RO	0	1	3.13033390045	None	None	None	None	1
2.7	2015_Jun_03_1010	s	s	17	3	SIC	98	RC	1	0	02VD 02VO 02VC 02MD 02MO 09MC 02RD 02RO	1	0	1.10571193695	226.0	-177.0	235	-172	1
2.7	2015_Jun_03_1010	s	s	17	3	SIC	99	ABS	2	0	02VD 02VO 10VC 02MD 02MO 02MC 02RD 02RO	0	1	1.39993906021	None	None	None	None	1
2.7	2015_Jun_03_1010	s	s	17	3	SIC	100	ABS	1	0	02VD 02VO 02VC 02MD 02MO 10MC 02RD 02RO	0	1	2.17165613174	None	None	None	None	1
2.7	2015_Jun_03_1010	s	s	17	3	SIC	101	ABS	0	1	02VD 02VO 02VC 02MD 02MO 02MC 02RD 10RO	0	1	3.08998703957	None	None	None	None	1
2.7	2015_Jun_03_1010	s	s	17	3	SIC	102	ABS	2	2	10VD 02VO 02VC 02MD 02MO 02MC 02RD 02RO	0	1	2.63593006134	None	None	None	None	1
2.7	2015_Jun_03_1010	s	s	17	3	SIC	103	RC	0	2	02VD 02VO 02VC 02MD 02MO 02MC 09RD 02RO	1	0	1.25882792473	414.0	-345.0	420	-351	1
2.7	2015_Jun_03_1010	s	s	17	3	SIC	104	RC	0	1	02VD 02VO 02VC 02MD 02MO 02MC 02RD 09RO	1	0	3.50705003738	284.0	249.0	286	255	1
2.7	2015_Jun_03_1010	s	s	17	3	SIC	105	ABS	0	2	02VD 02VO 02VC 02MD 02MO 02MC 10RD 02RO	0	1	2.57431197166	None	None	None	None	1
2.7	2015_Jun_03_1010	s	s	17	3	SIC	106	RC	2	2	09VD 02VO 02VC 02MD 02MO 02MC 02RD 02RO	1	0	0.988094091415	186.0	-137.0	193	-142	1
2.7	2015_Jun_03_1010	s	s	17	3	SIC	107	RC	2	1	02VD 09VO 02VC 02MD 02MO 02MC 02RD 02RO	1	0	1.6444067955	458.0	-96.0	460	-95	1
2.7	2015_Jun_03_1010	s	s	17	3	SIC	108	RC	2	0	02VD 02VO 09VC 02MD 02MO 02MC 02RD 02RO	1	0	0.638640880585	194.0	51.0	195	59	1
2.7	2015_Jun_03_1010	s	s	17	3	SIC	109	ABS	1	2	02VD 02VO 02VC 10MD 02MO 02MC 02RD 02RO	0	1	2.82159113884	None	None	None	None	1
2.7	2015_Jun_03_1010	s	s	17	3	SIC	110	ABS	1	1	02VD 02VO 02VC 02MD 10MO 02MC 02RD 02RO	0	1	4.38985204697	None	None	None	None	1
2.7	2015_Jun_03_1010	s	s	17	3	SIC	111	RC	1	1	02VD 02VO 02VC 02MD 09MO 02MC 02RD 02RO	1	0	1.14112305641	409.0	316.0	417	317	1
2.7	2015_Jun_03_1010	s	s	17	3	SIC	112	RC	1	2	02VD 02VO 02VC 09MD 02MO 02MC 02RD 02RO	1	0	1.40004205704	-319.0	93.0	-321	95	1
2.7	2015_Jun_03_1010	s	s	17	3	SIC	113	ABS	1	0	02VD 02VO 02VC 02MD 02MO 10MC 02RD 02RO	0	1	2.82055902481	None	None	None	None	1
2.7	2015_Jun_03_1010	s	s	17	3	SIC	114	RC	2	0	02VD 02VO 09VC 02MD 02MO 02MC 02RD 02RO	1	0	2.74889302254	408.0	-194.0	405	-199	1
2.7	2015_Jun_03_1010	s	s	17	3	SIC	115	ABS	2	0	02VD 02VO 10VC 02MD 02MO 02MC 02RD 02RO	0	1	2.89527988434	None	None	None	None	1
2.7	2015_Jun_03_1010	s	s	17	3	SIC	116	RC	1	0	02VD 02VO 02VC 02MD 02MO 09MC 02RD 02RO	1	0	1.45411801338	479.0	-71.0	471	-70	1
2.7	2015_Jun_03_1010	s	s	17	3	SIC	117	RC	1	1	02VD 02VO 02VC 02MD 09MO 02MC 02RD 02RO	1	0	0.799830198288	164.0	81.0	160	82	1
2.7	2015_Jun_03_1010	s	s	17	3	SIC	118	ABS	2	1	02VD 10VO 02VC 02MD 02MO 02MC 02RD 02RO	0	1	2.97720098495	None	None	None	None	1
2.7	2015_Jun_03_1010	s	s	17	3	SIC	119	RC	2	2	09VD 02VO 02VC 02MD 02MO 02MC 02RD 02RO	1	0	1.1030459404	-250.0	-208.0	-251	-202	1
2.7	2015_Jun_03_1010	s	s	17	3	SIC	120	ABS	1	2	02VD 02VO 02VC 10MD 02MO 02MC 02RD 02RO	0	1	3.13035607338	None	None	None	None	1
2.7	2015_Jun_03_1010	s	s	17	3	SIC	121	RC	1	2	02VD 02VO 02VC 09MD 02MO 02MC 02RD 02RO	1	0	2.40098214149	-131.0	345.0	-117	350	1
2.7	2015_Jun_03_1010	s	s	17	3	SIC	122	ABS	1	1	02VD 02VO 02VC 02MD 10MO 02MC 02RD 02RO	0	1	3.09499287605	None	None	None	None	1
2.7	2015_Jun_03_1010	s	s	17	3	SIC	123	ABS	0	2	02VD 02VO 02VC 02MD 02MO 02MC 10RD 02RO	0	1	3.24516606331	None	None	None	None	1
2.7	2015_Jun_03_1010	s	s	17	3	SIC	124	RC	2	1	02VD 09VO 02VC 02MD 02MO 02MC 02RD 02RO	1	0	0.746418952942	306.0	65.0	309	66	1
2.7	2015_Jun_03_1010	s	s	17	3	SIC	125	RC	0	1	02VD 02VO 02VC 02MD 02MO 02MC 02RD 09RO	1	0	2.18870782852	357.0	-398.0	363	-404	1
2.7	2015_Jun_03_1010	s	s	17	3	SIC	126	ABS	2	2	10VD 02VO 02VC 02MD 02MO 02MC 02RD 02RO	0	1	2.28016114235	None	None	None	None	1
2.7	2015_Jun_03_1010	s	s	17	3	SIC	127	ABS	0	1	02VD 02VO 02VC 02MD 02MO 02MC 02RD 10RO	0	1	3.3657579422	None	None	None	None	1
2.7	2015_Jun_03_1010	s	s	17	3	SIC	128	RC	0	2	02VD 02VO 02VC 02MD 02MO 02MC 09RD 02RO	1	0	1.65908813477	-236.0	-356.0	-227	-357	1
2.7	2015_Jun_03_1010	s	s	17	3	SIC	129	RC	1	1	02VD 02VO 02VC 02MD 09MO 02MC 02RD 02RO	1	0	9.72891116142	-444.0	-200.0	-450	-196	1
2.7	2015_Jun_03_1010	s	s	17	3	SIC	130	ABS	1	1	02VD 02VO 02VC 02MD 10MO 02MC 02RD 02RO	0	1	2.23574876785	None	None	None	None	1
2.7	2015_Jun_03_1010	s	s	17	3	SIC	131	ABS	2	0	02VD 02VO 10VC 02MD 02MO 02MC 02RD 02RO	0	1	1.21533298492	None	None	None	None	1
2.7	2015_Jun_03_1010	s	s	17	3	SIC	132	RC	0	2	02VD 02VO 02VC 02MD 02MO 02MC 09RD 02RO	1	0	0.941018104553	-392.0	-146.0	-391	-139	1
2.7	2015_Jun_03_1010	s	s	17	3	SIC	133	ABS	0	2	02VD 02VO 02VC 02MD 02MO 02MC 10RD 02RO	0	1	2.69459700584	None	None	None	None	1
2.7	2015_Jun_03_1010	s	s	17	3	SIC	134	ABS	0	1	02VD 02VO 02VC 02MD 02MO 02MC 02RD 10RO	0	1	4.03668403625	None	None	None	None	1
2.7	2015_Jun_03_1010	s	s	17	3	SIC	135	ABS	2	1	02VD 10VO 02VC 02MD 02MO 02MC 02RD 02RO	0	1	1.90624117851	None	None	None	None	1
2.7	2015_Jun_03_1010	s	s	17	3	SIC	136	RC	1	0	02VD 02VO 02VC 02MD 02MO 09MC 02RD 02RO	1	0	1.76228904724	-537.0	-270.0	-546	-273	1
2.7	2015_Jun_03_1010	s	s	17	3	SIC	137	ABS	2	2	10VD 02VO 02VC 02MD 02MO 02MC 02RD 02RO	0	1	1.86717700958	None	None	None	None	1
2.7	2015_Jun_03_1010	s	s	17	3	SIC	138	RC	2	0	02VD 02VO 09VC 02MD 02MO 02MC 02RD 02RO	1	0	2.0829269886	312.0	-326.0	312	-320	1
2.7	2015_Jun_03_1010	s	s	17	3	SIC	139	RC	2	2	09VD 02VO 02VC 02MD 02MO 02MC 02RD 02RO	1	0	1.23522090912	271.0	-112.0	268	-106	1
2.7	2015_Jun_03_1010	s	s	17	3	SIC	140	ABS	1	0	02VD 02VO 02VC 02MD 02MO 10MC 02RD 02RO	0	1	3.5984108448	None	None	None	None	1
2.7	2015_Jun_03_1010	s	s	17	3	SIC	141	RC	2	1	02VD 09VO 02VC 02MD 02MO 02MC 02RD 02RO	1	0	1.77084302902	438.0	-26.0	435	-28	1
2.7	2015_Jun_03_1010	s	s	17	3	SIC	142	RC	1	2	02VD 02VO 02VC 09MD 02MO 02MC 02RD 02RO	1	0	0.829982995987	365.0	-113.0	371	-103	1
2.7	2015_Jun_03_1010	s	s	17	3	SIC	143	ABS	1	2	02VD 02VO 02VC 10MD 02MO 02MC 02RD 02RO	0	1	2.36252307892	None	None	None	None	1
2.7	2015_Jun_03_1010	s	s	17	3	SIC	144	RC	0	1	02VD 02VO 02VC 02MD 02MO 02MC 02RD 09RO	1	0	1.43032097816	-520.0	379.0	-529	382	1
2.7	2015_Jun_03_1010	s	s	17	3	SIC	145	RC	0	2	02VD 02VO 02VC 02MD 02MO 02MC 09RD 02RO	1	0	0.7351770401	-111.0	-61.0	-111	-65	1
2.7	2015_Jun_03_1010	s	s	17	3	SIC	146	ABS	2	1	02VD 10VO 02VC 02MD 02MO 02MC 02RD 02RO	0	1	2.17331314087	None	None	None	None	1
2.7	2015_Jun_03_1010	s	s	17	3	SIC	147	RC	2	1	02VD 09VO 02VC 02MD 02MO 02MC 02RD 02RO	1	0	0.882777929306	-243.0	219.0	-245	222	1
2.7	2015_Jun_03_1010	s	s	17	3	SIC	148	ABS	2	0	02VD 02VO 10VC 02MD 02MO 02MC 02RD 02RO	0	1	2.23097681999	None	None	None	None	1
2.7	2015_Jun_03_1010	s	s	17	3	SIC	149	ABS	0	1	02VD 02VO 02VC 02MD 02MO 02MC 02RD 10RO	0	1	4.54295086861	None	None	None	None	1
2.7	2015_Jun_03_1010	s	s	17	3	SIC	150	ABS	1	0	02VD 02VO 02VC 02MD 02MO 10MC 02RD 02RO	0	1	2.53921818733	None	None	None	None	1
2.7	2015_Jun_03_1010	s	s	17	3	SIC	151	RC	1	2	02VD 02VO 02VC 09MD 02MO 02MC 02RD 02RO	1	0	0.770243167877	-6.0	-27.0	-4	-20	1
2.7	2015_Jun_03_1010	s	s	17	3	SIC	152	ABS	1	1	02VD 02VO 02VC 02MD 10MO 02MC 02RD 02RO	0	1	2.74780702591	None	None	None	None	1
2.7	2015_Jun_03_1010	s	s	17	3	SIC	153	ABS	1	2	02VD 02VO 02VC 10MD 02MO 02MC 02RD 02RO	0	1	2.75378513336	None	None	None	None	1
2.7	2015_Jun_03_1010	s	s	17	3	SIC	154	RC	1	1	02VD 02VO 02VC 02MD 09MO 02MC 02RD 02RO	1	0	1.90127205849	536.0	-285.0	539	-283	1
2.7	2015_Jun_03_1010	s	s	17	3	SIC	155	ABS	2	2	10VD 02VO 02VC 02MD 02MO 02MC 02RD 02RO	0	1	2.55341386795	None	None	None	None	1
2.7	2015_Jun_03_1010	s	s	17	3	SIC	156	RC	0	1	02VD 02VO 02VC 02MD 02MO 02MC 02RD 09RO	1	0	1.9533059597	-468.0	-22.0	-474	-14	1
2.7	2015_Jun_03_1010	s	s	17	3	SIC	157	ABS	0	2	02VD 02VO 02VC 02MD 02MO 02MC 10RD 02RO	0	1	1.96115398407	None	None	None	None	1
2.7	2015_Jun_03_1010	s	s	17	3	SIC	158	RC	1	0	02VD 02VO 02VC 02MD 02MO 09MC 02RD 02RO	1	0	1.07037806511	-531.0	-178.0	-530	-173	1
2.7	2015_Jun_03_1010	s	s	17	3	SIC	159	RC	2	2	09VD 02VO 02VC 02MD 02MO 02MC 02RD 02RO	1	0	1.32944202423	-36.0	227.0	-35	228	1
2.7	2015_Jun_03_1010	s	s	17	3	SIC	160	RC	2	0	02VD 02VO 09VC 02MD 02MO 02MC 02RD 02RO	1	0	1.15286493301	-166.0	215.0	-170	223	1
2.7	2015_Jun_03_1010	s	s	17	3	SIC	161	ABS	1	2	02VD 02VO 02VC 10MD 02MO 02MC 02RD 02RO	0	1	3.48028802872	None	None	None	None	1
2.7	2015_Jun_03_1010	s	s	17	3	SIC	162	RC	2	0	02VD 02VO 09VC 02MD 02MO 02MC 02RD 02RO	1	0	1.3412258625	444.0	211.0	451	208	1
2.7	2015_Jun_03_1010	s	s	17	3	SIC	163	ABS	2	0	02VD 02VO 10VC 02MD 02MO 02MC 02RD 02RO	0	1	3.46018886566	None	None	None	None	1
2.7	2015_Jun_03_1010	s	s	17	3	SIC	164	RC	2	2	09VD 02VO 02VC 02MD 02MO 02MC 02RD 02RO	1	0	1.34855604172	5.0	-117.0	-4	-121	1
2.7	2015_Jun_03_1010	s	s	17	3	SIC	165	RC	0	2	02VD 02VO 02VC 02MD 02MO 02MC 09RD 02RO	1	0	1.37316703796	72.0	272.0	67	279	1
2.7	2015_Jun_03_1010	s	s	17	3	SIC	166	ABS	2	2	10VD 02VO 02VC 02MD 02MO 02MC 02RD 02RO	0	1	1.69171690941	None	None	None	None	1
2.7	2015_Jun_03_1010	s	s	17	3	SIC	167	ABS	1	0	02VD 02VO 02VC 02MD 02MO 10MC 02RD 02RO	0	1	4.08378791809	None	None	None	None	1
2.7	2015_Jun_03_1010	s	s	17	3	SIC	168	ABS	0	1	02VD 02VO 02VC 02MD 02MO 02MC 02RD 10RO	0	1	3.70719003677	None	None	None	None	1
2.7	2015_Jun_03_1010	s	s	17	3	SIC	169	RC	1	1	02VD 02VO 02VC 02MD 09MO 02MC 02RD 02RO	1	0	1.62381100655	199.0	-370.0	185	-361	1
2.7	2015_Jun_03_1010	s	s	17	3	SIC	170	ABS	0	2	02VD 02VO 02VC 02MD 02MO 02MC 10RD 02RO	0	1	2.64766597748	None	None	None	None	1
2.7	2015_Jun_03_1010	s	s	17	3	SIC	171	RC	1	2	02VD 02VO 02VC 09MD 02MO 02MC 02RD 02RO	1	0	1.65890097618	535.0	394.0	537	395	1
2.7	2015_Jun_03_1010	s	s	17	3	SIC	172	RC	0	1	02VD 02VO 02VC 02MD 02MO 02MC 02RD 09RO	1	0	2.5745549202	-186.0	-392.0	-183	-389	1
2.7	2015_Jun_03_1010	s	s	17	3	SIC	173	RC	1	0	02VD 02VO 02VC 02MD 02MO 09MC 02RD 02RO	1	0	1.85914707184	233.0	-222.0	229	-222	1
2.7	2015_Jun_03_1010	s	s	17	3	SIC	174	RC	2	1	02VD 09VO 02VC 02MD 02MO 02MC 02RD 02RO	1	0	1.29011178017	236.0	-367.0	233	-364	1
2.7	2015_Jun_03_1010	s	s	17	3	SIC	175	ABS	1	1	02VD 02VO 02VC 02MD 10MO 02MC 02RD 02RO	0	1	2.51256203651	None	None	None	None	1
2.7	2015_Jun_03_1010	s	s	17	3	SIC	176	ABS	2	1	02VD 10VO 02VC 02MD 02MO 02MC 02RD 02RO	0	1	1.96506500244	None	None	None	None	1
2.7	2015_Jun_03_1010	s	s	17	3	SIC	177	RC	0	1	02VD 02VO 02VC 02MD 02MO 02MC 02RD 09RO	1	0	1.38873004913	339.0	273.0	340	270	1
2.7	2015_Jun_03_1010	s	s	17	3	SIC	178	ABS	2	2	10VD 02VO 02VC 02MD 02MO 02MC 02RD 02RO	0	1	2.41924214363	None	None	None	None	1
2.7	2015_Jun_03_1010	s	s	17	3	SIC	179	RC	1	1	02VD 02VO 02VC 02MD 09MO 02MC 02RD 02RO	1	0	0.806221008301	230.0	162.0	225	161	1
2.7	2015_Jun_03_1010	s	s	17	3	SIC	180	ABS	2	1	02VD 10VO 02VC 02MD 02MO 02MC 02RD 02RO	0	1	1.56845903397	None	None	None	None	1
2.7	2015_Jun_03_1010	s	s	17	3	SIC	181	ABS	1	0	02VD 02VO 02VC 02MD 02MO 10MC 02RD 02RO	0	1	3.11476802826	None	None	None	None	1
2.7	2015_Jun_03_1010	s	s	17	3	SIC	182	ABS	0	1	02VD 02VO 02VC 02MD 02MO 02MC 02RD 10RO	0	1	4.0458650589	None	None	None	None	1
2.7	2015_Jun_03_1010	s	s	17	3	SIC	183	ABS	0	2	02VD 02VO 02VC 02MD 02MO 02MC 10RD 02RO	0	1	1.87090992928	None	None	None	None	1
2.7	2015_Jun_03_1010	s	s	17	3	SIC	184	ABS	1	2	02VD 02VO 02VC 10MD 02MO 02MC 02RD 02RO	0	1	1.43539810181	None	None	None	None	1
2.7	2015_Jun_03_1010	s	s	17	3	SIC	185	RC	2	1	02VD 09VO 02VC 02MD 02MO 02MC 02RD 02RO	1	0	2.65938401222	498.0	-11.0	513	-5	1
2.7	2015_Jun_03_1010	s	s	17	3	SIC	186	RC	2	2	09VD 02VO 02VC 02MD 02MO 02MC 02RD 02RO	1	0	0.984053134918	-224.0	-20.0	-232	-16	1
2.7	2015_Jun_03_1010	s	s	17	3	SIC	187	RC	1	2	02VD 02VO 02VC 09MD 02MO 02MC 02RD 02RO	1	0	2.90683603287	322.0	154.0	323	154	1
2.7	2015_Jun_03_1010	s	s	17	3	SIC	188	ABS	2	0	02VD 02VO 10VC 02MD 02MO 02MC 02RD 02RO	0	1	2.20720410347	None	None	None	None	1
2.7	2015_Jun_03_1010	s	s	17	3	SIC	189	RC	0	2	02VD 02VO 02VC 02MD 02MO 02MC 09RD 02RO	1	0	3.39882183075	-209.0	-289.0	-211	-298	1
2.7	2015_Jun_03_1010	s	s	17	3	SIC	190	RC	1	0	02VD 02VO 02VC 02MD 02MO 09MC 02RD 02RO	1	0	1.49420595169	-522.0	298.0	-512	299	1
2.7	2015_Jun_03_1010	s	s	17	3	SIC	191	RC	2	0	02VD 02VO 09VC 02MD 02MO 02MC 02RD 02RO	1	0	2.12976098061	522.0	336.0	537	343	1
2.7	2015_Jun_03_1010	s	s	17	3	SIC	192	ABS	1	1	02VD 02VO 02VC 02MD 10MO 02MC 02RD 02RO	0	1	2.05924296379	None	None	None	None	1
2.7	2015_Jun_03_1010	s	s	17	3	SIC	193	ABS	2	1	02VD 10VO 02VC 02MD 02MO 02MC 02RD 02RO	0	1	2.94827103615	None	None	None	None	1
2.7	2015_Jun_03_1010	s	s	17	3	SIC	194	RC	1	2	02VD 02VO 02VC 09MD 02MO 02MC 02RD 02RO	1	0	0.933510065079	191.0	256.0	189	264	1
2.7	2015_Jun_03_1010	s	s	17	3	SIC	195	RC	1	0	02VD 02VO 02VC 02MD 02MO 09MC 02RD 02RO	1	0	1.63559508324	-255.0	-51.0	-262	-50	1
2.7	2015_Jun_03_1010	s	s	17	3	SIC	196	ABS	1	1	02VD 02VO 02VC 02MD 10MO 02MC 02RD 02RO	0	1	1.73873901367	None	None	None	None	1
2.7	2015_Jun_03_1010	s	s	17	3	SIC	197	RC	0	1	02VD 02VO 02VC 02MD 02MO 02MC 02RD 09RO	1	0	1.26235699654	74.0	-279.0	80	-277	1
2.7	2015_Jun_03_1010	s	s	17	3	SIC	198	ABS	2	2	10VD 02VO 02VC 02MD 02MO 02MC 02RD 02RO	0	1	2.35350704193	None	None	None	None	1
2.7	2015_Jun_03_1010	s	s	17	3	SIC	199	ABS	1	0	02VD 02VO 02VC 02MD 02MO 10MC 02RD 02RO	0	1	2.32477688789	None	None	None	None	1
2.7	2015_Jun_03_1010	s	s	17	3	SIC	200	ABS	1	2	02VD 02VO 02VC 10MD 02MO 02MC 02RD 02RO	0	1	3.21306204796	None	None	None	None	1
2.7	2015_Jun_03_1010	s	s	17	3	SIC	201	RC	2	0	02VD 02VO 09VC 02MD 02MO 02MC 02RD 02RO	1	0	1.9624171257	-195.0	-157.0	-185	-159	1
2.7	2015_Jun_03_1010	s	s	17	3	SIC	202	ABS	0	1	02VD 02VO 02VC 02MD 02MO 02MC 02RD 10RO	0	1	4.76654791832	None	None	None	None	1
2.7	2015_Jun_03_1010	s	s	17	3	SIC	203	RC	0	2	02VD 02VO 02VC 02MD 02MO 02MC 09RD 02RO	1	0	1.5367910862	115.0	354.0	116	361	1
2.7	2015_Jun_03_1010	s	s	17	3	SIC	204	RC	1	1	02VD 02VO 02VC 02MD 09MO 02MC 02RD 02RO	1	0	0.712942123413	-33.0	138.0	-38	140	1
2.7	2015_Jun_03_1010	s	s	17	3	SIC	205	ABS	2	0	02VD 02VO 10VC 02MD 02MO 02MC 02RD 02RO	0	1	1.78063797951	None	None	None	None	1
2.7	2015_Jun_03_1010	s	s	17	3	SIC	206	RC	2	1	02VD 09VO 02VC 02MD 02MO 02MC 02RD 02RO	1	0	1.41209506989	538.0	-328.0	546	-322	1
2.7	2015_Jun_03_1010	s	s	17	3	SIC	207	ABS	0	2	02VD 02VO 02VC 02MD 02MO 02MC 10RD 02RO	0	1	1.96500301361	None	None	None	None	1
2.7	2015_Jun_03_1010	s	s	17	3	SIC	208	RC	2	2	09VD 02VO 02VC 02MD 02MO 02MC 02RD 02RO	1	0	1.16201806068	-211.0	234.0	-199	239	1
2.7	2015_Jun_03_1010	s	s	17	3	SIC	209	ABS	0	2	02VD 02VO 02VC 02MD 02MO 02MC 10RD 02RO	0	1	2.53736209869	None	None	None	None	1
2.7	2015_Jun_03_1010	s	s	17	3	SIC	210	RC	0	2	02VD 02VO 02VC 02MD 02MO 02MC 09RD 02RO	1	0	0.829775094986	140.0	-57.0	132	-52	1
2.7	2015_Jun_03_1010	s	s	17	3	SIC	211	ABS	0	1	02VD 02VO 02VC 02MD 02MO 02MC 02RD 10RO	0	1	4.31355810165	None	None	None	None	1
2.7	2015_Jun_03_1010	s	s	17	3	SIC	212	RC	2	0	02VD 02VO 09VC 02MD 02MO 02MC 02RD 02RO	1	0	2.10636401176	-318.0	365.0	-311	365	1
2.7	2015_Jun_03_1010	s	s	17	3	SIC	213	RC	1	1	02VD 02VO 02VC 02MD 09MO 02MC 02RD 02RO	1	0	1.07994318008	-396.0	169.0	-405	172	1
2.7	2015_Jun_03_1010	s	s	17	3	SIC	214	RC	0	1	02VD 02VO 02VC 02MD 02MO 02MC 02RD 09RO	1	0	3.45648193359	404.0	333.0	405	333	1
2.7	2015_Jun_03_1010	s	s	17	3	SIC	215	ABS	2	0	02VD 02VO 10VC 02MD 02MO 02MC 02RD 02RO	0	1	1.98862504959	None	None	None	None	1
2.7	2015_Jun_03_1010	s	s	17	3	SIC	216	ABS	1	0	02VD 02VO 02VC 02MD 02MO 10MC 02RD 02RO	0	1	3.43375492096	None	None	None	None	1
2.7	2015_Jun_03_1010	s	s	17	3	SIC	217	ABS	2	1	02VD 10VO 02VC 02MD 02MO 02MC 02RD 02RO	0	1	2.37219905853	None	None	None	None	1
2.7	2015_Jun_03_1010	s	s	17	3	SIC	218	RC	2	1	02VD 09VO 02VC 02MD 02MO 02MC 02RD 02RO	1	0	1.8075799942	-205.0	150.0	-205	152	1
2.7	2015_Jun_03_1010	s	s	17	3	SIC	219	RC	2	2	09VD 02VO 02VC 02MD 02MO 02MC 02RD 02RO	1	0	0.725441217422	-203.0	-16.0	-207	-16	1
2.7	2015_Jun_03_1010	s	s	17	3	SIC	220	ABS	1	1	02VD 02VO 02VC 02MD 10MO 02MC 02RD 02RO	0	1	2.64479088783	None	None	None	None	1
2.7	2015_Jun_03_1010	s	s	17	3	SIC	221	ABS	1	2	02VD 02VO 02VC 10MD 02MO 02MC 02RD 02RO	0	1	1.33510708809	None	None	None	None	1
2.7	2015_Jun_03_1010	s	s	17	3	SIC	222	RC	1	0	02VD 02VO 02VC 02MD 02MO 09MC 02RD 02RO	1	0	1.83018803596	-10.0	-301.0	-16	-310	1
2.7	2015_Jun_03_1010	s	s	17	3	SIC	223	ABS	2	2	10VD 02VO 02VC 02MD 02MO 02MC 02RD 02RO	0	1	1.97190594673	None	None	None	None	1
2.7	2015_Jun_03_1010	s	s	17	3	SIC	224	RC	1	2	02VD 02VO 02VC 09MD 02MO 02MC 02RD 02RO	1	0	0.737758874893	95.0	-14.0	101	-20	1
2.7	2015_Jun_03_1010	s	s	17	3	SIC	225	RC	0	2	02VD 02VO 02VC 02MD 02MO 02MC 09RD 02RO	1	0	1.4419491291	-485.0	117.0	-478	118	1
2.7	2015_Jun_03_1010	s	s	17	3	SIC	226	RC	2	0	02VD 02VO 09VC 02MD 02MO 02MC 02RD 02RO	1	0	0.929255962372	-74.0	330.0	-72	320	1
2.7	2015_Jun_03_1010	s	s	17	3	SIC	227	RC	0	1	02VD 02VO 02VC 02MD 02MO 02MC 02RD 09RO	1	0	1.97192406654	121.0	-339.0	130	-330	1
2.7	2015_Jun_03_1010	s	s	17	3	SIC	228	ABS	1	2	02VD 02VO 02VC 10MD 02MO 02MC 02RD 02RO	0	1	1.93868494034	None	None	None	None	1
2.7	2015_Jun_03_1010	s	s	17	3	SIC	229	RC	1	0	02VD 02VO 02VC 02MD 02MO 09MC 02RD 02RO	1	0	1.88877081871	167.0	-173.0	175	-174	1
2.7	2015_Jun_03_1010	s	s	17	3	SIC	230	RC	1	2	02VD 02VO 02VC 09MD 02MO 02MC 02RD 02RO	1	0	0.796985864639	88.0	240.0	80	249	1
2.7	2015_Jun_03_1010	s	s	17	3	SIC	231	ABS	2	2	10VD 02VO 02VC 02MD 02MO 02MC 02RD 02RO	0	1	1.23031187057	None	None	None	None	1
2.7	2015_Jun_03_1010	s	s	17	3	SIC	232	ABS	2	0	02VD 02VO 10VC 02MD 02MO 02MC 02RD 02RO	0	1	2.38610005379	None	None	None	None	1
2.7	2015_Jun_03_1010	s	s	17	3	SIC	233	ABS	0	2	02VD 02VO 02VC 02MD 02MO 02MC 10RD 02RO	0	1	3.00087499619	None	None	None	None	1
2.7	2015_Jun_03_1010	s	s	17	3	SIC	234	ABS	2	1	02VD 10VO 02VC 02MD 02MO 02MC 02RD 02RO	0	1	2.42411804199	None	None	None	None	1
2.7	2015_Jun_03_1010	s	s	17	3	SIC	235	RC	1	1	02VD 02VO 02VC 02MD 09MO 02MC 02RD 02RO	1	0	1.03924202919	332.0	271.0	334	271	1
2.7	2015_Jun_03_1010	s	s	17	3	SIC	236	ABS	0	1	02VD 02VO 02VC 02MD 02MO 02MC 02RD 10RO	0	1	4.18434810638	None	None	None	None	1
2.7	2015_Jun_03_1010	s	s	17	3	SIC	237	ABS	1	1	02VD 02VO 02VC 02MD 10MO 02MC 02RD 02RO	0	1	3.53044199944	None	None	None	None	1
2.7	2015_Jun_03_1010	s	s	17	3	SIC	238	RC	2	2	09VD 02VO 02VC 02MD 02MO 02MC 02RD 02RO	1	0	0.889816045761	-124.0	-24.0	-117	-20	1
2.7	2015_Jun_03_1010	s	s	17	3	SIC	239	RC	2	1	02VD 09VO 02VC 02MD 02MO 02MC 02RD 02RO	1	0	0.973604917526	-212.0	-177.0	-217	-176	1
2.7	2015_Jun_03_1010	s	s	17	3	SIC	240	ABS	1	0	02VD 02VO 02VC 02MD 02MO 10MC 02RD 02RO	0	1	2.42418694496	None	None	None	None	1
2.7	2015_Jun_03_1010	s	s	17	3	SIC	241	ABS	0	2	02VD 02VO 02VC 02MD 02MO 02MC 10RD 02RO	0	1	2.81924009323	None	None	None	None	1
2.7	2015_Jun_03_1010	s	s	17	3	SIC	242	RC	2	2	09VD 02VO 02VC 02MD 02MO 02MC 02RD 02RO	1	0	1.41924500465	368.0	327.0	368	328	1
2.7	2015_Jun_03_1010	s	s	17	3	SIC	243	ABS	2	1	02VD 10VO 02VC 02MD 02MO 02MC 02RD 02RO	0	1	1.30592298508	None	None	None	None	1
2.7	2015_Jun_03_1010	s	s	17	3	SIC	244	ABS	2	0	02VD 02VO 10VC 02MD 02MO 02MC 02RD 02RO	0	1	2.29246306419	None	None	None	None	1
2.7	2015_Jun_03_1010	s	s	17	3	SIC	245	RC	0	1	02VD 02VO 02VC 02MD 02MO 02MC 02RD 09RO	1	0	1.2116291523	-536.0	241.0	-529	240	1
2.7	2015_Jun_03_1010	s	s	17	3	SIC	246	RC	0	2	02VD 02VO 02VC 02MD 02MO 02MC 09RD 02RO	1	0	1.62999796867	78.0	-321.0	77	-314	1
2.7	2015_Jun_03_1010	s	s	17	3	SIC	247	RC	1	2	02VD 02VO 02VC 09MD 02MO 02MC 02RD 02RO	1	0	0.979970932007	-98.0	-258.0	-90	-252	1
2.7	2015_Jun_03_1010	s	s	17	3	SIC	248	ABS	1	0	02VD 02VO 02VC 02MD 02MO 10MC 02RD 02RO	0	1	2.27163290977	None	None	None	None	1
2.7	2015_Jun_03_1010	s	s	17	3	SIC	249	RC	1	1	02VD 02VO 02VC 02MD 09MO 02MC 02RD 02RO	1	0	0.870476007462	-369.0	-215.0	-361	-219	1
2.7	2015_Jun_03_1010	s	s	17	3	SIC	250	ABS	1	1	02VD 02VO 02VC 02MD 10MO 02MC 02RD 02RO	0	1	3.4784591198	None	None	None	None	1
2.7	2015_Jun_03_1010	s	s	17	3	SIC	251	RC	1	0	02VD 02VO 02VC 02MD 02MO 09MC 02RD 02RO	1	0	1.87948679924	280.0	-123.0	274	-120	1
2.7	2015_Jun_03_1010	s	s	17	3	SIC	252	ABS	1	2	02VD 02VO 02VC 10MD 02MO 02MC 02RD 02RO	0	1	1.97717809677	None	None	None	None	1
2.7	2015_Jun_03_1010	s	s	17	3	SIC	253	RC	2	1	02VD 09VO 02VC 02MD 02MO 02MC 02RD 02RO	1	0	1.21783614159	132.0	-304.0	126	-295	1
2.7	2015_Jun_03_1010	s	s	17	3	SIC	254	RC	2	0	02VD 02VO 09VC 02MD 02MO 02MC 02RD 02RO	1	0	0.835577964783	-264.0	-152.0	-260	-151	1
2.7	2015_Jun_03_1010	s	s	17	3	SIC	255	ABS	2	2	10VD 02VO 02VC 02MD 02MO 02MC 02RD 02RO	0	1	2.35042905807	None	None	None	None	1
2.7	2015_Jun_03_1010	s	s	17	3	SIC	256	ABS	0	1	02VD 02VO 02VC 02MD 02MO 02MC 02RD 10RO	0	1	5.60215616226	None	None	None	None	1
2.7	2015_Jun_03_1010	s	s	17	3	SIC	257	RC	0	1	02VD 02VO 02VC 02MD 02MO 02MC 02RD 09RO	1	0	1.94156599045	-476.0	-332.0	-484	-327	1
2.7	2015_Jun_03_1010	s	s	17	3	SIC	258	ABS	1	1	02VD 02VO 02VC 02MD 10MO 02MC 02RD 02RO	0	1	3.21905684471	None	None	None	None	1
2.7	2015_Jun_03_1010	s	s	17	3	SIC	259	ABS	2	1	02VD 10VO 02VC 02MD 02MO 02MC 02RD 02RO	0	1	2.4670779705	None	None	None	None	1
2.7	2015_Jun_03_1010	s	s	17	3	SIC	260	RC	0	2	02VD 02VO 02VC 02MD 02MO 02MC 09RD 02RO	1	0	0.936049938202	-134.0	34.0	-125	36	1
2.7	2015_Jun_03_1010	s	s	17	3	SIC	261	RC	2	0	02VD 02VO 09VC 02MD 02MO 02MC 02RD 02RO	1	0	2.06830811501	-96.0	-381.0	-95	-383	1
2.7	2015_Jun_03_1010	s	s	17	3	SIC	262	ABS	2	2	10VD 02VO 02VC 02MD 02MO 02MC 02RD 02RO	0	1	2.435765028	None	None	None	None	1
2.7	2015_Jun_03_1010	s	s	17	3	SIC	263	RC	2	1	02VD 09VO 02VC 02MD 02MO 02MC 02RD 02RO	1	0	1.24208688736	-428.0	330.0	-431	324	1
2.7	2015_Jun_03_1010	s	s	17	3	SIC	264	ABS	0	1	02VD 02VO 02VC 02MD 02MO 02MC 02RD 10RO	0	1	2.79519987106	None	None	None	None	1
2.7	2015_Jun_03_1010	s	s	17	3	SIC	265	RC	1	0	02VD 02VO 02VC 02MD 02MO 09MC 02RD 02RO	1	0	1.21155381203	-485.0	241.0	-491	243	1
2.7	2015_Jun_03_1010	s	s	17	3	SIC	266	ABS	1	2	02VD 02VO 02VC 10MD 02MO 02MC 02RD 02RO	0	1	2.11787295341	None	None	None	None	1
2.7	2015_Jun_03_1010	s	s	17	3	SIC	267	ABS	0	2	02VD 02VO 02VC 02MD 02MO 02MC 10RD 02RO	0	1	2.52448582649	None	None	None	None	1
2.7	2015_Jun_03_1010	s	s	17	3	SIC	268	RC	1	1	02VD 02VO 02VC 02MD 09MO 02MC 02RD 02RO	0	1	4.39347600937	6.0	144.0	None	None	0
2.7	2015_Jun_03_1010	s	s	17	3	SIC	269	RC	1	2	02VD 02VO 02VC 09MD 02MO 02MC 02RD 02RO	1	0	0.93751001358	-165.0	8.0	-161	7	1
2.7	2015_Jun_03_1010	s	s	17	3	SIC	270	ABS	2	0	02VD 02VO 10VC 02MD 02MO 02MC 02RD 02RO	0	1	2.69492483139	None	None	None	None	1
2.7	2015_Jun_03_1010	s	s	17	3	SIC	271	ABS	1	0	02VD 02VO 02VC 02MD 02MO 10MC 02RD 02RO	0	1	3.30676412582	None	None	None	None	1
2.7	2015_Jun_03_1010	s	s	17	3	SIC	272	RC	2	2	09VD 02VO 02VC 02MD 02MO 02MC 02RD 02RO	1	0	1.53677988052	154.0	368.0	154	368	1
2.7	2015_Jun_03_1010	s	s	17	3	SIC	273	ABS	1	1	02VD 02VO 02VC 02MD 10MO 02MC 02RD 02RO	1	0	2.04733490944	None	None	337	108	0
2.7	2015_Jun_03_1010	s	s	17	3	SIC	274	ABS	0	1	02VD 02VO 02VC 02MD 02MO 02MC 02RD 10RO	0	1	4.70801997185	None	None	None	None	1
2.7	2015_Jun_03_1010	s	s	17	3	SIC	275	RC	2	1	02VD 09VO 02VC 02MD 02MO 02MC 02RD 02RO	0	1	4.83161616325	-270.0	-326.0	None	None	0
2.7	2015_Jun_03_1010	s	s	17	3	SIC	276	RC	0	1	02VD 02VO 02VC 02MD 02MO 02MC 02RD 09RO	1	0	1.54126000404	-236.0	-142.0	-238	-153	1
2.7	2015_Jun_03_1010	s	s	17	3	SIC	277	RC	1	1	02VD 02VO 02VC 02MD 09MO 02MC 02RD 02RO	1	0	0.714405059814	139.0	-4.0	130	5	1
2.7	2015_Jun_03_1010	s	s	17	3	SIC	278	ABS	2	1	02VD 10VO 02VC 02MD 02MO 02MC 02RD 02RO	0	1	3.01250696182	None	None	None	None	1
2.7	2015_Jun_03_1010	s	s	17	3	SIC	279	ABS	0	2	02VD 02VO 02VC 02MD 02MO 02MC 10RD 02RO	0	1	2.16038584709	None	None	None	None	1
2.7	2015_Jun_03_1010	s	s	17	3	SIC	280	RC	1	2	02VD 02VO 02VC 09MD 02MO 02MC 02RD 02RO	1	0	0.808810949326	-161.0	193.0	-167	193	1
2.7	2015_Jun_03_1010	s	s	17	3	SIC	281	ABS	1	0	02VD 02VO 02VC 02MD 02MO 10MC 02RD 02RO	0	1	2.87930703163	None	None	None	None	1
2.7	2015_Jun_03_1010	s	s	17	3	SIC	282	RC	2	2	09VD 02VO 02VC 02MD 02MO 02MC 02RD 02RO	1	0	2.34888100624	-171.0	-125.0	-180	-121	1
2.7	2015_Jun_03_1010	s	s	17	3	SIC	283	ABS	2	0	02VD 02VO 10VC 02MD 02MO 02MC 02RD 02RO	0	1	5.2961230278	None	None	None	None	1
2.7	2015_Jun_03_1010	s	s	17	3	SIC	284	RC	2	0	02VD 02VO 09VC 02MD 02MO 02MC 02RD 02RO	1	0	1.70344495773	-336.0	-364.0	-340	-373	1
2.7	2015_Jun_03_1010	s	s	17	3	SIC	285	ABS	2	2	10VD 02VO 02VC 02MD 02MO 02MC 02RD 02RO	0	1	2.43357920647	None	None	None	None	1
2.7	2015_Jun_03_1010	s	s	17	3	SIC	286	RC	1	0	02VD 02VO 02VC 02MD 02MO 09MC 02RD 02RO	1	0	1.63056898117	-456.0	409.0	-453	418	1
2.7	2015_Jun_03_1010	s	s	17	3	SIC	287	RC	0	2	02VD 02VO 02VC 02MD 02MO 02MC 09RD 02RO	1	0	0.799726009369	-206.0	221.0	-207	215	1
2.7	2015_Jun_03_1010	s	s	17	3	SIC	288	ABS	1	2	02VD 02VO 02VC 10MD 02MO 02MC 02RD 02RO	0	1	2.49503803253	None	None	None	None	1
2.7	2015_Jun_03_1010	s	s	17	3	SIC	289	RC	2	1	02VD 09VO 02VC 02MD 02MO 02MC 02RD 02RO	1	0	1.32368993759	266.0	-380.0	260	-384	1
2.7	2015_Jun_03_1010	s	s	17	3	SIC	290	RC	2	2	09VD 02VO 02VC 02MD 02MO 02MC 02RD 02RO	1	0	0.949203014374	-329.0	-98.0	-332	-96	1
2.7	2015_Jun_03_1010	s	s	17	3	SIC	291	ABS	0	2	02VD 02VO 02VC 02MD 02MO 02MC 10RD 02RO	0	1	2.04738211632	None	None	None	None	1
2.7	2015_Jun_03_1010	s	s	17	3	SIC	292	RC	1	2	02VD 02VO 02VC 09MD 02MO 02MC 02RD 02RO	1	0	1.63543105125	-429.0	32.0	-422	30	1
2.7	2015_Jun_03_1010	s	s	17	3	SIC	293	RC	1	1	02VD 02VO 02VC 02MD 09MO 02MC 02RD 02RO	1	0	0.914129972458	-211.0	231.0	-212	236	1
2.7	2015_Jun_03_1010	s	s	17	3	SIC	294	ABS	1	0	02VD 02VO 02VC 02MD 02MO 10MC 02RD 02RO	0	1	2.19591498375	None	None	None	None	1
2.7	2015_Jun_03_1010	s	s	17	3	SIC	295	RC	0	2	02VD 02VO 02VC 02MD 02MO 02MC 09RD 02RO	1	0	2.30652403831	-35.0	-132.0	-33	-140	1
2.7	2015_Jun_03_1010	s	s	17	3	SIC	296	RC	0	1	02VD 02VO 02VC 02MD 02MO 02MC 02RD 09RO	1	0	1.63053393364	42.0	102.0	35	109	1
2.7	2015_Jun_03_1010	s	s	17	3	SIC	297	ABS	2	2	10VD 02VO 02VC 02MD 02MO 02MC 02RD 02RO	0	1	1.72962403297	None	None	None	None	1
2.7	2015_Jun_03_1010	s	s	17	3	SIC	298	ABS	2	1	02VD 10VO 02VC 02MD 02MO 02MC 02RD 02RO	0	1	3.19727921486	None	None	None	None	1
2.7	2015_Jun_03_1010	s	s	17	3	SIC	299	ABS	0	1	02VD 02VO 02VC 02MD 02MO 02MC 02RD 10RO	0	1	3.45673918724	None	None	None	None	1
2.7	2015_Jun_03_1010	s	s	17	3	SIC	300	ABS	1	2	02VD 02VO 02VC 10MD 02MO 02MC 02RD 02RO	0	1	1.93924498558	None	None	None	None	1
2.7	2015_Jun_03_1010	s	s	17	3	SIC	301	RC	1	0	02VD 02VO 02VC 02MD 02MO 09MC 02RD 02RO	1	0	1.55892586708	-208.0	23.0	-205	14	1
2.7	2015_Jun_03_1010	s	s	17	3	SIC	302	RC	2	0	02VD 02VO 09VC 02MD 02MO 02MC 02RD 02RO	1	0	2.41233897209	385.0	98.0	382	101	1
2.7	2015_Jun_03_1010	s	s	17	3	SIC	303	ABS	1	1	02VD 02VO 02VC 02MD 10MO 02MC 02RD 02RO	0	1	2.45674514771	None	None	None	None	1
2.7	2015_Jun_03_1010	s	s	17	3	SIC	304	ABS	2	0	02VD 02VO 10VC 02MD 02MO 02MC 02RD 02RO	0	1	2.60068893433	None	None	None	None	1
2.7	2015_Jun_03_1010	s	s	17	3	SIC	305	RC	0	2	02VD 02VO 02VC 02MD 02MO 02MC 09RD 02RO	1	0	1.7296359539	292.0	350.0	305	354	1
2.7	2015_Jun_03_1010	s	s	17	3	SIC	306	ABS	0	1	02VD 02VO 02VC 02MD 02MO 02MC 02RD 10RO	0	1	3.34217405319	None	None	None	None	1
2.7	2015_Jun_03_1010	s	s	17	3	SIC	307	ABS	0	2	02VD 02VO 02VC 02MD 02MO 02MC 10RD 02RO	0	1	2.38055586815	None	None	None	None	1
2.7	2015_Jun_03_1010	s	s	17	3	SIC	308	ABS	2	0	02VD 02VO 10VC 02MD 02MO 02MC 02RD 02RO	0	1	3.21266198158	None	None	None	None	1
2.7	2015_Jun_03_1010	s	s	17	3	SIC	309	ABS	2	2	10VD 02VO 02VC 02MD 02MO 02MC 02RD 02RO	0	1	1.86711001396	None	None	None	None	1
2.7	2015_Jun_03_1010	s	s	17	3	SIC	310	RC	1	1	02VD 02VO 02VC 02MD 09MO 02MC 02RD 02RO	1	0	1.03153204918	-395.0	22.0	-393	19	1
2.7	2015_Jun_03_1010	s	s	17	3	SIC	311	RC	1	0	02VD 02VO 02VC 02MD 02MO 09MC 02RD 02RO	1	0	2.00858306885	496.0	-59.0	494	-51	1
2.7	2015_Jun_03_1010	s	s	17	3	SIC	312	RC	2	0	02VD 02VO 09VC 02MD 02MO 02MC 02RD 02RO	1	0	0.961844921112	-137.0	227.0	-151	232	1
2.7	2015_Jun_03_1010	s	s	17	3	SIC	313	RC	2	2	09VD 02VO 02VC 02MD 02MO 02MC 02RD 02RO	1	0	0.664500951767	73.0	88.0	74	86	1
2.7	2015_Jun_03_1010	s	s	17	3	SIC	314	RC	1	2	02VD 02VO 02VC 09MD 02MO 02MC 02RD 02RO	1	0	1.64368510246	-538.0	-184.0	-529	-176	1
2.7	2015_Jun_03_1010	s	s	17	3	SIC	315	ABS	2	1	02VD 10VO 02VC 02MD 02MO 02MC 02RD 02RO	0	1	3.27165699005	None	None	None	None	1
2.7	2015_Jun_03_1010	s	s	17	3	SIC	316	ABS	1	1	02VD 02VO 02VC 02MD 10MO 02MC 02RD 02RO	0	1	4.43688797951	None	None	None	None	1
2.7	2015_Jun_03_1010	s	s	17	3	SIC	317	ABS	1	0	02VD 02VO 02VC 02MD 02MO 10MC 02RD 02RO	0	1	2.93019509315	None	None	None	None	1
2.7	2015_Jun_03_1010	s	s	17	3	SIC	318	ABS	1	2	02VD 02VO 02VC 10MD 02MO 02MC 02RD 02RO	0	1	3.68076586723	None	None	None	None	1
2.7	2015_Jun_03_1010	s	s	17	3	SIC	319	RC	2	1	02VD 09VO 02VC 02MD 02MO 02MC 02RD 02RO	1	0	1.49199104309	509.0	95.0	501	95	1
2.7	2015_Jun_03_1010	s	s	17	3	SIC	320	RC	0	1	02VD 02VO 02VC 02MD 02MO 02MC 02RD 09RO	1	0	1.77338194847	530.0	226.0	530	231	1
2.7	2015_Jun_03_1010	s	s	17	3	SIC	321	ABS	1	1	02VD 02VO 02VC 02MD 10MO 02MC 02RD 02RO	1	0	1.56491804123	None	None	-486	-410	0
2.7	2015_Jun_03_1010	s	s	17	3	SIC	322	RC	2	1	02VD 09VO 02VC 02MD 02MO 02MC 02RD 02RO	1	0	4.45381402969	-511.0	-408.0	-508	-407	1
2.7	2015_Jun_03_1010	s	s	17	3	SIC	323	RC	1	1	02VD 02VO 02VC 02MD 09MO 02MC 02RD 02RO	1	0	1.0469558239	-379.0	174.0	-379	174	1
2.7	2015_Jun_03_1010	s	s	17	3	SIC	324	ABS	1	0	02VD 02VO 02VC 02MD 02MO 10MC 02RD 02RO	0	1	3.38658499718	None	None	None	None	1
2.7	2015_Jun_03_1010	s	s	17	3	SIC	325	RC	0	1	02VD 02VO 02VC 02MD 02MO 02MC 02RD 09RO	1	0	1.888712883	-138.0	-358.0	-133	-353	1
2.7	2015_Jun_03_1010	s	s	17	3	SIC	326	RC	0	2	02VD 02VO 02VC 02MD 02MO 02MC 09RD 02RO	1	0	4.32525801659	190.0	-245.0	191	-240	1
2.7	2015_Jun_03_1010	s	s	17	3	SIC	327	ABS	0	2	02VD 02VO 02VC 02MD 02MO 02MC 10RD 02RO	0	1	1.95368599892	None	None	None	None	1
2.7	2015_Jun_03_1010	s	s	17	3	SIC	328	RC	1	2	02VD 02VO 02VC 09MD 02MO 02MC 02RD 02RO	1	0	2.28288006783	222.0	287.0	224	287	1
2.7	2015_Jun_03_1010	s	s	17	3	SIC	329	RC	2	0	02VD 02VO 09VC 02MD 02MO 02MC 02RD 02RO	1	0	1.9533059597	177.0	-105.0	179	-105	1
2.7	2015_Jun_03_1010	s	s	17	3	SIC	330	ABS	2	1	02VD 10VO 02VC 02MD 02MO 02MC 02RD 02RO	0	1	2.41967797279	None	None	None	None	1
2.7	2015_Jun_03_1010	s	s	17	3	SIC	331	ABS	2	2	10VD 02VO 02VC 02MD 02MO 02MC 02RD 02RO	0	1	2.00394392014	None	None	None	None	1
2.7	2015_Jun_03_1010	s	s	17	3	SIC	332	ABS	2	0	02VD 02VO 10VC 02MD 02MO 02MC 02RD 02RO	0	1	2.48306202888	None	None	None	None	1
2.7	2015_Jun_03_1010	s	s	17	3	SIC	333	RC	2	2	09VD 02VO 02VC 02MD 02MO 02MC 02RD 02RO	1	0	0.973540067673	-49.0	374.0	-59	373	1
2.7	2015_Jun_03_1010	s	s	17	3	SIC	334	RC	1	0	02VD 02VO 02VC 02MD 02MO 09MC 02RD 02RO	1	0	2.21850895882	-517.0	-133.0	-520	-135	1
2.7	2015_Jun_03_1010	s	s	17	3	SIC	335	ABS	0	1	02VD 02VO 02VC 02MD 02MO 02MC 02RD 10RO	0	1	3.53942990303	None	None	None	None	1
2.7	2015_Jun_03_1010	s	s	17	3	SIC	336	ABS	1	2	02VD 02VO 02VC 10MD 02MO 02MC 02RD 02RO	0	1	2.53856110573	None	None	None	None	1
2.7	2015_Jun_03_1010	s	s	17	3	SIC	337	RC	2	2	09VD 02VO 02VC 02MD 02MO 02MC 02RD 02RO	1	0	1.0269651413	31.0	393.0	27	395	1
2.7	2015_Jun_03_1010	s	s	17	3	SIC	338	ABS	1	0	02VD 02VO 02VC 02MD 02MO 10MC 02RD 02RO	0	1	2.78887200356	None	None	None	None	1
2.7	2015_Jun_03_1010	s	s	17	3	SIC	339	ABS	0	2	02VD 02VO 02VC 02MD 02MO 02MC 10RD 02RO	0	1	2.56535983086	None	None	None	None	1
2.7	2015_Jun_03_1010	s	s	17	3	SIC	340	RC	1	2	02VD 02VO 02VC 09MD 02MO 02MC 02RD 02RO	1	0	1.81201720238	311.0	-252.0	302	-250	1
2.7	2015_Jun_03_1010	s	s	17	3	SIC	341	RC	0	1	02VD 02VO 02VC 02MD 02MO 02MC 02RD 09RO	0	1	4.80226588249	-493.0	-299.0	None	None	0
2.7	2015_Jun_03_1010	s	s	17	3	SIC	342	RC	2	0	02VD 02VO 09VC 02MD 02MO 02MC 02RD 02RO	1	0	1.23583507538	491.0	333.0	495	333	1
2.7	2015_Jun_03_1010	s	s	17	3	SIC	343	ABS	1	2	02VD 02VO 02VC 10MD 02MO 02MC 02RD 02RO	0	1	2.58431196213	None	None	None	None	1
2.7	2015_Jun_03_1010	s	s	17	3	SIC	344	ABS	2	0	02VD 02VO 10VC 02MD 02MO 02MC 02RD 02RO	0	1	2.97738289833	None	None	None	None	1
2.7	2015_Jun_03_1010	s	s	17	3	SIC	345	ABS	0	1	02VD 02VO 02VC 02MD 02MO 02MC 02RD 10RO	0	1	3.45993900299	None	None	None	None	1
2.7	2015_Jun_03_1010	s	s	17	3	SIC	346	RC	1	0	02VD 02VO 02VC 02MD 02MO 09MC 02RD 02RO	1	0	5.84660315514	502.0	-398.0	497	-408	1
2.7	2015_Jun_03_1010	s	s	17	3	SIC	347	ABS	2	1	02VD 10VO 02VC 02MD 02MO 02MC 02RD 02RO	0	1	2.09064507484	None	None	None	None	1
2.7	2015_Jun_03_1010	s	s	17	3	SIC	348	ABS	1	1	02VD 02VO 02VC 02MD 10MO 02MC 02RD 02RO	0	1	2.01219010353	None	None	None	None	1
2.7	2015_Jun_03_1010	s	s	17	3	SIC	349	RC	2	1	02VD 09VO 02VC 02MD 02MO 02MC 02RD 02RO	1	0	1.38303399086	465.0	-337.0	462	-336	1
2.7	2015_Jun_03_1010	s	s	17	3	SIC	350	ABS	2	2	10VD 02VO 02VC 02MD 02MO 02MC 02RD 02RO	0	1	2.15334606171	None	None	None	None	1
2.7	2015_Jun_03_1010	s	s	17	3	SIC	351	RC	0	2	02VD 02VO 02VC 02MD 02MO 02MC 09RD 02RO	1	0	2.314027071	-122.0	366.0	-133	370	1
2.7	2015_Jun_03_1010	s	s	17	3	SIC	352	RC	1	1	02VD 02VO 02VC 02MD 09MO 02MC 02RD 02RO	1	0	0.99493098259	-369.0	351.0	-374	360	1
2.7	2015_Jun_03_1010	s	s	17	3	SIC	353	ABS	0	2	02VD 02VO 02VC 02MD 02MO 02MC 10RD 02RO	0	1	2.45953392982	None	None	None	None	1
2.7	2015_Jun_03_1010	s	s	17	3	SIC	354	RC	2	0	02VD 02VO 09VC 02MD 02MO 02MC 02RD 02RO	1	0	1.77668595314	112.0	-311.0	115	-314	1
2.7	2015_Jun_03_1010	s	s	17	3	SIC	355	ABS	2	2	10VD 02VO 02VC 02MD 02MO 02MC 02RD 02RO	0	1	2.59757494926	None	None	None	None	1
2.7	2015_Jun_03_1010	s	s	17	3	SIC	356	ABS	2	1	02VD 10VO 02VC 02MD 02MO 02MC 02RD 02RO	0	1	3.79790782928	None	None	None	None	1
2.7	2015_Jun_03_1010	s	s	17	3	SIC	357	RC	1	0	02VD 02VO 02VC 02MD 02MO 09MC 02RD 02RO	1	0	3.03624510765	-150.0	-306.0	-150	-298	1
2.7	2015_Jun_03_1010	s	s	17	3	SIC	358	ABS	0	1	02VD 02VO 02VC 02MD 02MO 02MC 02RD 10RO	0	1	5.26082897186	None	None	None	None	1
2.7	2015_Jun_03_1010	s	s	17	3	SIC	359	RC	2	1	02VD 09VO 02VC 02MD 02MO 02MC 02RD 02RO	1	0	1.17224287987	-157.0	-40.0	-159	-32	1
2.7	2015_Jun_03_1010	s	s	17	3	SIC	360	ABS	1	2	02VD 02VO 02VC 10MD 02MO 02MC 02RD 02RO	0	1	2.19725394249	None	None	None	None	1
2.7	2015_Jun_03_1010	s	s	17	3	SIC	361	RC	0	2	02VD 02VO 02VC 02MD 02MO 02MC 09RD 02RO	1	0	0.995768070221	-268.0	319.0	-266	321	1
2.7	2015_Jun_03_1010	s	s	17	3	SIC	362	RC	1	2	02VD 02VO 02VC 09MD 02MO 02MC 02RD 02RO	1	0	1.34130501747	67.0	-367.0	73	-373	1
2.7	2015_Jun_03_1010	s	s	17	3	SIC	363	RC	0	1	02VD 02VO 02VC 02MD 02MO 02MC 02RD 09RO	0	1	3.85470819473	-503.0	-167.0	None	None	0
2.7	2015_Jun_03_1010	s	s	17	3	SIC	364	ABS	2	0	02VD 02VO 10VC 02MD 02MO 02MC 02RD 02RO	0	1	3.35085892677	None	None	None	None	1
2.7	2015_Jun_03_1010	s	s	17	3	SIC	365	RC	1	1	02VD 02VO 02VC 02MD 09MO 02MC 02RD 02RO	1	0	0.976143836975	-352.0	-59.0	-357	-57	1
2.7	2015_Jun_03_1010	s	s	17	3	SIC	366	RC	2	2	09VD 02VO 02VC 02MD 02MO 02MC 02RD 02RO	1	0	0.788027048111	-145.0	156.0	-145	165	1
2.7	2015_Jun_03_1010	s	s	17	3	SIC	367	ABS	1	1	02VD 02VO 02VC 02MD 10MO 02MC 02RD 02RO	0	1	1.98605513573	None	None	None	None	1
2.7	2015_Jun_03_1010	s	s	17	3	SIC	368	ABS	1	0	02VD 02VO 02VC 02MD 02MO 10MC 02RD 02RO	0	1	2.63602209091	None	None	None	None	1
2.7	2015_Jun_03_1010	s	s	17	3	SIC	369	RC	2	2	09VD 02VO 02VC 02MD 02MO 02MC 02RD 02RO	1	0	1.0941221714	7.0	-306.0	5	-305	1
2.7	2015_Jun_03_1010	s	s	17	3	SIC	370	ABS	1	1	02VD 02VO 02VC 02MD 10MO 02MC 02RD 02RO	0	1	2.68035793304	None	None	None	None	1
2.7	2015_Jun_03_1010	s	s	17	3	SIC	371	ABS	2	2	10VD 02VO 02VC 02MD 02MO 02MC 02RD 02RO	0	1	2.5535697937	None	None	None	None	1
2.7	2015_Jun_03_1010	s	s	17	3	SIC	372	RC	2	1	02VD 09VO 02VC 02MD 02MO 02MC 02RD 02RO	1	0	1.48914813995	486.0	306.0	496	314	1
2.7	2015_Jun_03_1010	s	s	17	3	SIC	373	ABS	2	1	02VD 10VO 02VC 02MD 02MO 02MC 02RD 02RO	0	1	1.87717700005	None	None	None	None	1
2.7	2015_Jun_03_1010	s	s	17	3	SIC	374	ABS	2	0	02VD 02VO 10VC 02MD 02MO 02MC 02RD 02RO	0	1	2.13893008232	None	None	None	None	1
2.7	2015_Jun_03_1010	s	s	17	3	SIC	375	RC	0	2	02VD 02VO 02VC 02MD 02MO 02MC 09RD 02RO	1	0	1.32638883591	534.0	-85.0	524	-86	1
2.7	2015_Jun_03_1010	s	s	17	3	SIC	376	ABS	1	0	02VD 02VO 02VC 02MD 02MO 10MC 02RD 02RO	0	1	4.91941213608	None	None	None	None	1
2.7	2015_Jun_03_1010	s	s	17	3	SIC	377	ABS	0	2	02VD 02VO 02VC 02MD 02MO 02MC 10RD 02RO	0	1	2.07734799385	None	None	None	None	1
2.7	2015_Jun_03_1010	s	s	17	3	SIC	378	RC	1	2	02VD 02VO 02VC 09MD 02MO 02MC 02RD 02RO	1	0	2.7958650589	374.0	-357.0	363	-351	1
2.7	2015_Jun_03_1010	s	s	17	3	SIC	379	RC	1	1	02VD 02VO 02VC 02MD 09MO 02MC 02RD 02RO	1	0	2.89033389091	-438.0	192.0	-431	199	1
2.7	2015_Jun_03_1010	s	s	17	3	SIC	380	RC	1	0	02VD 02VO 02VC 02MD 02MO 09MC 02RD 02RO	1	0	0.724024057388	36.0	97.0	31	92	1
2.7	2015_Jun_03_1010	s	s	17	3	SIC	381	RC	0	1	02VD 02VO 02VC 02MD 02MO 02MC 02RD 09RO	1	0	10.6871340275	-456.0	233.0	-468	235	1
2.7	2015_Jun_03_1010	s	s	17	3	SIC	382	RC	2	0	02VD 02VO 09VC 02MD 02MO 02MC 02RD 02RO	1	0	0.681983947754	90.0	-5.0	95	-9	1
2.7	2015_Jun_03_1010	s	s	17	3	SIC	383	ABS	1	2	02VD 02VO 02VC 10MD 02MO 02MC 02RD 02RO	0	1	1.53319001198	None	None	None	None	1
2.7	2015_Jun_03_1010	s	s	17	3	SIC	384	ABS	0	1	02VD 02VO 02VC 02MD 02MO 02MC 02RD 10RO	0	1	3.02168703079	None	None	None	None	1
2.7	2015_Jun_03_1010	s	s	17	3	SIC	385	RC	1	0	02VD 02VO 02VC 02MD 02MO 09MC 02RD 02RO	1	0	0.905965089798	-225.0	211.0	-227	210	1
2.7	2015_Jun_03_1010	s	s	17	3	SIC	386	ABS	2	2	10VD 02VO 02VC 02MD 02MO 02MC 02RD 02RO	0	1	1.44401597977	None	None	None	None	1
2.7	2015_Jun_03_1010	s	s	17	3	SIC	387	ABS	0	1	02VD 02VO 02VC 02MD 02MO 02MC 02RD 10RO	0	1	2.86730599403	None	None	None	None	1
2.7	2015_Jun_03_1010	s	s	17	3	SIC	388	RC	2	2	09VD 02VO 02VC 02MD 02MO 02MC 02RD 02RO	1	0	1.92473602295	-293.0	-211.0	-295	-205	1
2.7	2015_Jun_03_1010	s	s	17	3	SIC	389	RC	2	0	02VD 02VO 09VC 02MD 02MO 02MC 02RD 02RO	1	0	1.57328796387	404.0	330.0	415	331	1
2.7	2015_Jun_03_1010	s	s	17	3	SIC	390	ABS	0	2	02VD 02VO 02VC 02MD 02MO 02MC 10RD 02RO	0	1	2.58889889717	None	None	None	None	1
2.7	2015_Jun_03_1010	s	s	17	3	SIC	391	ABS	2	1	02VD 10VO 02VC 02MD 02MO 02MC 02RD 02RO	0	1	1.93581700325	None	None	None	None	1
2.7	2015_Jun_03_1010	s	s	17	3	SIC	392	ABS	1	1	02VD 02VO 02VC 02MD 10MO 02MC 02RD 02RO	0	1	1.93015885353	None	None	None	None	1
2.7	2015_Jun_03_1010	s	s	17	3	SIC	393	RC	0	2	02VD 02VO 02VC 02MD 02MO 02MC 09RD 02RO	1	0	2.03204798698	392.0	-186.0	393	-183	1
2.7	2015_Jun_03_1010	s	s	17	3	SIC	394	RC	1	1	02VD 02VO 02VC 02MD 09MO 02MC 02RD 02RO	1	0	1.0704638958	253.0	-22.0	253	-18	1
2.7	2015_Jun_03_1010	s	s	17	3	SIC	395	ABS	1	0	02VD 02VO 02VC 02MD 02MO 10MC 02RD 02RO	0	1	2.66613221169	None	None	None	None	1
2.7	2015_Jun_03_1010	s	s	17	3	SIC	396	ABS	2	0	02VD 02VO 10VC 02MD 02MO 02MC 02RD 02RO	0	1	2.70257210732	None	None	None	None	1
2.7	2015_Jun_03_1010	s	s	17	3	SIC	397	RC	0	1	02VD 02VO 02VC 02MD 02MO 02MC 02RD 09RO	0	1	3.76028299332	-384.0	42.0	None	None	0
2.7	2015_Jun_03_1010	s	s	17	3	SIC	398	RC	1	2	02VD 02VO 02VC 09MD 02MO 02MC 02RD 02RO	1	0	0.746955871582	-327.0	15.0	-327	17	1
2.7	2015_Jun_03_1010	s	s	17	3	SIC	399	RC	2	1	02VD 09VO 02VC 02MD 02MO 02MC 02RD 02RO	1	0	1.87969994545	-186.0	-299.0	-188	-300	1
2.7	2015_Jun_03_1010	s	s	17	3	SIC	400	ABS	1	2	02VD 02VO 02VC 10MD 02MO 02MC 02RD 02RO	0	1	2.07697701454	None	None	None	None	1
2.7	2015_Jun_03_1010	s	s	17	3	SIC	401	RC	2	0	02VD 02VO 09VC 02MD 02MO 02MC 02RD 02RO	1	0	1.27060508728	89.0	-267.0	80	-261	1
2.7	2015_Jun_03_1010	s	s	17	3	SIC	402	RC	1	0	02VD 02VO 02VC 02MD 02MO 09MC 02RD 02RO	1	0	2.36517810822	467.0	-312.0	456	-310	1
2.7	2015_Jun_03_1010	s	s	17	3	SIC	403	ABS	0	1	02VD 02VO 02VC 02MD 02MO 02MC 02RD 10RO	0	1	4.28042602539	None	None	None	None	1
2.7	2015_Jun_03_1010	s	s	17	3	SIC	404	ABS	2	2	10VD 02VO 02VC 02MD 02MO 02MC 02RD 02RO	0	1	2.01812195778	None	None	None	None	1
2.7	2015_Jun_03_1010	s	s	17	3	SIC	405	RC	1	1	02VD 02VO 02VC 02MD 09MO 02MC 02RD 02RO	1	0	0.947270870209	-324.0	-261.0	-316	-266	1
2.7	2015_Jun_03_1010	s	s	17	3	SIC	406	RC	0	2	02VD 02VO 02VC 02MD 02MO 02MC 09RD 02RO	1	0	1.43192696571	-284.0	-26.0	-286	-26	1
2.7	2015_Jun_03_1010	s	s	17	3	SIC	407	RC	0	1	02VD 02VO 02VC 02MD 02MO 02MC 02RD 09RO	1	0	1.1918900013	-64.0	-79.0	-62	-81	1
2.7	2015_Jun_03_1010	s	s	17	3	SIC	408	ABS	1	0	02VD 02VO 02VC 02MD 02MO 10MC 02RD 02RO	0	1	2.94203090668	None	None	None	None	1
2.7	2015_Jun_03_1010	s	s	17	3	SIC	409	RC	1	2	02VD 02VO 02VC 09MD 02MO 02MC 02RD 02RO	1	0	2.60967206955	-349.0	-405.0	-352	-415	1
2.7	2015_Jun_03_1010	s	s	17	3	SIC	410	ABS	2	1	02VD 10VO 02VC 02MD 02MO 02MC 02RD 02RO	0	1	1.86596703529	None	None	None	None	1
2.7	2015_Jun_03_1010	s	s	17	3	SIC	411	ABS	0	2	02VD 02VO 02VC 02MD 02MO 02MC 10RD 02RO	0	1	2.0775449276	None	None	None	None	1
2.7	2015_Jun_03_1010	s	s	17	3	SIC	412	ABS	1	1	02VD 02VO 02VC 02MD 10MO 02MC 02RD 02RO	0	1	2.18063807487	None	None	None	None	1
2.7	2015_Jun_03_1010	s	s	17	3	SIC	413	RC	2	2	09VD 02VO 02VC 02MD 02MO 02MC 02RD 02RO	1	0	2.67131996155	-115.0	88.0	-115	90	1
2.7	2015_Jun_03_1010	s	s	17	3	SIC	414	RC	2	1	02VD 09VO 02VC 02MD 02MO 02MC 02RD 02RO	1	0	1.03087306023	-130.0	315.0	-133	308	1
2.7	2015_Jun_03_1010	s	s	17	3	SIC	415	ABS	2	0	02VD 02VO 10VC 02MD 02MO 02MC 02RD 02RO	0	1	2.48298120499	None	None	None	None	1
2.7	2015_Jun_03_1010	s	s	17	3	SIC	416	ABS	1	2	02VD 02VO 02VC 10MD 02MO 02MC 02RD 02RO	0	1	2.37221097946	None	None	None	None	1
2.7	2015_Jun_03_1010	s	s	17	3	SIC	417	RC	0	1	02VD 02VO 02VC 02MD 02MO 02MC 02RD 09RO	1	0	2.44263601303	502.0	-269.0	497	-270	1
2.7	2015_Jun_03_1010	s	s	17	3	SIC	418	RC	2	2	09VD 02VO 02VC 02MD 02MO 02MC 02RD 02RO	1	0	1.20829200745	236.0	-150.0	226	-150	1
2.7	2015_Jun_03_1010	s	s	17	3	SIC	419	ABS	2	2	10VD 02VO 02VC 02MD 02MO 02MC 02RD 02RO	0	1	2.0647919178	None	None	None	None	1
2.7	2015_Jun_03_1010	s	s	17	3	SIC	420	RC	1	2	02VD 02VO 02VC 09MD 02MO 02MC 02RD 02RO	1	0	1.23020505905	35.0	-249.0	27	-253	1
2.7	2015_Jun_03_1010	s	s	17	3	SIC	421	RC	1	1	02VD 02VO 02VC 02MD 09MO 02MC 02RD 02RO	1	0	6.39068198204	476.0	-411.0	477	-416	1
2.7	2015_Jun_03_1010	s	s	17	3	SIC	422	ABS	2	1	02VD 10VO 02VC 02MD 02MO 02MC 02RD 02RO	0	1	1.81969809532	None	None	None	None	1
2.7	2015_Jun_03_1010	s	s	17	3	SIC	423	RC	0	2	02VD 02VO 02VC 02MD 02MO 02MC 09RD 02RO	1	0	0.740952014923	-172.0	92.0	-177	96	1
2.7	2015_Jun_03_1010	s	s	17	3	SIC	424	ABS	0	1	02VD 02VO 02VC 02MD 02MO 02MC 02RD 10RO	0	1	2.41244578362	None	None	None	None	1
2.7	2015_Jun_03_1010	s	s	17	3	SIC	425	ABS	0	2	02VD 02VO 02VC 02MD 02MO 02MC 10RD 02RO	0	1	2.65425109863	None	None	None	None	1
2.7	2015_Jun_03_1010	s	s	17	3	SIC	426	ABS	1	0	02VD 02VO 02VC 02MD 02MO 10MC 02RD 02RO	0	1	2.47127199173	None	None	None	None	1
2.7	2015_Jun_03_1010	s	s	17	3	SIC	427	ABS	1	1	02VD 02VO 02VC 02MD 10MO 02MC 02RD 02RO	0	1	2.3259909153	None	None	None	None	1
2.7	2015_Jun_03_1010	s	s	17	3	SIC	428	ABS	1	2	02VD 02VO 02VC 10MD 02MO 02MC 02RD 02RO	0	1	2.21224999428	None	None	None	None	1
2.7	2015_Jun_03_1010	s	s	17	3	SIC	429	RC	2	1	02VD 09VO 02VC 02MD 02MO 02MC 02RD 02RO	1	0	1.21865200996	134.0	212.0	134	206	1
2.7	2015_Jun_03_1010	s	s	17	3	SIC	430	ABS	2	0	02VD 02VO 10VC 02MD 02MO 02MC 02RD 02RO	0	1	2.66302800179	None	None	None	None	1
2.7	2015_Jun_03_1010	s	s	17	3	SIC	431	RC	2	0	02VD 02VO 09VC 02MD 02MO 02MC 02RD 02RO	1	0	2.77215695381	473.0	-312.0	471	-313	1
2.7	2015_Jun_03_1010	s	s	17	3	SIC	432	RC	1	0	02VD 02VO 02VC 02MD 02MO 09MC 02RD 02RO	1	0	1.45356917381	494.0	321.0	496	326	1
2.7	2015_Jun_03_1010	s	s	17	3	SIC	433	RC	2	0	02VD 02VO 09VC 02MD 02MO 02MC 02RD 02RO	1	0	1.64727902412	369.0	10.0	376	12	1
2.7	2015_Jun_03_1010	s	s	17	3	SIC	434	ABS	1	2	02VD 02VO 02VC 10MD 02MO 02MC 02RD 02RO	0	1	1.94154620171	None	None	None	None	1
2.7	2015_Jun_03_1010	s	s	17	3	SIC	435	RC	0	2	02VD 02VO 02VC 02MD 02MO 02MC 09RD 02RO	1	0	1.22925782204	-62.0	-105.0	-59	-102	1
2.7	2015_Jun_03_1010	s	s	17	3	SIC	436	RC	2	1	02VD 09VO 02VC 02MD 02MO 02MC 02RD 02RO	1	0	0.761814832687	-171.0	141.0	-165	139	1
2.7	2015_Jun_03_1010	s	s	17	3	SIC	437	RC	1	1	02VD 02VO 02VC 02MD 09MO 02MC 02RD 02RO	1	0	1.38547992706	-439.0	-311.0	-441	-312	1
2.7	2015_Jun_03_1010	s	s	17	3	SIC	438	RC	0	1	02VD 02VO 02VC 02MD 02MO 02MC 02RD 09RO	1	0	1.95328712463	527.0	90.0	529	94	1
2.7	2015_Jun_03_1010	s	s	17	3	SIC	439	ABS	1	0	02VD 02VO 02VC 02MD 02MO 10MC 02RD 02RO	0	1	2.64777493477	None	None	None	None	1
2.7	2015_Jun_03_1010	s	s	17	3	SIC	440	ABS	0	1	02VD 02VO 02VC 02MD 02MO 02MC 02RD 10RO	0	1	3.59659719467	None	None	None	None	1
2.7	2015_Jun_03_1010	s	s	17	3	SIC	441	ABS	2	2	10VD 02VO 02VC 02MD 02MO 02MC 02RD 02RO	0	1	2.25416994095	None	None	None	None	1
2.7	2015_Jun_03_1010	s	s	17	3	SIC	442	RC	1	0	02VD 02VO 02VC 02MD 02MO 09MC 02RD 02RO	1	0	1.36037683487	527.0	237.0	528	239	1
2.7	2015_Jun_03_1010	s	s	17	3	SIC	443	ABS	2	1	02VD 10VO 02VC 02MD 02MO 02MC 02RD 02RO	0	1	2.57363200188	None	None	None	None	1
2.7	2015_Jun_03_1010	s	s	17	3	SIC	444	RC	2	2	09VD 02VO 02VC 02MD 02MO 02MC 02RD 02RO	1	0	1.54131007195	-306.0	-370.0	-298	-362	1
2.7	2015_Jun_03_1010	s	s	17	3	SIC	445	ABS	0	2	02VD 02VO 02VC 02MD 02MO 02MC 10RD 02RO	0	1	2.00037002563	None	None	None	None	1
2.7	2015_Jun_03_1010	s	s	17	3	SIC	446	ABS	1	1	02VD 02VO 02VC 02MD 10MO 02MC 02RD 02RO	0	1	3.53807210922	None	None	None	None	1
2.7	2015_Jun_03_1010	s	s	17	3	SIC	447	RC	1	2	02VD 02VO 02VC 09MD 02MO 02MC 02RD 02RO	1	0	1.68970108032	238.0	-305.0	238	-308	1
2.7	2015_Jun_03_1010	s	s	17	3	SIC	448	ABS	2	0	02VD 02VO 10VC 02MD 02MO 02MC 02RD 02RO	0	1	2.61251187325	None	None	None	None	1
2.7	2015_Jun_03_1010	s	s	17	3	SIC	449	ABS	1	1	02VD 02VO 02VC 02MD 10MO 02MC 02RD 02RO	0	1	3.53053402901	None	None	None	None	1
2.7	2015_Jun_03_1010	s	s	17	3	SIC	450	RC	1	0	02VD 02VO 02VC 02MD 02MO 09MC 02RD 02RO	0	1	4.89971899986	117.0	-288.0	None	None	0
2.7	2015_Jun_03_1010	s	s	17	3	SIC	451	RC	1	1	02VD 02VO 02VC 02MD 09MO 02MC 02RD 02RO	1	0	2.34912514687	228.0	-273.0	221	-279	1
2.7	2015_Jun_03_1010	s	s	17	3	SIC	452	RC	2	1	02VD 09VO 02VC 02MD 02MO 02MC 02RD 02RO	1	0	6.55285787582	370.0	-218.0	378	-213	1
2.7	2015_Jun_03_1010	s	s	17	3	SIC	453	ABS	0	1	02VD 02VO 02VC 02MD 02MO 02MC 02RD 10RO	0	1	2.38878297806	None	None	None	None	1
2.7	2015_Jun_03_1010	s	s	17	3	SIC	454	RC	1	2	02VD 02VO 02VC 09MD 02MO 02MC 02RD 02RO	1	0	1.39207983017	-21.0	338.0	-26	336	1
2.7	2015_Jun_03_1010	s	s	17	3	SIC	455	RC	2	2	09VD 02VO 02VC 02MD 02MO 02MC 02RD 02RO	1	0	2.01217317581	535.0	206.0	544	213	1
2.7	2015_Jun_03_1010	s	s	17	3	SIC	456	RC	0	1	02VD 02VO 02VC 02MD 02MO 02MC 02RD 09RO	0	1	3.06864094734	-494.0	-292.0	None	None	0
2.7	2015_Jun_03_1010	s	s	17	3	SIC	457	ABS	1	2	02VD 02VO 02VC 10MD 02MO 02MC 02RD 02RO	0	1	1.91208410263	None	None	None	None	1
2.7	2015_Jun_03_1010	s	s	17	3	SIC	458	ABS	2	2	10VD 02VO 02VC 02MD 02MO 02MC 02RD 02RO	0	1	1.85100507736	None	None	None	None	1
2.7	2015_Jun_03_1010	s	s	17	3	SIC	459	ABS	0	2	02VD 02VO 02VC 02MD 02MO 02MC 10RD 02RO	0	1	2.15920495987	None	None	None	None	1
2.7	2015_Jun_03_1010	s	s	17	3	SIC	460	ABS	2	0	02VD 02VO 10VC 02MD 02MO 02MC 02RD 02RO	0	1	2.03577804565	None	None	None	None	1
2.7	2015_Jun_03_1010	s	s	17	3	SIC	461	ABS	2	1	02VD 10VO 02VC 02MD 02MO 02MC 02RD 02RO	0	1	2.7862329483	None	None	None	None	1
2.7	2015_Jun_03_1010	s	s	17	3	SIC	462	RC	2	0	02VD 02VO 09VC 02MD 02MO 02MC 02RD 02RO	1	0	0.796371936798	-169.0	56.0	-165	61	1
2.7	2015_Jun_03_1010	s	s	17	3	SIC	463	RC	0	2	02VD 02VO 02VC 02MD 02MO 02MC 09RD 02RO	1	0	1.06699299812	-476.0	48.0	-482	49	1
2.7	2015_Jun_03_1010	s	s	17	3	SIC	464	ABS	1	0	02VD 02VO 02VC 02MD 02MO 10MC 02RD 02RO	0	1	3.44819307327	None	None	None	None	1
2.7	2015_Jun_03_1010	s	s	17	3	SIC	465	ABS	2	2	10VD 02VO 02VC 02MD 02MO 02MC 02RD 02RO	0	1	1.59529495239	None	None	None	None	1
2.7	2015_Jun_03_1010	s	s	17	3	SIC	466	RC	0	1	02VD 02VO 02VC 02MD 02MO 02MC 02RD 09RO	0	1	4.23677515984	-471.0	109.0	None	None	0
2.7	2015_Jun_03_1010	s	s	17	3	SIC	467	ABS	1	0	02VD 02VO 02VC 02MD 02MO 10MC 02RD 02RO	0	1	3.21270895004	None	None	None	None	1
2.7	2015_Jun_03_1010	s	s	17	3	SIC	468	ABS	0	1	02VD 02VO 02VC 02MD 02MO 02MC 02RD 10RO	0	1	4.36634206772	None	None	None	None	1
2.7	2015_Jun_03_1010	s	s	17	3	SIC	469	RC	2	1	02VD 09VO 02VC 02MD 02MO 02MC 02RD 02RO	1	0	1.14116406441	54.0	404.0	49	400	1
2.7	2015_Jun_03_1010	s	s	17	3	SIC	470	RC	2	0	02VD 02VO 09VC 02MD 02MO 02MC 02RD 02RO	0	1	2.6632630825	356.0	-154.0	None	None	0
2.7	2015_Jun_03_1010	s	s	17	3	SIC	471	RC	1	1	02VD 02VO 02VC 02MD 09MO 02MC 02RD 02RO	1	0	1.12411785126	265.0	94.0	250	100	1
2.7	2015_Jun_03_1010	s	s	17	3	SIC	472	ABS	1	1	02VD 02VO 02VC 02MD 10MO 02MC 02RD 02RO	0	1	2.6674349308	None	None	None	None	1
2.7	2015_Jun_03_1010	s	s	17	3	SIC	473	RC	1	0	02VD 02VO 02VC 02MD 02MO 09MC 02RD 02RO	1	0	1.69439196587	212.0	209.0	208	206	1
2.7	2015_Jun_03_1010	s	s	17	3	SIC	474	ABS	2	0	02VD 02VO 10VC 02MD 02MO 02MC 02RD 02RO	0	1	1.89085888863	None	None	None	None	1
2.7	2015_Jun_03_1010	s	s	17	3	SIC	475	ABS	1	2	02VD 02VO 02VC 10MD 02MO 02MC 02RD 02RO	0	1	1.55317020416	None	None	None	None	1
2.7	2015_Jun_03_1010	s	s	17	3	SIC	476	RC	1	2	02VD 02VO 02VC 09MD 02MO 02MC 02RD 02RO	1	0	0.979974985123	191.0	-124.0	195	-132	1
2.7	2015_Jun_03_1010	s	s	17	3	SIC	477	RC	2	2	09VD 02VO 02VC 02MD 02MO 02MC 02RD 02RO	1	0	1.12925100327	-139.0	240.0	-130	241	1
2.7	2015_Jun_03_1010	s	s	17	3	SIC	478	RC	0	2	02VD 02VO 02VC 02MD 02MO 02MC 09RD 02RO	1	0	0.997195005417	66.0	-272.0	62	-285	1
2.7	2015_Jun_03_1010	s	s	17	3	SIC	479	ABS	0	2	02VD 02VO 02VC 02MD 02MO 02MC 10RD 02RO	0	1	1.87139511108	None	None	None	None	1
2.7	2015_Jun_03_1010	s	s	17	3	SIC	480	ABS	2	1	02VD 10VO 02VC 02MD 02MO 02MC 02RD 02RO	0	1	1.87722396851	None	None	None	None	1
