Version	Date	Stimuli	Method	Subject	Session	Condition	Trial	Target	Channel1	Channel2	Distractors	LMouseButton	RMouseButton	RT	TargetX	TargetY	ResponseX	ResponseY	Correct
2.7	2015_Jun_04_1014	s	s	17	4	Capacity	1	ABS	0	2	16RD 08RO	0	1	3.6599919796	None	None	None	None	1
2.7	2015_Jun_04_1014	s	s	17	4	Capacity	2	RC	0	2	15RD 08RO	1	0	1.20689702034	224.0	-253.0	227	-251	1
2.7	2015_Jun_04_1014	s	s	17	4	Capacity	3	ABS	0	1	08RD 16RO	0	1	4.44066500664	None	None	None	None	1
2.7	2015_Jun_04_1014	s	s	17	4	Capacity	4	RC	0	1	08RD 15RO	1	0	1.21178293228	-286.0	340.0	-291	336	1
2.7	2015_Jun_04_1014	s	s	17	4	Capacity	5	ABS	0	2	16RD 08RO	0	1	3.09246206284	None	None	None	None	1
2.7	2015_Jun_04_1014	s	s	17	4	Capacity	6	ABS	0	1	08RD 16RO	0	1	3.30227923393	None	None	None	None	1
2.7	2015_Jun_04_1014	s	s	17	4	Capacity	7	RC	0	2	15RD 08RO	1	0	0.619908094406	-120.0	137.0	-114	143	1
2.7	2015_Jun_04_1014	s	s	17	4	Capacity	8	RC	0	1	08RD 15RO	1	0	3.58514809608	532.0	-17.0	541	-17	1
2.7	2015_Jun_04_1014	s	s	17	4	Capacity	9	ABS	0	2	16RD 08RO	0	1	2.47116303444	None	None	None	None	1
2.7	2015_Jun_04_1014	s	s	17	4	Capacity	10	ABS	0	1	08RD 16RO	0	1	6.20293593407	None	None	None	None	1
2.7	2015_Jun_04_1014	s	s	17	4	Capacity	11	RC	0	2	15RD 08RO	1	0	1.90058422089	-3.0	385.0	-6	386	1
2.7	2015_Jun_04_1014	s	s	17	4	Capacity	12	RC	0	1	08RD 15RO	1	0	2.87141489983	346.0	-170.0	343	-168	1
2.7	2015_Jun_04_1014	s	s	17	4	Capacity	13	ABS	0	2	16RD 08RO	0	1	3.1303999424	None	None	None	None	1
2.7	2015_Jun_04_1014	s	s	17	4	Capacity	14	RC	0	2	15RD 08RO	1	0	0.959966897964	197.0	101.0	196	96	1
2.7	2015_Jun_04_1014	s	s	17	4	Capacity	15	RC	0	1	08RD 15RO	1	0	0.891592025757	-462.0	357.0	-463	358	1
2.7	2015_Jun_04_1014	s	s	17	4	Capacity	16	ABS	0	1	08RD 16RO	0	1	4.52810692787	None	None	None	None	1
2.7	2015_Jun_04_1014	s	s	17	4	Capacity	17	ABS	0	2	16RD 08RO	0	1	2.97739911079	None	None	None	None	1
2.7	2015_Jun_04_1014	s	s	17	4	Capacity	18	RC	0	1	08RD 15RO	1	0	2.92271089554	477.0	102.0	476	100	1
2.7	2015_Jun_04_1014	s	s	17	4	Capacity	19	ABS	0	1	08RD 16RO	0	1	5.2453789711	None	None	None	None	1
2.7	2015_Jun_04_1014	s	s	17	4	Capacity	20	RC	0	2	15RD 08RO	1	0	0.757699966431	-103.0	272.0	-105	277	1
2.7	2015_Jun_04_1014	s	s	17	4	Capacity	21	RC	0	1	08RD 15RO	1	0	2.883040905	399.0	-48.0	397	-52	1
2.7	2015_Jun_04_1014	s	s	17	4	Capacity	22	ABS	0	2	16RD 08RO	0	1	3.79580211639	None	None	None	None	1
2.7	2015_Jun_04_1014	s	s	17	4	Capacity	23	ABS	0	1	08RD 16RO	0	1	4.8135330677	None	None	None	None	1
2.7	2015_Jun_04_1014	s	s	17	4	Capacity	24	RC	0	2	15RD 08RO	1	0	1.51268386841	438.0	308.0	437	306	1
2.7	2015_Jun_04_1014	s	s	17	4	Capacity	25	ABS	0	2	16RD 08RO	0	1	3.18426299095	None	None	None	None	1
2.7	2015_Jun_04_1014	s	s	17	4	Capacity	26	RC	0	2	15RD 08RO	1	0	2.36518216133	424.0	246.0	423	247	1
2.7	2015_Jun_04_1014	s	s	17	4	Capacity	27	RC	0	1	08RD 15RO	1	0	0.958237886429	531.0	-67.0	534	-65	1
2.7	2015_Jun_04_1014	s	s	17	4	Capacity	28	ABS	0	1	08RD 16RO	0	1	5.06067585945	None	None	None	None	1
2.7	2015_Jun_04_1014	s	s	17	4	Capacity	29	ABS	0	1	08RD 16RO	0	1	5.85717988014	None	None	None	None	1
2.7	2015_Jun_04_1014	s	s	17	4	Capacity	30	RC	0	2	15RD 08RO	1	0	0.643213033676	68.0	216.0	70	212	1
2.7	2015_Jun_04_1014	s	s	17	4	Capacity	31	ABS	0	2	16RD 08RO	0	1	3.35410785675	None	None	None	None	1
2.7	2015_Jun_04_1014	s	s	17	4	Capacity	32	RC	0	1	08RD 15RO	1	0	0.925752878189	-191.0	343.0	-194	350	1
2.7	2015_Jun_04_1014	s	s	17	4	Capacity	33	RC	0	2	15RD 08RO	1	0	0.750206947327	-380.0	309.0	-368	310	1
2.7	2015_Jun_04_1014	s	s	17	4	Capacity	34	RC	0	1	08RD 15RO	1	0	2.32473516464	355.0	-168.0	351	-167	1
2.7	2015_Jun_04_1014	s	s	17	4	Capacity	35	ABS	0	2	16RD 08RO	0	1	4.06024909019	None	None	None	None	1
2.7	2015_Jun_04_1014	s	s	17	4	Capacity	36	ABS	0	1	08RD 16RO	0	1	2.97726583481	None	None	None	None	1
2.7	2015_Jun_04_1014	s	s	17	4	Capacity	37	ABS	0	2	16RD 08RO	0	1	3.87877607346	None	None	None	None	1
2.7	2015_Jun_04_1014	s	s	17	4	Capacity	38	RC	0	2	15RD 08RO	1	0	2.48672485352	305.0	322.0	298	330	1
2.7	2015_Jun_04_1014	s	s	17	4	Capacity	39	ABS	0	1	08RD 16RO	0	1	4.1633169651	None	None	None	None	1
2.7	2015_Jun_04_1014	s	s	17	4	Capacity	40	RC	0	1	08RD 15RO	1	0	3.82472205162	459.0	109.0	463	113	1
2.7	2015_Jun_04_1014	s	s	17	4	Capacity	41	RC	0	1	08RD 15RO	1	0	2.694917202	124.0	-393.0	127	-393	1
2.7	2015_Jun_04_1014	s	s	17	4	Capacity	42	RC	0	2	15RD 08RO	1	0	2.54182195663	442.0	288.0	442	287	1
2.7	2015_Jun_04_1014	s	s	17	4	Capacity	43	ABS	0	1	08RD 16RO	0	1	4.502161026	None	None	None	None	1
2.7	2015_Jun_04_1014	s	s	17	4	Capacity	44	ABS	0	2	16RD 08RO	0	1	3.64826798439	None	None	None	None	1
2.7	2015_Jun_04_1014	s	s	17	4	Capacity	45	ABS	0	1	08RD 16RO	0	1	4.84523296356	None	None	None	None	1
2.7	2015_Jun_04_1014	s	s	17	4	Capacity	46	RC	0	1	08RD 15RO	1	0	3.6012070179	445.0	21.0	447	31	1
2.7	2015_Jun_04_1014	s	s	17	4	Capacity	47	RC	0	2	15RD 08RO	1	0	1.56482505798	-531.0	-21.0	-543	-17	1
2.7	2015_Jun_04_1014	s	s	17	4	Capacity	48	ABS	0	2	16RD 08RO	0	1	5.26080703735	None	None	None	None	1
2.7	2015_Jun_04_1014	s	s	17	4	Capacity	49	ABS	0	2	16RD 08RO	0	1	2.82419705391	None	None	None	None	1
2.7	2015_Jun_04_1014	s	s	17	4	Capacity	50	RC	0	2	15RD 08RO	1	0	1.76498794556	-144.0	194.0	-142	194	1
2.7	2015_Jun_04_1014	s	s	17	4	Capacity	51	RC	0	1	08RD 15RO	1	0	2.72613596916	327.0	-199.0	327	-190	1
2.7	2015_Jun_04_1014	s	s	17	4	Capacity	52	ABS	0	1	08RD 16RO	0	1	5.17599081993	None	None	None	None	1
2.7	2015_Jun_04_1014	s	s	17	4	Capacity	53	RC	0	2	15RD 08RO	0	1	3.76583003998	-490.0	203.0	None	None	0
2.7	2015_Jun_04_1014	s	s	17	4	Capacity	54	RC	0	1	08RD 15RO	1	0	1.28827500343	-219.0	-136.0	-210	-138	1
2.7	2015_Jun_04_1014	s	s	17	4	Capacity	55	ABS	0	2	16RD 08RO	0	1	2.5015540123	None	None	None	None	1
2.7	2015_Jun_04_1014	s	s	17	4	Capacity	56	ABS	0	1	08RD 16RO	0	1	5.30298185349	None	None	None	None	1
2.7	2015_Jun_04_1014	s	s	17	4	Capacity	57	ABS	0	1	08RD 16RO	0	1	4.91954421997	None	None	None	None	1
2.7	2015_Jun_04_1014	s	s	17	4	Capacity	58	ABS	0	2	16RD 08RO	0	1	3.66003990173	None	None	None	None	1
2.7	2015_Jun_04_1014	s	s	17	4	Capacity	59	RC	0	2	15RD 08RO	1	0	1.26815390587	-236.0	275.0	-239	273	1
2.7	2015_Jun_04_1014	s	s	17	4	Capacity	60	RC	0	1	08RD 15RO	1	0	1.76083803177	-400.0	-139.0	-406	-144	1
2.7	2015_Jun_04_1014	s	s	17	4	Capacity	61	ABS	0	1	08RD 16RO	0	1	5.05590295792	None	None	None	None	1
2.7	2015_Jun_04_1014	s	s	17	4	Capacity	62	RC	0	1	08RD 15RO	1	0	2.23625588417	156.0	-356.0	149	-359	1
2.7	2015_Jun_04_1014	s	s	17	4	Capacity	63	ABS	0	2	16RD 08RO	0	1	3.83193993568	None	None	None	None	1
2.7	2015_Jun_04_1014	s	s	17	4	Capacity	64	RC	0	2	15RD 08RO	1	0	0.776242017746	-359.0	94.0	-366	87	1
2.7	2015_Jun_04_1014	s	s	17	4	Capacity	1	ABS	2	0	16VC 08MC	0	1	1.33629894257	None	None	None	None	1
2.7	2015_Jun_04_1014	s	s	17	4	Capacity	2	ABS	1	0	08VC 16MC	0	1	2.03130722046	None	None	None	None	1
2.7	2015_Jun_04_1014	s	s	17	4	Capacity	3	RC	1	0	08VC 15MC	1	0	0.890936136246	-477.0	338.0	-474	333	1
2.7	2015_Jun_04_1014	s	s	17	4	Capacity	4	RC	2	0	15VC 08MC	1	0	1.14096808434	-140.0	-110.0	-140	-118	1
2.7	2015_Jun_04_1014	s	s	17	4	Capacity	5	RC	1	0	08VC 15MC	1	0	1.49092388153	41.0	-366.0	33	-372	1
2.7	2015_Jun_04_1014	s	s	17	4	Capacity	6	RC	2	0	15VC 08MC	1	0	0.952704906464	183.0	-178.0	182	-171	1
2.7	2015_Jun_04_1014	s	s	17	4	Capacity	7	ABS	2	0	16VC 08MC	0	1	1.34145998955	None	None	None	None	1
2.7	2015_Jun_04_1014	s	s	17	4	Capacity	8	ABS	1	0	08VC 16MC	0	1	1.06422996521	None	None	None	None	1
2.7	2015_Jun_04_1014	s	s	17	4	Capacity	9	RC	2	0	15VC 08MC	1	0	0.658528089523	311.0	-30.0	311	-29	1
2.7	2015_Jun_04_1014	s	s	17	4	Capacity	10	ABS	1	0	08VC 16MC	0	1	2.16190195084	None	None	None	None	1
2.7	2015_Jun_04_1014	s	s	17	4	Capacity	11	RC	1	0	08VC 15MC	1	0	0.984785795212	-470.0	-298.0	-473	-295	1
2.7	2015_Jun_04_1014	s	s	17	4	Capacity	12	ABS	2	0	16VC 08MC	0	1	1.1843829155	None	None	None	None	1
2.7	2015_Jun_04_1014	s	s	17	4	Capacity	13	ABS	2	0	16VC 08MC	0	1	0.830039024353	None	None	None	None	1
2.7	2015_Jun_04_1014	s	s	17	4	Capacity	14	ABS	1	0	08VC 16MC	0	1	0.776227235794	None	None	None	None	1
2.7	2015_Jun_04_1014	s	s	17	4	Capacity	15	RC	1	0	08VC 15MC	1	0	0.585541963577	-50.0	53.0	-47	56	1
2.7	2015_Jun_04_1014	s	s	17	4	Capacity	16	RC	2	0	15VC 08MC	1	0	0.823426008224	505.0	-89.0	499	-86	1
2.7	2015_Jun_04_1014	s	s	17	4	Capacity	17	ABS	1	0	08VC 16MC	0	1	1.51775884628	None	None	None	None	1
2.7	2015_Jun_04_1014	s	s	17	4	Capacity	18	RC	1	0	08VC 15MC	1	0	0.667474985123	-434.0	127.0	-445	128	1
2.7	2015_Jun_04_1014	s	s	17	4	Capacity	19	ABS	2	0	16VC 08MC	0	1	0.940943956375	None	None	None	None	1
2.7	2015_Jun_04_1014	s	s	17	4	Capacity	20	RC	2	0	15VC 08MC	1	0	0.972564935684	9.0	-185.0	14	-184	1
2.7	2015_Jun_04_1014	s	s	17	4	Capacity	21	ABS	1	0	08VC 16MC	0	1	1.61874294281	None	None	None	None	1
2.7	2015_Jun_04_1014	s	s	17	4	Capacity	22	ABS	2	0	16VC 08MC	0	1	2.06766796112	None	None	None	None	1
2.7	2015_Jun_04_1014	s	s	17	4	Capacity	23	RC	1	0	08VC 15MC	1	0	0.996261119843	221.0	-385.0	220	-381	1
2.7	2015_Jun_04_1014	s	s	17	4	Capacity	24	RC	2	0	15VC 08MC	1	0	0.693812847137	361.0	-21.0	352	-19	1
2.7	2015_Jun_04_1014	s	s	17	4	Capacity	25	ABS	1	0	08VC 16MC	0	1	1.07838201523	None	None	None	None	1
2.7	2015_Jun_04_1014	s	s	17	4	Capacity	26	RC	2	0	15VC 08MC	1	0	0.774163007736	361.0	-80.0	370	-79	1
2.7	2015_Jun_04_1014	s	s	17	4	Capacity	27	RC	1	0	08VC 15MC	1	0	0.905631065369	480.0	203.0	487	207	1
2.7	2015_Jun_04_1014	s	s	17	4	Capacity	28	ABS	2	0	16VC 08MC	0	1	1.31760597229	None	None	None	None	1
2.7	2015_Jun_04_1014	s	s	17	4	Capacity	29	RC	1	0	08VC 15MC	1	0	0.549211025238	-33.0	207.0	-28	207	1
2.7	2015_Jun_04_1014	s	s	17	4	Capacity	30	ABS	2	0	16VC 08MC	0	1	1.74146103859	None	None	None	None	1
2.7	2015_Jun_04_1014	s	s	17	4	Capacity	31	ABS	1	0	08VC 16MC	0	1	2.87138104439	None	None	None	None	1
2.7	2015_Jun_04_1014	s	s	17	4	Capacity	32	RC	2	0	15VC 08MC	1	0	0.905742883682	401.0	-319.0	403	-320	1
2.7	2015_Jun_04_1014	s	s	17	4	Capacity	33	ABS	1	0	08VC 16MC	0	1	1.33578205109	None	None	None	None	1
2.7	2015_Jun_04_1014	s	s	17	4	Capacity	34	ABS	2	0	16VC 08MC	0	1	1.12694907188	None	None	None	None	1
2.7	2015_Jun_04_1014	s	s	17	4	Capacity	35	RC	1	0	08VC 15MC	1	0	1.07656693459	-145.0	70.0	-133	73	1
2.7	2015_Jun_04_1014	s	s	17	4	Capacity	36	RC	2	0	15VC 08MC	1	0	1.38828206062	-342.0	-402.0	-346	-400	1
2.7	2015_Jun_04_1014	s	s	17	4	Capacity	37	ABS	2	0	16VC 08MC	0	1	1.6777100563	None	None	None	None	1
2.7	2015_Jun_04_1014	s	s	17	4	Capacity	38	RC	1	0	08VC 15MC	1	0	0.677234172821	-162.0	316.0	-149	319	1
2.7	2015_Jun_04_1014	s	s	17	4	Capacity	39	ABS	1	0	08VC 16MC	0	1	1.23532104492	None	None	None	None	1
2.7	2015_Jun_04_1014	s	s	17	4	Capacity	40	RC	2	0	15VC 08MC	1	0	0.650554895401	181.0	-199.0	186	-202	1
2.7	2015_Jun_04_1014	s	s	17	4	Capacity	41	ABS	1	0	08VC 16MC	0	1	1.42730093002	None	None	None	None	1
2.7	2015_Jun_04_1014	s	s	17	4	Capacity	42	ABS	2	0	16VC 08MC	0	1	1.89201307297	None	None	None	None	1
2.7	2015_Jun_04_1014	s	s	17	4	Capacity	43	RC	1	0	08VC 15MC	1	0	0.6466588974	71.0	-95.0	70	-103	1
2.7	2015_Jun_04_1014	s	s	17	4	Capacity	44	RC	2	0	15VC 08MC	1	0	0.905655860901	279.0	-243.0	276	-236	1
2.7	2015_Jun_04_1014	s	s	17	4	Capacity	45	ABS	2	0	16VC 08MC	0	1	1.28230500221	None	None	None	None	1
2.7	2015_Jun_04_1014	s	s	17	4	Capacity	46	RC	2	0	15VC 08MC	1	0	0.653322935104	381.0	346.0	393	352	1
2.7	2015_Jun_04_1014	s	s	17	4	Capacity	47	ABS	1	0	08VC 16MC	0	1	1.77343702316	None	None	None	None	1
2.7	2015_Jun_04_1014	s	s	17	4	Capacity	48	RC	1	0	08VC 15MC	1	0	0.585489988327	361.0	-36.0	364	-28	1
2.7	2015_Jun_04_1014	s	s	17	4	Capacity	49	RC	2	0	15VC 08MC	1	0	0.641544103622	-393.0	221.0	-397	218	1
2.7	2015_Jun_04_1014	s	s	17	4	Capacity	50	ABS	2	0	16VC 08MC	0	1	1.27046990395	None	None	None	None	1
2.7	2015_Jun_04_1014	s	s	17	4	Capacity	51	RC	1	0	08VC 15MC	1	0	0.511985063553	413.0	234.0	410	234	1
2.7	2015_Jun_04_1014	s	s	17	4	Capacity	52	ABS	1	0	08VC 16MC	0	1	1.78337097168	None	None	None	None	1
2.7	2015_Jun_04_1014	s	s	17	4	Capacity	53	RC	2	0	15VC 08MC	1	0	0.605798006058	352.0	-97.0	363	-87	1
2.7	2015_Jun_04_1014	s	s	17	4	Capacity	54	RC	1	0	08VC 15MC	1	0	0.936122894287	178.0	-177.0	181	-176	1
2.7	2015_Jun_04_1014	s	s	17	4	Capacity	55	ABS	1	0	08VC 16MC	0	1	1.67063617706	None	None	None	None	1
2.7	2015_Jun_04_1014	s	s	17	4	Capacity	56	ABS	2	0	16VC 08MC	0	1	1.52459287643	None	None	None	None	1
2.7	2015_Jun_04_1014	s	s	17	4	Capacity	57	ABS	1	0	08VC 16MC	0	1	1.74138307571	None	None	None	None	1
2.7	2015_Jun_04_1014	s	s	17	4	Capacity	58	RC	1	0	08VC 15MC	1	0	0.865748882294	-357.0	299.0	-360	302	1
2.7	2015_Jun_04_1014	s	s	17	4	Capacity	59	RC	2	0	15VC 08MC	1	0	0.914113044739	109.0	-162.0	108	-172	1
2.7	2015_Jun_04_1014	s	s	17	4	Capacity	60	ABS	2	0	16VC 08MC	0	1	1.24275493622	None	None	None	None	1
2.7	2015_Jun_04_1014	s	s	17	4	Capacity	61	ABS	2	0	16VC 08MC	0	1	1.14102101326	None	None	None	None	1
2.7	2015_Jun_04_1014	s	s	17	4	Capacity	62	ABS	1	0	08VC 16MC	0	1	1.32421398163	None	None	None	None	1
2.7	2015_Jun_04_1014	s	s	17	4	Capacity	63	RC	1	0	08VC 15MC	1	0	0.685930013657	-143.0	-6.0	-130	-3	1
2.7	2015_Jun_04_1014	s	s	17	4	Capacity	64	RC	2	0	15VC 08MC	1	0	0.599719047546	528.0	-27.0	527	-18	1
2.7	2015_Jun_04_1014	s	s	17	4	SIC	1	RC	2	0	02VD 02VO 09VC 02MD 02MO 02MC 02RD 02RO	1	0	0.988095998764	255.0	255.0	252	263	1
2.7	2015_Jun_04_1014	s	s	17	4	SIC	2	RC	0	1	02VD 02VO 02VC 02MD 02MO 02MC 02RD 09RO	1	0	1.87719798088	408.0	-158.0	408	-158	1
2.7	2015_Jun_04_1014	s	s	17	4	SIC	3	ABS	1	1	02VD 02VO 02VC 02MD 10MO 02MC 02RD 02RO	1	0	0.703258991241	None	None	34	-21	0
2.7	2015_Jun_04_1014	s	s	17	4	SIC	4	ABS	0	2	02VD 02VO 02VC 02MD 02MO 02MC 10RD 02RO	0	1	2.11256885529	None	None	None	None	1
2.7	2015_Jun_04_1014	s	s	17	4	SIC	5	ABS	2	1	02VD 10VO 02VC 02MD 02MO 02MC 02RD 02RO	0	1	2.10670995712	None	None	None	None	1
2.7	2015_Jun_04_1014	s	s	17	4	SIC	6	ABS	1	0	02VD 02VO 02VC 02MD 02MO 10MC 02RD 02RO	0	1	2.54178714752	None	None	None	None	1
2.7	2015_Jun_04_1014	s	s	17	4	SIC	7	ABS	1	2	02VD 02VO 02VC 10MD 02MO 02MC 02RD 02RO	0	1	2.12970495224	None	None	None	None	1
2.7	2015_Jun_04_1014	s	s	17	4	SIC	8	RC	1	0	02VD 02VO 02VC 02MD 02MO 09MC 02RD 02RO	1	0	0.982496023178	-321.0	29.0	-335	36	1
2.7	2015_Jun_04_1014	s	s	17	4	SIC	9	RC	0	2	02VD 02VO 02VC 02MD 02MO 02MC 09RD 02RO	1	0	1.30590796471	492.0	-330.0	503	-329	1
2.7	2015_Jun_04_1014	s	s	17	4	SIC	10	RC	2	2	09VD 02VO 02VC 02MD 02MO 02MC 02RD 02RO	1	0	1.70369410515	383.0	342.0	380	335	1
2.7	2015_Jun_04_1014	s	s	17	4	SIC	11	ABS	2	2	10VD 02VO 02VC 02MD 02MO 02MC 02RD 02RO	0	1	1.69090390205	None	None	None	None	1
2.7	2015_Jun_04_1014	s	s	17	4	SIC	12	RC	1	1	02VD 02VO 02VC 02MD 09MO 02MC 02RD 02RO	1	0	0.917509078979	489.0	-316.0	492	-310	1
2.7	2015_Jun_04_1014	s	s	17	4	SIC	13	RC	2	1	02VD 09VO 02VC 02MD 02MO 02MC 02RD 02RO	1	0	1.4471540451	-324.0	83.0	-323	80	1
2.7	2015_Jun_04_1014	s	s	17	4	SIC	14	RC	1	2	02VD 02VO 02VC 09MD 02MO 02MC 02RD 02RO	1	0	1.58833312988	-412.0	-183.0	-415	-182	1
2.7	2015_Jun_04_1014	s	s	17	4	SIC	15	ABS	2	0	02VD 02VO 10VC 02MD 02MO 02MC 02RD 02RO	0	1	2.23038101196	None	None	None	None	1
2.7	2015_Jun_04_1014	s	s	17	4	SIC	16	ABS	0	1	02VD 02VO 02VC 02MD 02MO 02MC 02RD 10RO	0	1	4.89322090149	None	None	None	None	1
2.7	2015_Jun_04_1014	s	s	17	4	SIC	17	ABS	1	1	02VD 02VO 02VC 02MD 10MO 02MC 02RD 02RO	0	1	1.86510109901	None	None	None	None	1
2.7	2015_Jun_04_1014	s	s	17	4	SIC	18	ABS	2	1	02VD 10VO 02VC 02MD 02MO 02MC 02RD 02RO	0	1	2.84541392326	None	None	None	None	1
2.7	2015_Jun_04_1014	s	s	17	4	SIC	19	RC	2	1	02VD 09VO 02VC 02MD 02MO 02MC 02RD 02RO	1	0	1.87707591057	-32.0	-152.0	-47	-145	1
2.7	2015_Jun_04_1014	s	s	17	4	SIC	20	RC	0	1	02VD 02VO 02VC 02MD 02MO 02MC 02RD 09RO	1	0	0.795372009277	-133.0	-74.0	-131	-73	1
2.7	2015_Jun_04_1014	s	s	17	4	SIC	21	RC	2	2	09VD 02VO 02VC 02MD 02MO 02MC 02RD 02RO	1	0	1.06442093849	305.0	86.0	298	87	1
2.7	2015_Jun_04_1014	s	s	17	4	SIC	22	ABS	0	1	02VD 02VO 02VC 02MD 02MO 02MC 02RD 10RO	0	1	4.18441700935	None	None	None	None	1
2.7	2015_Jun_04_1014	s	s	17	4	SIC	23	ABS	2	2	10VD 02VO 02VC 02MD 02MO 02MC 02RD 02RO	0	1	2.48288583755	None	None	None	None	1
2.7	2015_Jun_04_1014	s	s	17	4	SIC	24	ABS	0	2	02VD 02VO 02VC 02MD 02MO 02MC 10RD 02RO	0	1	2.23071813583	None	None	None	None	1
2.7	2015_Jun_04_1014	s	s	17	4	SIC	25	RC	0	2	02VD 02VO 02VC 02MD 02MO 02MC 09RD 02RO	1	0	1.22985100746	-162.0	-239.0	-168	-239	1
2.7	2015_Jun_04_1014	s	s	17	4	SIC	26	ABS	1	2	02VD 02VO 02VC 10MD 02MO 02MC 02RD 02RO	0	1	1.71789908409	None	None	None	None	1
2.7	2015_Jun_04_1014	s	s	17	4	SIC	27	ABS	1	0	02VD 02VO 02VC 02MD 02MO 10MC 02RD 02RO	0	1	1.85919094086	None	None	None	None	1
2.7	2015_Jun_04_1014	s	s	17	4	SIC	28	RC	1	2	02VD 02VO 02VC 09MD 02MO 02MC 02RD 02RO	1	0	0.97141289711	-143.0	-402.0	-134	-397	1
2.7	2015_Jun_04_1014	s	s	17	4	SIC	29	RC	1	0	02VD 02VO 02VC 02MD 02MO 09MC 02RD 02RO	1	0	0.914132118225	120.0	205.0	118	202	1
2.7	2015_Jun_04_1014	s	s	17	4	SIC	30	RC	1	1	02VD 02VO 02VC 02MD 09MO 02MC 02RD 02RO	1	0	2.00031614304	140.0	-331.0	141	-331	1
2.7	2015_Jun_04_1014	s	s	17	4	SIC	31	ABS	2	0	02VD 02VO 10VC 02MD 02MO 02MC 02RD 02RO	0	1	2.15015792847	None	None	None	None	1
2.7	2015_Jun_04_1014	s	s	17	4	SIC	32	RC	2	0	02VD 02VO 09VC 02MD 02MO 02MC 02RD 02RO	1	0	0.724143981934	7.0	170.0	8	168	1
2.7	2015_Jun_04_1014	s	s	17	4	SIC	33	ABS	1	0	02VD 02VO 02VC 02MD 02MO 10MC 02RD 02RO	0	1	3.03106498718	None	None	None	None	1
2.7	2015_Jun_04_1014	s	s	17	4	SIC	34	ABS	0	1	02VD 02VO 02VC 02MD 02MO 02MC 02RD 10RO	0	1	4.03666806221	None	None	None	None	1
2.7	2015_Jun_04_1014	s	s	17	4	SIC	35	RC	1	0	02VD 02VO 02VC 02MD 02MO 09MC 02RD 02RO	1	0	1.11550593376	534.0	133.0	539	131	1
2.7	2015_Jun_04_1014	s	s	17	4	SIC	36	ABS	2	0	02VD 02VO 10VC 02MD 02MO 02MC 02RD 02RO	0	1	2.25397396088	None	None	None	None	1
2.7	2015_Jun_04_1014	s	s	17	4	SIC	37	RC	2	1	02VD 09VO 02VC 02MD 02MO 02MC 02RD 02RO	1	0	0.715330839157	-220.0	192.0	-212	195	1
2.7	2015_Jun_04_1014	s	s	17	4	SIC	38	RC	1	2	02VD 02VO 02VC 09MD 02MO 02MC 02RD 02RO	1	0	0.740911960602	-362.0	119.0	-358	120	1
2.7	2015_Jun_04_1014	s	s	17	4	SIC	39	RC	2	2	09VD 02VO 02VC 02MD 02MO 02MC 02RD 02RO	1	0	0.776229858398	-2.0	-138.0	-4	-139	1
2.7	2015_Jun_04_1014	s	s	17	4	SIC	40	ABS	0	2	02VD 02VO 02VC 02MD 02MO 02MC 10RD 02RO	0	1	2.01209402084	None	None	None	None	1
2.7	2015_Jun_04_1014	s	s	17	4	SIC	41	ABS	1	2	02VD 02VO 02VC 10MD 02MO 02MC 02RD 02RO	0	1	2.43320894241	None	None	None	None	1
2.7	2015_Jun_04_1014	s	s	17	4	SIC	42	ABS	2	2	10VD 02VO 02VC 02MD 02MO 02MC 02RD 02RO	0	1	1.88255214691	None	None	None	None	1
2.7	2015_Jun_04_1014	s	s	17	4	SIC	43	RC	2	0	02VD 02VO 09VC 02MD 02MO 02MC 02RD 02RO	1	0	0.832437992096	165.0	-97.0	165	-92	1
2.7	2015_Jun_04_1014	s	s	17	4	SIC	44	RC	0	2	02VD 02VO 02VC 02MD 02MO 02MC 09RD 02RO	1	0	1.08211898804	277.0	-220.0	273	-226	1
2.7	2015_Jun_04_1014	s	s	17	4	SIC	45	ABS	2	1	02VD 10VO 02VC 02MD 02MO 02MC 02RD 02RO	0	1	1.35290288925	None	None	None	None	1
2.7	2015_Jun_04_1014	s	s	17	4	SIC	46	RC	1	1	02VD 02VO 02VC 02MD 09MO 02MC 02RD 02RO	1	0	0.905696153641	-355.0	-48.0	-365	-44	1
2.7	2015_Jun_04_1014	s	s	17	4	SIC	47	RC	0	1	02VD 02VO 02VC 02MD 02MO 02MC 02RD 09RO	1	0	1.64718103409	-303.0	321.0	-313	322	1
2.7	2015_Jun_04_1014	s	s	17	4	SIC	48	ABS	1	1	02VD 02VO 02VC 02MD 10MO 02MC 02RD 02RO	0	1	1.95122694969	None	None	None	None	1
2.7	2015_Jun_04_1014	s	s	17	4	SIC	49	ABS	2	2	10VD 02VO 02VC 02MD 02MO 02MC 02RD 02RO	0	1	2.45376205444	None	None	None	None	1
2.7	2015_Jun_04_1014	s	s	17	4	SIC	50	ABS	0	2	02VD 02VO 02VC 02MD 02MO 02MC 10RD 02RO	0	1	2.16017389297	None	None	None	None	1
2.7	2015_Jun_04_1014	s	s	17	4	SIC	51	RC	1	1	02VD 02VO 02VC 02MD 09MO 02MC 02RD 02RO	1	0	1.52724695206	-41.0	-373.0	-42	-365	1
2.7	2015_Jun_04_1014	s	s	17	4	SIC	52	RC	1	0	02VD 02VO 02VC 02MD 02MO 09MC 02RD 02RO	1	0	1.15972089767	-439.0	-309.0	-429	-310	1
2.7	2015_Jun_04_1014	s	s	17	4	SIC	53	ABS	2	0	02VD 02VO 10VC 02MD 02MO 02MC 02RD 02RO	0	1	3.02119803429	None	None	None	None	1
2.7	2015_Jun_04_1014	s	s	17	4	SIC	54	ABS	1	0	02VD 02VO 02VC 02MD 02MO 10MC 02RD 02RO	0	1	2.60063791275	None	None	None	None	1
2.7	2015_Jun_04_1014	s	s	17	4	SIC	55	RC	0	1	02VD 02VO 02VC 02MD 02MO 02MC 02RD 09RO	1	0	0.94811296463	344.0	21.0	341	23	1
2.7	2015_Jun_04_1014	s	s	17	4	SIC	56	RC	2	2	09VD 02VO 02VC 02MD 02MO 02MC 02RD 02RO	1	0	1.16236615181	115.0	-395.0	107	-391	1
2.7	2015_Jun_04_1014	s	s	17	4	SIC	57	RC	2	0	02VD 02VO 09VC 02MD 02MO 02MC 02RD 02RO	1	0	1.17318797112	245.0	296.0	240	302	1
2.7	2015_Jun_04_1014	s	s	17	4	SIC	58	ABS	1	1	02VD 02VO 02VC 02MD 10MO 02MC 02RD 02RO	0	1	1.78317189217	None	None	None	None	1
2.7	2015_Jun_04_1014	s	s	17	4	SIC	59	RC	2	1	02VD 09VO 02VC 02MD 02MO 02MC 02RD 02RO	1	0	0.890161037445	-93.0	-219.0	-97	-219	1
2.7	2015_Jun_04_1014	s	s	17	4	SIC	60	RC	1	2	02VD 02VO 02VC 09MD 02MO 02MC 02RD 02RO	1	0	0.599858999252	-248.0	147.0	-238	151	1
2.7	2015_Jun_04_1014	s	s	17	4	SIC	61	ABS	0	1	02VD 02VO 02VC 02MD 02MO 02MC 02RD 10RO	0	1	4.6099319458	None	None	None	None	1
2.7	2015_Jun_04_1014	s	s	17	4	SIC	62	ABS	1	2	02VD 02VO 02VC 10MD 02MO 02MC 02RD 02RO	0	1	2.55091500282	None	None	None	None	1
2.7	2015_Jun_04_1014	s	s	17	4	SIC	63	ABS	2	1	02VD 10VO 02VC 02MD 02MO 02MC 02RD 02RO	0	1	2.48922395706	None	None	None	None	1
2.7	2015_Jun_04_1014	s	s	17	4	SIC	64	RC	0	2	02VD 02VO 02VC 02MD 02MO 02MC 09RD 02RO	1	0	1.97041487694	504.0	214.0	513	213	1
2.7	2015_Jun_04_1014	s	s	17	4	SIC	65	RC	1	2	02VD 02VO 02VC 09MD 02MO 02MC 02RD 02RO	1	0	1.67062997818	162.0	-320.0	158	-313	1
2.7	2015_Jun_04_1014	s	s	17	4	SIC	66	ABS	1	1	02VD 02VO 02VC 02MD 10MO 02MC 02RD 02RO	0	1	2.31457209587	None	None	None	None	1
2.7	2015_Jun_04_1014	s	s	17	4	SIC	67	ABS	2	1	02VD 10VO 02VC 02MD 02MO 02MC 02RD 02RO	0	1	2.27793598175	None	None	None	None	1
2.7	2015_Jun_04_1014	s	s	17	4	SIC	68	RC	2	1	02VD 09VO 02VC 02MD 02MO 02MC 02RD 02RO	1	0	1.89446997643	4.0	-295.0	4	-299	1
2.7	2015_Jun_04_1014	s	s	17	4	SIC	69	RC	1	1	02VD 02VO 02VC 02MD 09MO 02MC 02RD 02RO	1	0	0.818926095963	-191.0	-38.0	-191	-40	1
2.7	2015_Jun_04_1014	s	s	17	4	SIC	70	RC	2	2	09VD 02VO 02VC 02MD 02MO 02MC 02RD 02RO	1	0	0.70007610321	-141.0	-126.0	-140	-124	1
2.7	2015_Jun_04_1014	s	s	17	4	SIC	71	RC	0	1	02VD 02VO 02VC 02MD 02MO 02MC 02RD 09RO	1	0	0.890867948532	-270.0	-144.0	-276	-137	1
2.7	2015_Jun_04_1014	s	s	17	4	SIC	72	RC	1	0	02VD 02VO 02VC 02MD 02MO 09MC 02RD 02RO	1	0	1.57660317421	-17.0	349.0	-20	355	1
2.7	2015_Jun_04_1014	s	s	17	4	SIC	73	ABS	1	2	02VD 02VO 02VC 10MD 02MO 02MC 02RD 02RO	0	1	1.92985010147	None	None	None	None	1
2.7	2015_Jun_04_1014	s	s	17	4	SIC	74	RC	0	2	02VD 02VO 02VC 02MD 02MO 02MC 09RD 02RO	1	0	0.879952907562	-206.0	301.0	-203	304	1
2.7	2015_Jun_04_1014	s	s	17	4	SIC	75	RC	2	0	02VD 02VO 09VC 02MD 02MO 02MC 02RD 02RO	1	0	1.09176778793	-387.0	296.0	-385	281	1
2.7	2015_Jun_04_1014	s	s	17	4	SIC	76	ABS	2	2	10VD 02VO 02VC 02MD 02MO 02MC 02RD 02RO	0	1	1.706127882	None	None	None	None	1
2.7	2015_Jun_04_1014	s	s	17	4	SIC	77	ABS	2	0	02VD 02VO 10VC 02MD 02MO 02MC 02RD 02RO	0	1	2.28287577629	None	None	None	None	1
2.7	2015_Jun_04_1014	s	s	17	4	SIC	78	ABS	0	2	02VD 02VO 02VC 02MD 02MO 02MC 10RD 02RO	0	1	1.80855202675	None	None	None	None	1
2.7	2015_Jun_04_1014	s	s	17	4	SIC	79	ABS	1	0	02VD 02VO 02VC 02MD 02MO 10MC 02RD 02RO	0	1	1.91565179825	None	None	None	None	1
2.7	2015_Jun_04_1014	s	s	17	4	SIC	80	ABS	0	1	02VD 02VO 02VC 02MD 02MO 02MC 02RD 10RO	0	1	2.63591885567	None	None	None	None	1
2.7	2015_Jun_04_1014	s	s	17	4	SIC	81	RC	2	1	02VD 09VO 02VC 02MD 02MO 02MC 02RD 02RO	1	0	1.79668188095	-290.0	-400.0	-283	-406	1
2.7	2015_Jun_04_1014	s	s	17	4	SIC	82	RC	2	2	09VD 02VO 02VC 02MD 02MO 02MC 02RD 02RO	1	0	3.17425894737	136.0	-155.0	141	-150	1
2.7	2015_Jun_04_1014	s	s	17	4	SIC	83	RC	0	1	02VD 02VO 02VC 02MD 02MO 02MC 02RD 09RO	1	0	1.01995515823	-94.0	-134.0	-90	-125	1
2.7	2015_Jun_04_1014	s	s	17	4	SIC	84	ABS	1	2	02VD 02VO 02VC 10MD 02MO 02MC 02RD 02RO	0	1	1.83557295799	None	None	None	None	1
2.7	2015_Jun_04_1014	s	s	17	4	SIC	85	RC	1	1	02VD 02VO 02VC 02MD 09MO 02MC 02RD 02RO	1	0	0.891610860825	84.0	322.0	83	321	1
2.7	2015_Jun_04_1014	s	s	17	4	SIC	86	ABS	0	1	02VD 02VO 02VC 02MD 02MO 02MC 02RD 10RO	0	1	4.53765201569	None	None	None	None	1
2.7	2015_Jun_04_1014	s	s	17	4	SIC	87	ABS	1	0	02VD 02VO 02VC 02MD 02MO 10MC 02RD 02RO	0	1	2.27105593681	None	None	None	None	1
2.7	2015_Jun_04_1014	s	s	17	4	SIC	88	RC	2	0	02VD 02VO 09VC 02MD 02MO 02MC 02RD 02RO	1	0	1.04689788818	116.0	240.0	103	244	1
2.7	2015_Jun_04_1014	s	s	17	4	SIC	89	RC	1	0	02VD 02VO 02VC 02MD 02MO 09MC 02RD 02RO	1	0	0.670549154282	-49.0	39.0	-52	47	1
2.7	2015_Jun_04_1014	s	s	17	4	SIC	90	ABS	2	2	10VD 02VO 02VC 02MD 02MO 02MC 02RD 02RO	0	1	2.1416079998	None	None	None	None	1
2.7	2015_Jun_04_1014	s	s	17	4	SIC	91	ABS	2	1	02VD 10VO 02VC 02MD 02MO 02MC 02RD 02RO	0	1	2.56302809715	None	None	None	None	1
2.7	2015_Jun_04_1014	s	s	17	4	SIC	92	ABS	2	0	02VD 02VO 10VC 02MD 02MO 02MC 02RD 02RO	0	1	3.73066782951	None	None	None	None	1
2.7	2015_Jun_04_1014	s	s	17	4	SIC	93	RC	1	2	02VD 02VO 02VC 09MD 02MO 02MC 02RD 02RO	1	0	1.19311904907	-308.0	252.0	-307	238	1
2.7	2015_Jun_04_1014	s	s	17	4	SIC	94	ABS	0	2	02VD 02VO 02VC 02MD 02MO 02MC 10RD 02RO	0	1	2.67895913124	None	None	None	None	1
2.7	2015_Jun_04_1014	s	s	17	4	SIC	95	ABS	1	1	02VD 02VO 02VC 02MD 10MO 02MC 02RD 02RO	0	1	2.3742480278	None	None	None	None	1
2.7	2015_Jun_04_1014	s	s	17	4	SIC	96	RC	0	2	02VD 02VO 02VC 02MD 02MO 02MC 09RD 02RO	1	0	0.906007051468	-529.0	174.0	-533	163	1
2.7	2015_Jun_04_1014	s	s	17	4	SIC	97	ABS	2	0	02VD 02VO 10VC 02MD 02MO 02MC 02RD 02RO	0	1	1.83546900749	None	None	None	None	1
2.7	2015_Jun_04_1014	s	s	17	4	SIC	98	RC	2	2	09VD 02VO 02VC 02MD 02MO 02MC 02RD 02RO	1	0	1.11374998093	212.0	-178.0	211	-173	1
2.7	2015_Jun_04_1014	s	s	17	4	SIC	99	ABS	0	2	02VD 02VO 02VC 02MD 02MO 02MC 10RD 02RO	0	1	2.83013081551	None	None	None	None	1
2.7	2015_Jun_04_1014	s	s	17	4	SIC	100	RC	2	0	02VD 02VO 09VC 02MD 02MO 02MC 02RD 02RO	1	0	1.15864491463	419.0	-19.0	412	-22	1
2.7	2015_Jun_04_1014	s	s	17	4	SIC	101	RC	0	1	02VD 02VO 02VC 02MD 02MO 02MC 02RD 09RO	1	0	3.50414800644	-62.0	-389.0	-64	-385	1
2.7	2015_Jun_04_1014	s	s	17	4	SIC	102	ABS	2	1	02VD 10VO 02VC 02MD 02MO 02MC 02RD 02RO	0	1	1.58655905724	None	None	None	None	1
2.7	2015_Jun_04_1014	s	s	17	4	SIC	103	RC	2	1	02VD 09VO 02VC 02MD 02MO 02MC 02RD 02RO	1	0	1.41191101074	-7.0	-253.0	-17	-253	1
2.7	2015_Jun_04_1014	s	s	17	4	SIC	104	RC	1	2	02VD 02VO 02VC 09MD 02MO 02MC 02RD 02RO	1	0	0.856168031693	-94.0	355.0	-94	360	1
2.7	2015_Jun_04_1014	s	s	17	4	SIC	105	ABS	1	1	02VD 02VO 02VC 02MD 10MO 02MC 02RD 02RO	0	1	2.0333302021	None	None	None	None	1
2.7	2015_Jun_04_1014	s	s	17	4	SIC	106	ABS	2	2	10VD 02VO 02VC 02MD 02MO 02MC 02RD 02RO	0	1	1.72740578651	None	None	None	None	1
2.7	2015_Jun_04_1014	s	s	17	4	SIC	107	ABS	1	2	02VD 02VO 02VC 10MD 02MO 02MC 02RD 02RO	0	1	1.57121086121	None	None	None	None	1
2.7	2015_Jun_04_1014	s	s	17	4	SIC	108	ABS	0	1	02VD 02VO 02VC 02MD 02MO 02MC 02RD 10RO	0	1	3.98751091957	None	None	None	None	1
2.7	2015_Jun_04_1014	s	s	17	4	SIC	109	ABS	1	0	02VD 02VO 02VC 02MD 02MO 10MC 02RD 02RO	0	1	2.57200407982	None	None	None	None	1
2.7	2015_Jun_04_1014	s	s	17	4	SIC	110	RC	1	1	02VD 02VO 02VC 02MD 09MO 02MC 02RD 02RO	1	0	1.20829200745	-26.0	-217.0	-30	-223	1
2.7	2015_Jun_04_1014	s	s	17	4	SIC	111	RC	1	0	02VD 02VO 02VC 02MD 02MO 09MC 02RD 02RO	1	0	0.655398130417	-7.0	91.0	-10	83	1
2.7	2015_Jun_04_1014	s	s	17	4	SIC	112	RC	0	2	02VD 02VO 02VC 02MD 02MO 02MC 09RD 02RO	1	0	0.723848819733	110.0	-178.0	110	-179	1
2.7	2015_Jun_04_1014	s	s	17	4	SIC	113	RC	2	0	02VD 02VO 09VC 02MD 02MO 02MC 02RD 02RO	1	0	1.29411697388	432.0	-320.0	440	-319	1
2.7	2015_Jun_04_1014	s	s	17	4	SIC	114	ABS	1	1	02VD 02VO 02VC 02MD 10MO 02MC 02RD 02RO	0	1	1.60546016693	None	None	None	None	1
2.7	2015_Jun_04_1014	s	s	17	4	SIC	115	RC	2	1	02VD 09VO 02VC 02MD 02MO 02MC 02RD 02RO	1	0	1.82140803337	-410.0	-38.0	-412	-38	1
2.7	2015_Jun_04_1014	s	s	17	4	SIC	116	RC	1	1	02VD 02VO 02VC 02MD 09MO 02MC 02RD 02RO	1	0	0.670226097107	-41.0	267.0	-37	275	1
2.7	2015_Jun_04_1014	s	s	17	4	SIC	117	ABS	0	2	02VD 02VO 02VC 02MD 02MO 02MC 10RD 02RO	0	1	1.8362891674	None	None	None	None	1
2.7	2015_Jun_04_1014	s	s	17	4	SIC	118	RC	0	2	02VD 02VO 02VC 02MD 02MO 02MC 09RD 02RO	1	0	0.799780130386	482.0	14.0	484	16	1
2.7	2015_Jun_04_1014	s	s	17	4	SIC	119	ABS	2	2	10VD 02VO 02VC 02MD 02MO 02MC 02RD 02RO	0	1	1.6914999485	None	None	None	None	1
2.7	2015_Jun_04_1014	s	s	17	4	SIC	120	ABS	0	1	02VD 02VO 02VC 02MD 02MO 02MC 02RD 10RO	0	1	2.22406291962	None	None	None	None	1
2.7	2015_Jun_04_1014	s	s	17	4	SIC	121	RC	1	2	02VD 02VO 02VC 09MD 02MO 02MC 02RD 02RO	1	0	0.997289896011	-197.0	324.0	-189	320	1
2.7	2015_Jun_04_1014	s	s	17	4	SIC	122	RC	1	0	02VD 02VO 02VC 02MD 02MO 09MC 02RD 02RO	1	0	1.62982702255	-241.0	-321.0	-233	-313	1
2.7	2015_Jun_04_1014	s	s	17	4	SIC	123	ABS	1	2	02VD 02VO 02VC 10MD 02MO 02MC 02RD 02RO	0	1	2.04229211807	None	None	None	None	1
2.7	2015_Jun_04_1014	s	s	17	4	SIC	124	ABS	1	0	02VD 02VO 02VC 02MD 02MO 10MC 02RD 02RO	0	1	2.99848008156	None	None	None	None	1
2.7	2015_Jun_04_1014	s	s	17	4	SIC	125	ABS	2	1	02VD 10VO 02VC 02MD 02MO 02MC 02RD 02RO	0	1	2.18512487411	None	None	None	None	1
2.7	2015_Jun_04_1014	s	s	17	4	SIC	126	ABS	2	0	02VD 02VO 10VC 02MD 02MO 02MC 02RD 02RO	0	1	2.06757998466	None	None	None	None	1
2.7	2015_Jun_04_1014	s	s	17	4	SIC	127	RC	2	2	09VD 02VO 02VC 02MD 02MO 02MC 02RD 02RO	1	0	1.65898513794	329.0	132.0	328	130	1
2.7	2015_Jun_04_1014	s	s	17	4	SIC	128	RC	0	1	02VD 02VO 02VC 02MD 02MO 02MC 02RD 09RO	1	0	1.34133982658	-392.0	104.0	-389	90	1
2.7	2015_Jun_04_1014	s	s	17	4	SIC	129	ABS	1	1	02VD 02VO 02VC 02MD 10MO 02MC 02RD 02RO	0	1	2.45653605461	None	None	None	None	1
2.7	2015_Jun_04_1014	s	s	17	4	SIC	130	RC	1	2	02VD 02VO 02VC 09MD 02MO 02MC 02RD 02RO	1	0	0.882132053375	324.0	-53.0	314	-54	1
2.7	2015_Jun_04_1014	s	s	17	4	SIC	131	ABS	0	1	02VD 02VO 02VC 02MD 02MO 02MC 02RD 10RO	0	1	2.94007611275	None	None	None	None	1
2.7	2015_Jun_04_1014	s	s	17	4	SIC	132	RC	0	2	02VD 02VO 02VC 02MD 02MO 02MC 09RD 02RO	1	0	0.809245109558	-7.0	299.0	-10	295	1
2.7	2015_Jun_04_1014	s	s	17	4	SIC	133	RC	1	1	02VD 02VO 02VC 02MD 09MO 02MC 02RD 02RO	1	0	0.92488694191	-428.0	219.0	-433	215	1
2.7	2015_Jun_04_1014	s	s	17	4	SIC	134	RC	0	1	02VD 02VO 02VC 02MD 02MO 02MC 02RD 09RO	1	0	1.8472661972	-406.0	232.0	-411	235	1
2.7	2015_Jun_04_1014	s	s	17	4	SIC	135	ABS	2	2	10VD 02VO 02VC 02MD 02MO 02MC 02RD 02RO	0	1	2.00029993057	None	None	None	None	1
2.7	2015_Jun_04_1014	s	s	17	4	SIC	136	RC	2	1	02VD 09VO 02VC 02MD 02MO 02MC 02RD 02RO	1	0	1.0206489563	254.0	-144.0	259	-142	1
2.7	2015_Jun_04_1014	s	s	17	4	SIC	137	RC	2	2	09VD 02VO 02VC 02MD 02MO 02MC 02RD 02RO	1	0	0.650393009186	-294.0	-70.0	-290	-68	1
2.7	2015_Jun_04_1014	s	s	17	4	SIC	138	RC	2	0	02VD 02VO 09VC 02MD 02MO 02MC 02RD 02RO	0	1	1.42345380783	-447.0	-277.0	None	None	0
2.7	2015_Jun_04_1014	s	s	17	4	SIC	139	ABS	0	2	02VD 02VO 02VC 02MD 02MO 02MC 10RD 02RO	0	1	2.18858385086	None	None	None	None	1
2.7	2015_Jun_04_1014	s	s	17	4	SIC	140	ABS	1	2	02VD 02VO 02VC 10MD 02MO 02MC 02RD 02RO	0	1	3.43638205528	None	None	None	None	1
2.7	2015_Jun_04_1014	s	s	17	4	SIC	141	ABS	1	0	02VD 02VO 02VC 02MD 02MO 10MC 02RD 02RO	0	1	2.10632109642	None	None	None	None	1
2.7	2015_Jun_04_1014	s	s	17	4	SIC	142	ABS	2	1	02VD 10VO 02VC 02MD 02MO 02MC 02RD 02RO	0	1	2.14950895309	None	None	None	None	1
2.7	2015_Jun_04_1014	s	s	17	4	SIC	143	RC	1	0	02VD 02VO 02VC 02MD 02MO 09MC 02RD 02RO	1	0	0.646728038788	205.0	53.0	204	55	1
2.7	2015_Jun_04_1014	s	s	17	4	SIC	144	ABS	2	0	02VD 02VO 10VC 02MD 02MO 02MC 02RD 02RO	0	1	1.84725809097	None	None	None	None	1
2.7	2015_Jun_04_1014	s	s	17	4	SIC	145	ABS	2	2	10VD 02VO 02VC 02MD 02MO 02MC 02RD 02RO	0	1	1.70146393776	None	None	None	None	1
2.7	2015_Jun_04_1014	s	s	17	4	SIC	146	RC	0	2	02VD 02VO 02VC 02MD 02MO 02MC 09RD 02RO	1	0	0.631227970123	-128.0	126.0	-120	128	1
2.7	2015_Jun_04_1014	s	s	17	4	SIC	147	RC	0	1	02VD 02VO 02VC 02MD 02MO 02MC 02RD 09RO	1	0	1.26540207863	321.0	340.0	326	341	1
2.7	2015_Jun_04_1014	s	s	17	4	SIC	148	ABS	0	2	02VD 02VO 02VC 02MD 02MO 02MC 10RD 02RO	0	1	1.78853392601	None	None	None	None	1
2.7	2015_Jun_04_1014	s	s	17	4	SIC	149	ABS	0	1	02VD 02VO 02VC 02MD 02MO 02MC 02RD 10RO	0	1	3.94249486923	None	None	None	None	1
2.7	2015_Jun_04_1014	s	s	17	4	SIC	150	RC	1	1	02VD 02VO 02VC 02MD 09MO 02MC 02RD 02RO	1	0	2.75364112854	-423.0	47.0	-414	54	1
2.7	2015_Jun_04_1014	s	s	17	4	SIC	151	RC	1	2	02VD 02VO 02VC 09MD 02MO 02MC 02RD 02RO	1	0	0.890460014343	207.0	184.0	201	180	1
2.7	2015_Jun_04_1014	s	s	17	4	SIC	152	ABS	1	2	02VD 02VO 02VC 10MD 02MO 02MC 02RD 02RO	0	1	1.90990686417	None	None	None	None	1
2.7	2015_Jun_04_1014	s	s	17	4	SIC	153	RC	2	0	02VD 02VO 09VC 02MD 02MO 02MC 02RD 02RO	1	0	0.713077068329	102.0	72.0	96	70	1
2.7	2015_Jun_04_1014	s	s	17	4	SIC	154	RC	2	1	02VD 09VO 02VC 02MD 02MO 02MC 02RD 02RO	1	0	0.964635848999	370.0	-108.0	378	-108	1
2.7	2015_Jun_04_1014	s	s	17	4	SIC	155	RC	2	2	09VD 02VO 02VC 02MD 02MO 02MC 02RD 02RO	1	0	1.82377505302	298.0	-250.0	294	-258	1
2.7	2015_Jun_04_1014	s	s	17	4	SIC	156	ABS	1	0	02VD 02VO 02VC 02MD 02MO 10MC 02RD 02RO	0	1	2.20951509476	None	None	None	None	1
2.7	2015_Jun_04_1014	s	s	17	4	SIC	157	ABS	1	1	02VD 02VO 02VC 02MD 10MO 02MC 02RD 02RO	0	1	2.29453897476	None	None	None	None	1
2.7	2015_Jun_04_1014	s	s	17	4	SIC	158	ABS	2	0	02VD 02VO 10VC 02MD 02MO 02MC 02RD 02RO	0	1	1.63545608521	None	None	None	None	1
2.7	2015_Jun_04_1014	s	s	17	4	SIC	159	RC	1	0	02VD 02VO 02VC 02MD 02MO 09MC 02RD 02RO	1	0	1.99487686157	465.0	-377.0	462	-369	1
2.7	2015_Jun_04_1014	s	s	17	4	SIC	160	ABS	2	1	02VD 10VO 02VC 02MD 02MO 02MC 02RD 02RO	0	1	1.14987587929	None	None	None	None	1
2.7	2015_Jun_04_1014	s	s	17	4	SIC	161	ABS	1	0	02VD 02VO 02VC 02MD 02MO 10MC 02RD 02RO	0	1	2.50330400467	None	None	None	None	1
2.7	2015_Jun_04_1014	s	s	17	4	SIC	162	RC	1	1	02VD 02VO 02VC 02MD 09MO 02MC 02RD 02RO	1	0	2.20814609528	164.0	-364.0	167	-362	1
2.7	2015_Jun_04_1014	s	s	17	4	SIC	163	RC	2	2	09VD 02VO 02VC 02MD 02MO 02MC 02RD 02RO	0	1	2.23293304443	-157.0	-347.0	None	None	0
2.7	2015_Jun_04_1014	s	s	17	4	SIC	164	ABS	0	2	02VD 02VO 02VC 02MD 02MO 02MC 10RD 02RO	0	1	2.69490695	None	None	None	None	1
2.7	2015_Jun_04_1014	s	s	17	4	SIC	165	ABS	0	1	02VD 02VO 02VC 02MD 02MO 02MC 02RD 10RO	0	1	3.5658249855	None	None	None	None	1
2.7	2015_Jun_04_1014	s	s	17	4	SIC	166	ABS	1	2	02VD 02VO 02VC 10MD 02MO 02MC 02RD 02RO	0	1	2.58891296387	None	None	None	None	1
2.7	2015_Jun_04_1014	s	s	17	4	SIC	167	RC	2	0	02VD 02VO 09VC 02MD 02MO 02MC 02RD 02RO	1	0	0.856289863586	-425.0	99.0	-425	101	1
2.7	2015_Jun_04_1014	s	s	17	4	SIC	168	ABS	1	1	02VD 02VO 02VC 02MD 10MO 02MC 02RD 02RO	0	1	1.99707388878	None	None	None	None	1
2.7	2015_Jun_04_1014	s	s	17	4	SIC	169	ABS	2	2	10VD 02VO 02VC 02MD 02MO 02MC 02RD 02RO	0	1	1.19989514351	None	None	None	None	1
2.7	2015_Jun_04_1014	s	s	17	4	SIC	170	RC	0	1	02VD 02VO 02VC 02MD 02MO 02MC 02RD 09RO	0	1	2.66895604134	348.0	188.0	None	None	0
2.7	2015_Jun_04_1014	s	s	17	4	SIC	171	RC	2	1	02VD 09VO 02VC 02MD 02MO 02MC 02RD 02RO	1	0	0.61146402359	407.0	246.0	402	241	1
2.7	2015_Jun_04_1014	s	s	17	4	SIC	172	RC	0	2	02VD 02VO 02VC 02MD 02MO 02MC 09RD 02RO	1	0	1.17404699326	-31.0	-261.0	-36	-264	1
2.7	2015_Jun_04_1014	s	s	17	4	SIC	173	RC	1	0	02VD 02VO 02VC 02MD 02MO 09MC 02RD 02RO	1	0	3.77784705162	382.0	-356.0	396	-351	1
2.7	2015_Jun_04_1014	s	s	17	4	SIC	174	ABS	2	1	02VD 10VO 02VC 02MD 02MO 02MC 02RD 02RO	0	1	1.10327410698	None	None	None	None	1
2.7	2015_Jun_04_1014	s	s	17	4	SIC	175	ABS	2	0	02VD 02VO 10VC 02MD 02MO 02MC 02RD 02RO	0	1	2.2948179245	None	None	None	None	1
2.7	2015_Jun_04_1014	s	s	17	4	SIC	176	RC	1	2	02VD 02VO 02VC 09MD 02MO 02MC 02RD 02RO	1	0	0.611619949341	150.0	7.0	140	5	1
2.7	2015_Jun_04_1014	s	s	17	4	SIC	177	RC	0	1	02VD 02VO 02VC 02MD 02MO 02MC 02RD 09RO	0	1	3.05353784561	-293.0	-93.0	None	None	0
2.7	2015_Jun_04_1014	s	s	17	4	SIC	178	ABS	1	1	02VD 02VO 02VC 02MD 10MO 02MC 02RD 02RO	0	1	2.45393800735	None	None	None	None	1
2.7	2015_Jun_04_1014	s	s	17	4	SIC	179	ABS	1	2	02VD 02VO 02VC 10MD 02MO 02MC 02RD 02RO	0	1	2.4899148941	None	None	None	None	1
2.7	2015_Jun_04_1014	s	s	17	4	SIC	180	RC	1	2	02VD 02VO 02VC 09MD 02MO 02MC 02RD 02RO	1	0	0.964392900467	345.0	111.0	343	97	1
2.7	2015_Jun_04_1014	s	s	17	4	SIC	181	RC	2	0	02VD 02VO 09VC 02MD 02MO 02MC 02RD 02RO	1	0	1.28831315041	516.0	-70.0	507	-69	1
2.7	2015_Jun_04_1014	s	s	17	4	SIC	182	ABS	0	1	02VD 02VO 02VC 02MD 02MO 02MC 02RD 10RO	0	1	3.04197001457	None	None	None	None	1
2.7	2015_Jun_04_1014	s	s	17	4	SIC	183	ABS	1	0	02VD 02VO 02VC 02MD 02MO 10MC 02RD 02RO	0	1	2.53789591789	None	None	None	None	1
2.7	2015_Jun_04_1014	s	s	17	4	SIC	184	ABS	2	2	10VD 02VO 02VC 02MD 02MO 02MC 02RD 02RO	0	1	2.54825496674	None	None	None	None	1
2.7	2015_Jun_04_1014	s	s	17	4	SIC	185	ABS	0	2	02VD 02VO 02VC 02MD 02MO 02MC 10RD 02RO	0	1	3.29057097435	None	None	None	None	1
2.7	2015_Jun_04_1014	s	s	17	4	SIC	186	ABS	2	0	02VD 02VO 10VC 02MD 02MO 02MC 02RD 02RO	0	1	2.63596796989	None	None	None	None	1
2.7	2015_Jun_04_1014	s	s	17	4	SIC	187	RC	0	2	02VD 02VO 02VC 02MD 02MO 02MC 09RD 02RO	1	0	1.25885796547	-465.0	-80.0	-460	-72	1
2.7	2015_Jun_04_1014	s	s	17	4	SIC	188	RC	1	1	02VD 02VO 02VC 02MD 09MO 02MC 02RD 02RO	1	0	0.868019104004	-412.0	212.0	-418	213	1
2.7	2015_Jun_04_1014	s	s	17	4	SIC	189	RC	2	2	09VD 02VO 02VC 02MD 02MO 02MC 02RD 02RO	1	0	0.935281991959	-105.0	-198.0	-96	-199	1
2.7	2015_Jun_04_1014	s	s	17	4	SIC	190	RC	2	1	02VD 09VO 02VC 02MD 02MO 02MC 02RD 02RO	1	0	1.21157288551	400.0	98.0	407	107	1
2.7	2015_Jun_04_1014	s	s	17	4	SIC	191	RC	1	0	02VD 02VO 02VC 02MD 02MO 09MC 02RD 02RO	1	0	1.11756515503	271.0	-344.0	271	-336	1
2.7	2015_Jun_04_1014	s	s	17	4	SIC	192	ABS	2	1	02VD 10VO 02VC 02MD 02MO 02MC 02RD 02RO	0	1	1.84396100044	None	None	None	None	1
2.7	2015_Jun_04_1014	s	s	17	4	SIC	193	ABS	0	1	02VD 02VO 02VC 02MD 02MO 02MC 02RD 10RO	0	1	3.23997116089	None	None	None	None	1
2.7	2015_Jun_04_1014	s	s	17	4	SIC	194	ABS	1	1	02VD 02VO 02VC 02MD 10MO 02MC 02RD 02RO	0	1	2.54192495346	None	None	None	None	1
2.7	2015_Jun_04_1014	s	s	17	4	SIC	195	ABS	2	0	02VD 02VO 10VC 02MD 02MO 02MC 02RD 02RO	0	1	2.48299813271	None	None	None	None	1
2.7	2015_Jun_04_1014	s	s	17	4	SIC	196	RC	1	1	02VD 02VO 02VC 02MD 09MO 02MC 02RD 02RO	1	0	1.25872588158	520.0	67.0	518	64	1
2.7	2015_Jun_04_1014	s	s	17	4	SIC	197	RC	1	2	02VD 02VO 02VC 09MD 02MO 02MC 02RD 02RO	1	0	1.83563303947	-121.0	-265.0	-110	-265	1
2.7	2015_Jun_04_1014	s	s	17	4	SIC	198	RC	1	0	02VD 02VO 02VC 02MD 02MO 09MC 02RD 02RO	1	0	1.1645219326	-513.0	335.0	-503	333	1
2.7	2015_Jun_04_1014	s	s	17	4	SIC	199	RC	2	0	02VD 02VO 09VC 02MD 02MO 02MC 02RD 02RO	1	0	0.653705120087	300.0	165.0	312	170	1
2.7	2015_Jun_04_1014	s	s	17	4	SIC	200	ABS	2	1	02VD 10VO 02VC 02MD 02MO 02MC 02RD 02RO	0	1	1.85372781754	None	None	None	None	1
2.7	2015_Jun_04_1014	s	s	17	4	SIC	201	RC	2	1	02VD 09VO 02VC 02MD 02MO 02MC 02RD 02RO	1	0	1.10561704636	203.0	157.0	206	161	1
2.7	2015_Jun_04_1014	s	s	17	4	SIC	202	ABS	1	0	02VD 02VO 02VC 02MD 02MO 10MC 02RD 02RO	0	1	2.45916295052	None	None	None	None	1
2.7	2015_Jun_04_1014	s	s	17	4	SIC	203	ABS	1	2	02VD 02VO 02VC 10MD 02MO 02MC 02RD 02RO	0	1	2.73012590408	None	None	None	None	1
2.7	2015_Jun_04_1014	s	s	17	4	SIC	204	RC	2	2	09VD 02VO 02VC 02MD 02MO 02MC 02RD 02RO	1	0	0.57364487648	58.0	101.0	64	94	1
2.7	2015_Jun_04_1014	s	s	17	4	SIC	205	RC	0	2	02VD 02VO 02VC 02MD 02MO 02MC 09RD 02RO	1	0	0.987987995148	404.0	-235.0	397	-233	1
2.7	2015_Jun_04_1014	s	s	17	4	SIC	206	RC	0	1	02VD 02VO 02VC 02MD 02MO 02MC 02RD 09RO	1	0	1.4331870079	-185.0	378.0	-184	370	1
2.7	2015_Jun_04_1014	s	s	17	4	SIC	207	ABS	2	2	10VD 02VO 02VC 02MD 02MO 02MC 02RD 02RO	0	1	1.97436904907	None	None	None	None	1
2.7	2015_Jun_04_1014	s	s	17	4	SIC	208	ABS	0	2	02VD 02VO 02VC 02MD 02MO 02MC 10RD 02RO	0	1	2.60066890717	None	None	None	None	1
2.7	2015_Jun_04_1014	s	s	17	4	SIC	209	ABS	1	2	02VD 02VO 02VC 10MD 02MO 02MC 02RD 02RO	0	1	1.71521902084	None	None	None	None	1
2.7	2015_Jun_04_1014	s	s	17	4	SIC	210	RC	1	0	02VD 02VO 02VC 02MD 02MO 09MC 02RD 02RO	1	0	0.629680156708	8.0	-22.0	17	-20	1
2.7	2015_Jun_04_1014	s	s	17	4	SIC	211	RC	1	1	02VD 02VO 02VC 02MD 09MO 02MC 02RD 02RO	1	0	1.06498289108	123.0	356.0	132	365	1
2.7	2015_Jun_04_1014	s	s	17	4	SIC	212	ABS	2	1	02VD 10VO 02VC 02MD 02MO 02MC 02RD 02RO	0	1	2.71835398674	None	None	None	None	1
2.7	2015_Jun_04_1014	s	s	17	4	SIC	213	ABS	0	2	02VD 02VO 02VC 02MD 02MO 02MC 10RD 02RO	0	1	2.06628108025	None	None	None	None	1
2.7	2015_Jun_04_1014	s	s	17	4	SIC	214	ABS	2	0	02VD 02VO 10VC 02MD 02MO 02MC 02RD 02RO	0	1	1.98626494408	None	None	None	None	1
2.7	2015_Jun_04_1014	s	s	17	4	SIC	215	RC	2	2	09VD 02VO 02VC 02MD 02MO 02MC 02RD 02RO	1	0	0.888128042221	129.0	-110.0	117	-104	1
2.7	2015_Jun_04_1014	s	s	17	4	SIC	216	RC	1	2	02VD 02VO 02VC 09MD 02MO 02MC 02RD 02RO	1	0	1.02341389656	-533.0	234.0	-544	241	1
2.7	2015_Jun_04_1014	s	s	17	4	SIC	217	ABS	0	1	02VD 02VO 02VC 02MD 02MO 02MC 02RD 10RO	0	1	3.26604604721	None	None	None	None	1
2.7	2015_Jun_04_1014	s	s	17	4	SIC	218	ABS	2	2	10VD 02VO 02VC 02MD 02MO 02MC 02RD 02RO	0	1	1.92749500275	None	None	None	None	1
2.7	2015_Jun_04_1014	s	s	17	4	SIC	219	RC	0	1	02VD 02VO 02VC 02MD 02MO 02MC 02RD 09RO	1	0	2.54850888252	-334.0	-242.0	-326	-234	1
2.7	2015_Jun_04_1014	s	s	17	4	SIC	220	ABS	1	1	02VD 02VO 02VC 02MD 10MO 02MC 02RD 02RO	0	1	2.88322281837	None	None	None	None	1
2.7	2015_Jun_04_1014	s	s	17	4	SIC	221	ABS	1	0	02VD 02VO 02VC 02MD 02MO 10MC 02RD 02RO	1	0	1.30589795113	None	None	341	-214	0
2.7	2015_Jun_04_1014	s	s	17	4	SIC	222	RC	0	2	02VD 02VO 02VC 02MD 02MO 02MC 09RD 02RO	0	1	2.02395200729	-540.0	14.0	None	None	0
2.7	2015_Jun_04_1014	s	s	17	4	SIC	223	RC	2	1	02VD 09VO 02VC 02MD 02MO 02MC 02RD 02RO	1	0	2.74579501152	-347.0	319.0	-358	328	1
2.7	2015_Jun_04_1014	s	s	17	4	SIC	224	RC	2	0	02VD 02VO 09VC 02MD 02MO 02MC 02RD 02RO	1	0	0.735306024551	192.0	-2.0	190	-1	1
2.7	2015_Jun_04_1014	s	s	17	4	SIC	225	RC	1	0	02VD 02VO 02VC 02MD 02MO 09MC 02RD 02RO	1	0	1.38419890404	402.0	-8.0	395	-13	1
2.7	2015_Jun_04_1014	s	s	17	4	SIC	226	ABS	0	1	02VD 02VO 02VC 02MD 02MO 02MC 02RD 10RO	0	1	3.43055200577	None	None	None	None	1
2.7	2015_Jun_04_1014	s	s	17	4	SIC	227	RC	0	1	02VD 02VO 02VC 02MD 02MO 02MC 02RD 09RO	1	0	1.99769616127	497.0	116.0	506	120	1
2.7	2015_Jun_04_1014	s	s	17	4	SIC	228	ABS	1	1	02VD 02VO 02VC 02MD 10MO 02MC 02RD 02RO	0	1	2.56301403046	None	None	None	None	1
2.7	2015_Jun_04_1014	s	s	17	4	SIC	229	ABS	1	0	02VD 02VO 02VC 02MD 02MO 10MC 02RD 02RO	0	1	2.51594495773	None	None	None	None	1
2.7	2015_Jun_04_1014	s	s	17	4	SIC	230	RC	2	1	02VD 09VO 02VC 02MD 02MO 02MC 02RD 02RO	1	0	0.75908613205	-108.0	144.0	-109	127	1
2.7	2015_Jun_04_1014	s	s	17	4	SIC	231	RC	1	1	02VD 02VO 02VC 02MD 09MO 02MC 02RD 02RO	1	0	0.949411153793	-261.0	-143.0	-261	-141	1
2.7	2015_Jun_04_1014	s	s	17	4	SIC	232	RC	0	2	02VD 02VO 02VC 02MD 02MO 02MC 09RD 02RO	1	0	1.24716806412	159.0	-412.0	149	-414	1
2.7	2015_Jun_04_1014	s	s	17	4	SIC	233	ABS	2	1	02VD 10VO 02VC 02MD 02MO 02MC 02RD 02RO	0	1	2.1035618782	None	None	None	None	1
2.7	2015_Jun_04_1014	s	s	17	4	SIC	234	ABS	2	2	10VD 02VO 02VC 02MD 02MO 02MC 02RD 02RO	0	1	4.8371360302	None	None	None	None	1
2.7	2015_Jun_04_1014	s	s	17	4	SIC	235	RC	1	2	02VD 02VO 02VC 09MD 02MO 02MC 02RD 02RO	1	0	1.85303092003	-470.0	32.0	-480	31	1
2.7	2015_Jun_04_1014	s	s	17	4	SIC	236	ABS	2	0	02VD 02VO 10VC 02MD 02MO 02MC 02RD 02RO	0	1	2.84786486626	None	None	None	None	1
2.7	2015_Jun_04_1014	s	s	17	4	SIC	237	ABS	1	2	02VD 02VO 02VC 10MD 02MO 02MC 02RD 02RO	0	1	1.76479387283	None	None	None	None	1
2.7	2015_Jun_04_1014	s	s	17	4	SIC	238	RC	2	2	09VD 02VO 02VC 02MD 02MO 02MC 02RD 02RO	1	0	0.691810131073	358.0	57.0	363	58	1
2.7	2015_Jun_04_1014	s	s	17	4	SIC	239	ABS	0	2	02VD 02VO 02VC 02MD 02MO 02MC 10RD 02RO	0	1	2.3181579113	None	None	None	None	1
2.7	2015_Jun_04_1014	s	s	17	4	SIC	240	RC	2	0	02VD 02VO 09VC 02MD 02MO 02MC 02RD 02RO	1	0	0.736392974854	-288.0	-13.0	-285	-16	1
2.7	2015_Jun_04_1014	s	s	17	4	SIC	241	ABS	1	2	02VD 02VO 02VC 10MD 02MO 02MC 02RD 02RO	0	1	1.9268860817	None	None	None	None	1
2.7	2015_Jun_04_1014	s	s	17	4	SIC	242	ABS	0	2	02VD 02VO 02VC 02MD 02MO 02MC 10RD 02RO	0	1	2.62046122551	None	None	None	None	1
2.7	2015_Jun_04_1014	s	s	17	4	SIC	243	ABS	1	1	02VD 02VO 02VC 02MD 10MO 02MC 02RD 02RO	0	1	1.71244192123	None	None	None	None	1
2.7	2015_Jun_04_1014	s	s	17	4	SIC	244	RC	2	1	02VD 09VO 02VC 02MD 02MO 02MC 02RD 02RO	1	0	1.56491589546	350.0	295.0	343	304	1
2.7	2015_Jun_04_1014	s	s	17	4	SIC	245	RC	0	2	02VD 02VO 02VC 02MD 02MO 02MC 09RD 02RO	1	0	0.87974691391	61.0	100.0	69	94	1
2.7	2015_Jun_04_1014	s	s	17	4	SIC	246	RC	1	0	02VD 02VO 02VC 02MD 02MO 09MC 02RD 02RO	1	0	1.21171379089	-229.0	-304.0	-224	-295	1
2.7	2015_Jun_04_1014	s	s	17	4	SIC	247	ABS	2	1	02VD 10VO 02VC 02MD 02MO 02MC 02RD 02RO	0	1	1.67774200439	None	None	None	None	1
2.7	2015_Jun_04_1014	s	s	17	4	SIC	248	RC	2	2	09VD 02VO 02VC 02MD 02MO 02MC 02RD 02RO	1	0	1.05879306793	-262.0	357.0	-265	363	1
2.7	2015_Jun_04_1014	s	s	17	4	SIC	249	ABS	1	0	02VD 02VO 02VC 02MD 02MO 10MC 02RD 02RO	0	1	3.82486701012	None	None	None	None	1
2.7	2015_Jun_04_1014	s	s	17	4	SIC	250	RC	2	0	02VD 02VO 09VC 02MD 02MO 02MC 02RD 02RO	1	0	0.691498041153	-364.0	-69.0	-376	-67	1
2.7	2015_Jun_04_1014	s	s	17	4	SIC	251	RC	1	1	02VD 02VO 02VC 02MD 09MO 02MC 02RD 02RO	1	0	1.16087198257	186.0	-345.0	183	-356	1
2.7	2015_Jun_04_1014	s	s	17	4	SIC	252	ABS	0	1	02VD 02VO 02VC 02MD 02MO 02MC 02RD 10RO	0	1	3.23384690285	None	None	None	None	1
2.7	2015_Jun_04_1014	s	s	17	4	SIC	253	ABS	2	2	10VD 02VO 02VC 02MD 02MO 02MC 02RD 02RO	0	1	2.44766116142	None	None	None	None	1
2.7	2015_Jun_04_1014	s	s	17	4	SIC	254	RC	0	1	02VD 02VO 02VC 02MD 02MO 02MC 02RD 09RO	1	0	0.811521053314	-348.0	127.0	-345	134	1
2.7	2015_Jun_04_1014	s	s	17	4	SIC	255	ABS	2	0	02VD 02VO 10VC 02MD 02MO 02MC 02RD 02RO	0	1	3.0595459938	None	None	None	None	1
2.7	2015_Jun_04_1014	s	s	17	4	SIC	256	RC	1	2	02VD 02VO 02VC 09MD 02MO 02MC 02RD 02RO	1	0	0.999890089035	-513.0	154.0	-510	155	1
2.7	2015_Jun_04_1014	s	s	17	4	SIC	257	ABS	2	0	02VD 02VO 10VC 02MD 02MO 02MC 02RD 02RO	0	1	3.51881504059	None	None	None	None	1
2.7	2015_Jun_04_1014	s	s	17	4	SIC	258	RC	1	2	02VD 02VO 02VC 09MD 02MO 02MC 02RD 02RO	1	0	0.917454004288	-135.0	261.0	-149	270	1
2.7	2015_Jun_04_1014	s	s	17	4	SIC	259	RC	2	1	02VD 09VO 02VC 02MD 02MO 02MC 02RD 02RO	1	0	0.702466011047	76.0	-64.0	81	-73	1
2.7	2015_Jun_04_1014	s	s	17	4	SIC	260	RC	0	1	02VD 02VO 02VC 02MD 02MO 02MC 02RD 09RO	1	0	1.33624911308	-47.0	124.0	-53	126	1
2.7	2015_Jun_04_1014	s	s	17	4	SIC	261	ABS	2	1	02VD 10VO 02VC 02MD 02MO 02MC 02RD 02RO	0	1	2.0474588871	None	None	None	None	1
2.7	2015_Jun_04_1014	s	s	17	4	SIC	262	RC	1	1	02VD 02VO 02VC 02MD 09MO 02MC 02RD 02RO	1	0	1.00787496567	462.0	172.0	463	179	1
2.7	2015_Jun_04_1014	s	s	17	4	SIC	263	ABS	1	0	02VD 02VO 02VC 02MD 02MO 10MC 02RD 02RO	0	1	2.50635099411	None	None	None	None	1
2.7	2015_Jun_04_1014	s	s	17	4	SIC	264	RC	2	2	09VD 02VO 02VC 02MD 02MO 02MC 02RD 02RO	1	0	0.726804018021	71.0	350.0	74	355	1
2.7	2015_Jun_04_1014	s	s	17	4	SIC	265	ABS	0	2	02VD 02VO 02VC 02MD 02MO 02MC 10RD 02RO	0	1	2.70649504662	None	None	None	None	1
2.7	2015_Jun_04_1014	s	s	17	4	SIC	266	RC	2	0	02VD 02VO 09VC 02MD 02MO 02MC 02RD 02RO	1	0	0.667206048965	-56.0	-136.0	-59	-127	1
2.7	2015_Jun_04_1014	s	s	17	4	SIC	267	ABS	1	2	02VD 02VO 02VC 10MD 02MO 02MC 02RD 02RO	0	1	2.30191922188	None	None	None	None	1
2.7	2015_Jun_04_1014	s	s	17	4	SIC	268	ABS	2	2	10VD 02VO 02VC 02MD 02MO 02MC 02RD 02RO	0	1	2.10059404373	None	None	None	None	1
2.7	2015_Jun_04_1014	s	s	17	4	SIC	269	RC	0	2	02VD 02VO 02VC 02MD 02MO 02MC 09RD 02RO	1	0	1.3367960453	413.0	357.0	426	363	1
2.7	2015_Jun_04_1014	s	s	17	4	SIC	270	RC	1	0	02VD 02VO 02VC 02MD 02MO 09MC 02RD 02RO	1	0	2.64787316322	529.0	-259.0	531	-263	1
2.7	2015_Jun_04_1014	s	s	17	4	SIC	271	ABS	0	1	02VD 02VO 02VC 02MD 02MO 02MC 02RD 10RO	0	1	3.91889214516	None	None	None	None	1
2.7	2015_Jun_04_1014	s	s	17	4	SIC	272	ABS	1	1	02VD 02VO 02VC 02MD 10MO 02MC 02RD 02RO	0	1	3.8247449398	None	None	None	None	1
2.7	2015_Jun_04_1014	s	s	17	4	SIC	273	ABS	1	1	02VD 02VO 02VC 02MD 10MO 02MC 02RD 02RO	0	1	1.51787686348	None	None	None	None	1
2.7	2015_Jun_04_1014	s	s	17	4	SIC	274	RC	0	1	02VD 02VO 02VC 02MD 02MO 02MC 02RD 09RO	1	0	0.905680894852	151.0	-37.0	158	-38	1
2.7	2015_Jun_04_1014	s	s	17	4	SIC	275	RC	2	0	02VD 02VO 09VC 02MD 02MO 02MC 02RD 02RO	1	0	1.80683994293	-9.0	-407.0	-5	-411	1
2.7	2015_Jun_04_1014	s	s	17	4	SIC	276	ABS	0	1	02VD 02VO 02VC 02MD 02MO 02MC 02RD 10RO	0	1	4.3115541935	None	None	None	None	1
2.7	2015_Jun_04_1014	s	s	17	4	SIC	277	ABS	1	2	02VD 02VO 02VC 10MD 02MO 02MC 02RD 02RO	0	1	2.00080084801	None	None	None	None	1
2.7	2015_Jun_04_1014	s	s	17	4	SIC	278	ABS	2	0	02VD 02VO 10VC 02MD 02MO 02MC 02RD 02RO	0	1	1.43578314781	None	None	None	None	1
2.7	2015_Jun_04_1014	s	s	17	4	SIC	279	RC	0	2	02VD 02VO 02VC 02MD 02MO 02MC 09RD 02RO	1	0	1.38831400871	431.0	-17.0	429	-18	1
2.7	2015_Jun_04_1014	s	s	17	4	SIC	280	ABS	1	0	02VD 02VO 02VC 02MD 02MO 10MC 02RD 02RO	0	1	3.88359999657	None	None	None	None	1
2.7	2015_Jun_04_1014	s	s	17	4	SIC	281	ABS	0	2	02VD 02VO 02VC 02MD 02MO 02MC 10RD 02RO	0	1	2.33891010284	None	None	None	None	1
2.7	2015_Jun_04_1014	s	s	17	4	SIC	282	RC	1	1	02VD 02VO 02VC 02MD 09MO 02MC 02RD 02RO	1	0	0.799782037735	-125.0	-74.0	-133	-69	1
2.7	2015_Jun_04_1014	s	s	17	4	SIC	283	RC	1	0	02VD 02VO 02VC 02MD 02MO 09MC 02RD 02RO	1	0	0.596029043198	-67.0	160.0	-73	154	1
2.7	2015_Jun_04_1014	s	s	17	4	SIC	284	ABS	2	2	10VD 02VO 02VC 02MD 02MO 02MC 02RD 02RO	0	1	1.06681990623	None	None	None	None	1
2.7	2015_Jun_04_1014	s	s	17	4	SIC	285	RC	1	2	02VD 02VO 02VC 09MD 02MO 02MC 02RD 02RO	1	0	1.12940883636	-437.0	191.0	-441	192	1
2.7	2015_Jun_04_1014	s	s	17	4	SIC	286	RC	2	1	02VD 09VO 02VC 02MD 02MO 02MC 02RD 02RO	1	0	0.788022041321	-14.0	100.0	-8	98	1
2.7	2015_Jun_04_1014	s	s	17	4	SIC	287	RC	2	2	09VD 02VO 02VC 02MD 02MO 02MC 02RD 02RO	1	0	0.842264890671	-93.0	215.0	-94	216	1
2.7	2015_Jun_04_1014	s	s	17	4	SIC	288	ABS	2	1	02VD 10VO 02VC 02MD 02MO 02MC 02RD 02RO	0	1	1.88287115097	None	None	None	None	1
2.7	2015_Jun_04_1014	s	s	17	4	SIC	289	ABS	1	1	02VD 02VO 02VC 02MD 10MO 02MC 02RD 02RO	0	1	2.36312508583	None	None	None	None	1
2.7	2015_Jun_04_1014	s	s	17	4	SIC	290	ABS	0	2	02VD 02VO 02VC 02MD 02MO 02MC 10RD 02RO	0	1	1.87713098526	None	None	None	None	1
2.7	2015_Jun_04_1014	s	s	17	4	SIC	291	RC	1	1	02VD 02VO 02VC 02MD 09MO 02MC 02RD 02RO	1	0	0.853715181351	265.0	243.0	266	242	1
2.7	2015_Jun_04_1014	s	s	17	4	SIC	292	ABS	1	0	02VD 02VO 02VC 02MD 02MO 10MC 02RD 02RO	0	1	2.11578702927	None	None	None	None	1
2.7	2015_Jun_04_1014	s	s	17	4	SIC	293	ABS	2	2	10VD 02VO 02VC 02MD 02MO 02MC 02RD 02RO	0	1	1.51783895493	None	None	None	None	1
2.7	2015_Jun_04_1014	s	s	17	4	SIC	294	ABS	2	1	02VD 10VO 02VC 02MD 02MO 02MC 02RD 02RO	0	1	1.55297708511	None	None	None	None	1
2.7	2015_Jun_04_1014	s	s	17	4	SIC	295	RC	0	1	02VD 02VO 02VC 02MD 02MO 02MC 02RD 09RO	1	0	2.04210305214	431.0	-160.0	438	-162	1
2.7	2015_Jun_04_1014	s	s	17	4	SIC	296	RC	2	0	02VD 02VO 09VC 02MD 02MO 02MC 02RD 02RO	1	0	2.7772500515	-110.0	-42.0	-97	-38	1
2.7	2015_Jun_04_1014	s	s	17	4	SIC	297	RC	0	2	02VD 02VO 02VC 02MD 02MO 02MC 09RD 02RO	1	0	1.74174213409	519.0	-243.0	518	-247	1
2.7	2015_Jun_04_1014	s	s	17	4	SIC	298	ABS	1	2	02VD 02VO 02VC 10MD 02MO 02MC 02RD 02RO	0	1	1.5652089119	None	None	None	None	1
2.7	2015_Jun_04_1014	s	s	17	4	SIC	299	RC	2	2	09VD 02VO 02VC 02MD 02MO 02MC 02RD 02RO	1	0	0.84322810173	2.0	409.0	-2	409	1
2.7	2015_Jun_04_1014	s	s	17	4	SIC	300	RC	1	0	02VD 02VO 02VC 02MD 02MO 09MC 02RD 02RO	1	0	1.39997792244	392.0	-269.0	393	-283	1
2.7	2015_Jun_04_1014	s	s	17	4	SIC	301	ABS	2	0	02VD 02VO 10VC 02MD 02MO 02MC 02RD 02RO	0	1	1.55287909508	None	None	None	None	1
2.7	2015_Jun_04_1014	s	s	17	4	SIC	302	ABS	0	1	02VD 02VO 02VC 02MD 02MO 02MC 02RD 10RO	0	1	2.81974411011	None	None	None	None	1
2.7	2015_Jun_04_1014	s	s	17	4	SIC	303	RC	1	2	02VD 02VO 02VC 09MD 02MO 02MC 02RD 02RO	1	0	2.02133989334	-217.0	-365.0	-217	-360	1
2.7	2015_Jun_04_1014	s	s	17	4	SIC	304	RC	2	1	02VD 09VO 02VC 02MD 02MO 02MC 02RD 02RO	0	1	2.59734201431	-188.0	-196.0	None	None	0
2.7	2015_Jun_04_1014	s	s	17	4	SIC	305	ABS	0	1	02VD 02VO 02VC 02MD 02MO 02MC 02RD 10RO	0	1	2.90674805641	None	None	None	None	1
2.7	2015_Jun_04_1014	s	s	17	4	SIC	306	RC	1	2	02VD 02VO 02VC 09MD 02MO 02MC 02RD 02RO	1	0	1.00638008118	285.0	327.0	293	330	1
2.7	2015_Jun_04_1014	s	s	17	4	SIC	307	RC	2	2	09VD 02VO 02VC 02MD 02MO 02MC 02RD 02RO	1	0	0.758006811142	135.0	-100.0	131	-108	1
2.7	2015_Jun_04_1014	s	s	17	4	SIC	308	ABS	1	2	02VD 02VO 02VC 10MD 02MO 02MC 02RD 02RO	0	1	1.14841604233	None	None	None	None	1
2.7	2015_Jun_04_1014	s	s	17	4	SIC	309	ABS	0	2	02VD 02VO 02VC 02MD 02MO 02MC 10RD 02RO	0	1	1.87487101555	None	None	None	None	1
2.7	2015_Jun_04_1014	s	s	17	4	SIC	310	RC	2	1	02VD 09VO 02VC 02MD 02MO 02MC 02RD 02RO	1	0	0.984379053116	396.0	-316.0	395	-320	1
2.7	2015_Jun_04_1014	s	s	17	4	SIC	311	RC	2	0	02VD 02VO 09VC 02MD 02MO 02MC 02RD 02RO	1	0	0.99476313591	-421.0	121.0	-420	117	1
2.7	2015_Jun_04_1014	s	s	17	4	SIC	312	RC	1	1	02VD 02VO 02VC 02MD 09MO 02MC 02RD 02RO	1	0	1.01526498795	447.0	-379.0	434	-376	1
2.7	2015_Jun_04_1014	s	s	17	4	SIC	313	RC	0	1	02VD 02VO 02VC 02MD 02MO 02MC 02RD 09RO	1	0	1.54138803482	341.0	296.0	350	293	1
2.7	2015_Jun_04_1014	s	s	17	4	SIC	314	ABS	2	1	02VD 10VO 02VC 02MD 02MO 02MC 02RD 02RO	0	1	2.40056991577	None	None	None	None	1
2.7	2015_Jun_04_1014	s	s	17	4	SIC	315	ABS	1	1	02VD 02VO 02VC 02MD 10MO 02MC 02RD 02RO	0	1	2.08265590668	None	None	None	None	1
2.7	2015_Jun_04_1014	s	s	17	4	SIC	316	RC	0	2	02VD 02VO 02VC 02MD 02MO 02MC 09RD 02RO	1	0	0.984802007675	-220.0	-64.0	-217	-60	1
2.7	2015_Jun_04_1014	s	s	17	4	SIC	317	ABS	1	0	02VD 02VO 02VC 02MD 02MO 10MC 02RD 02RO	0	1	2.47119307518	None	None	None	None	1
2.7	2015_Jun_04_1014	s	s	17	4	SIC	318	RC	1	0	02VD 02VO 02VC 02MD 02MO 09MC 02RD 02RO	1	0	0.770843982697	148.0	130.0	146	140	1
2.7	2015_Jun_04_1014	s	s	17	4	SIC	319	ABS	2	2	10VD 02VO 02VC 02MD 02MO 02MC 02RD 02RO	0	1	2.3265850544	None	None	None	None	1
2.7	2015_Jun_04_1014	s	s	17	4	SIC	320	ABS	2	0	02VD 02VO 10VC 02MD 02MO 02MC 02RD 02RO	0	1	1.4942419529	None	None	None	None	1
2.7	2015_Jun_04_1014	s	s	17	4	SIC	321	ABS	2	2	10VD 02VO 02VC 02MD 02MO 02MC 02RD 02RO	0	1	1.58276700974	None	None	None	None	1
2.7	2015_Jun_04_1014	s	s	17	4	SIC	322	RC	0	1	02VD 02VO 02VC 02MD 02MO 02MC 02RD 09RO	1	0	1.5059659481	257.0	-197.0	254	-202	1
2.7	2015_Jun_04_1014	s	s	17	4	SIC	323	ABS	0	1	02VD 02VO 02VC 02MD 02MO 02MC 02RD 10RO	0	1	3.24012804031	None	None	None	None	1
2.7	2015_Jun_04_1014	s	s	17	4	SIC	324	ABS	1	1	02VD 02VO 02VC 02MD 10MO 02MC 02RD 02RO	0	1	2.89001703262	None	None	None	None	1
2.7	2015_Jun_04_1014	s	s	17	4	SIC	325	ABS	0	2	02VD 02VO 02VC 02MD 02MO 02MC 10RD 02RO	0	1	1.94206404686	None	None	None	None	1
2.7	2015_Jun_04_1014	s	s	17	4	SIC	326	ABS	2	0	02VD 02VO 10VC 02MD 02MO 02MC 02RD 02RO	0	1	1.75976490974	None	None	None	None	1
2.7	2015_Jun_04_1014	s	s	17	4	SIC	327	RC	1	0	02VD 02VO 02VC 02MD 02MO 09MC 02RD 02RO	1	0	1.74141979218	-336.0	-251.0	-337	-242	1
2.7	2015_Jun_04_1014	s	s	17	4	SIC	328	RC	1	1	02VD 02VO 02VC 02MD 09MO 02MC 02RD 02RO	1	0	0.924611091614	311.0	85.0	308	86	1
2.7	2015_Jun_04_1014	s	s	17	4	SIC	329	ABS	1	2	02VD 02VO 02VC 10MD 02MO 02MC 02RD 02RO	0	1	1.65907287598	None	None	None	None	1
2.7	2015_Jun_04_1014	s	s	17	4	SIC	330	ABS	2	1	02VD 10VO 02VC 02MD 02MO 02MC 02RD 02RO	0	1	1.12687397003	None	None	None	None	1
2.7	2015_Jun_04_1014	s	s	17	4	SIC	331	ABS	1	0	02VD 02VO 02VC 02MD 02MO 10MC 02RD 02RO	0	1	2.48089408875	None	None	None	None	1
2.7	2015_Jun_04_1014	s	s	17	4	SIC	332	RC	2	1	02VD 09VO 02VC 02MD 02MO 02MC 02RD 02RO	1	0	1.32588195801	354.0	-169.0	357	-167	1
2.7	2015_Jun_04_1014	s	s	17	4	SIC	333	RC	0	2	02VD 02VO 02VC 02MD 02MO 02MC 09RD 02RO	1	0	2.1770169735	-403.0	-319.0	-404	-310	1
2.7	2015_Jun_04_1014	s	s	17	4	SIC	334	RC	2	2	09VD 02VO 02VC 02MD 02MO 02MC 02RD 02RO	1	0	0.693791151047	258.0	24.0	246	33	1
2.7	2015_Jun_04_1014	s	s	17	4	SIC	335	RC	2	0	02VD 02VO 09VC 02MD 02MO 02MC 02RD 02RO	1	0	1.01865983009	499.0	-313.0	492	-317	1
2.7	2015_Jun_04_1014	s	s	17	4	SIC	336	RC	1	2	02VD 02VO 02VC 09MD 02MO 02MC 02RD 02RO	1	0	0.666625976562	229.0	210.0	234	207	1
2.7	2015_Jun_04_1014	s	s	17	4	SIC	337	RC	2	0	02VD 02VO 09VC 02MD 02MO 02MC 02RD 02RO	1	0	0.605977058411	-44.0	112.0	-46	112	1
2.7	2015_Jun_04_1014	s	s	17	4	SIC	338	RC	2	1	02VD 09VO 02VC 02MD 02MO 02MC 02RD 02RO	1	0	2.20690584183	-62.0	-379.0	-59	-373	1
2.7	2015_Jun_04_1014	s	s	17	4	SIC	339	RC	1	2	02VD 02VO 02VC 09MD 02MO 02MC 02RD 02RO	1	0	1.32933115959	389.0	203.0	399	202	1
2.7	2015_Jun_04_1014	s	s	17	4	SIC	340	RC	1	1	02VD 02VO 02VC 02MD 09MO 02MC 02RD 02RO	1	0	1.7265150547	-185.0	-254.0	-180	-254	1
2.7	2015_Jun_04_1014	s	s	17	4	SIC	341	ABS	0	1	02VD 02VO 02VC 02MD 02MO 02MC 02RD 10RO	0	1	3.65751314163	None	None	None	None	1
2.7	2015_Jun_04_1014	s	s	17	4	SIC	342	ABS	2	1	02VD 10VO 02VC 02MD 02MO 02MC 02RD 02RO	0	1	2.18561196327	None	None	None	None	1
2.7	2015_Jun_04_1014	s	s	17	4	SIC	343	RC	0	1	02VD 02VO 02VC 02MD 02MO 02MC 02RD 09RO	1	0	1.28942799568	-38.0	-183.0	-32	-182	1
2.7	2015_Jun_04_1014	s	s	17	4	SIC	344	ABS	0	2	02VD 02VO 02VC 02MD 02MO 02MC 10RD 02RO	0	1	2.54179096222	None	None	None	None	1
2.7	2015_Jun_04_1014	s	s	17	4	SIC	345	ABS	2	2	10VD 02VO 02VC 02MD 02MO 02MC 02RD 02RO	0	1	1.57100701332	None	None	None	None	1
2.7	2015_Jun_04_1014	s	s	17	4	SIC	346	RC	1	0	02VD 02VO 02VC 02MD 02MO 09MC 02RD 02RO	1	0	0.74103307724	435.0	112.0	430	115	1
2.7	2015_Jun_04_1014	s	s	17	4	SIC	347	RC	0	2	02VD 02VO 02VC 02MD 02MO 02MC 09RD 02RO	1	0	1.0350959301	-526.0	-201.0	-528	-196	1
2.7	2015_Jun_04_1014	s	s	17	4	SIC	348	ABS	1	0	02VD 02VO 02VC 02MD 02MO 10MC 02RD 02RO	0	1	2.1036670208	None	None	None	None	1
2.7	2015_Jun_04_1014	s	s	17	4	SIC	349	ABS	1	1	02VD 02VO 02VC 02MD 10MO 02MC 02RD 02RO	0	1	1.72728991508	None	None	None	None	1
2.7	2015_Jun_04_1014	s	s	17	4	SIC	350	RC	2	2	09VD 02VO 02VC 02MD 02MO 02MC 02RD 02RO	1	0	1.12406802177	-428.0	329.0	-428	334	1
2.7	2015_Jun_04_1014	s	s	17	4	SIC	351	ABS	2	0	02VD 02VO 10VC 02MD 02MO 02MC 02RD 02RO	0	1	2.76045107841	None	None	None	None	1
2.7	2015_Jun_04_1014	s	s	17	4	SIC	352	ABS	1	2	02VD 02VO 02VC 10MD 02MO 02MC 02RD 02RO	0	1	2.1180999279	None	None	None	None	1
2.7	2015_Jun_04_1014	s	s	17	4	SIC	353	ABS	1	2	02VD 02VO 02VC 10MD 02MO 02MC 02RD 02RO	0	1	1.21176195145	None	None	None	None	1
2.7	2015_Jun_04_1014	s	s	17	4	SIC	354	RC	1	2	02VD 02VO 02VC 09MD 02MO 02MC 02RD 02RO	1	0	0.858616113663	-239.0	-164.0	-247	-169	1
2.7	2015_Jun_04_1014	s	s	17	4	SIC	355	ABS	0	1	02VD 02VO 02VC 02MD 02MO 02MC 02RD 10RO	0	1	2.59570384026	None	None	None	None	1
2.7	2015_Jun_04_1014	s	s	17	4	SIC	356	ABS	2	1	02VD 10VO 02VC 02MD 02MO 02MC 02RD 02RO	0	1	1.50590109825	None	None	None	None	1
2.7	2015_Jun_04_1014	s	s	17	4	SIC	357	RC	0	2	02VD 02VO 02VC 02MD 02MO 02MC 09RD 02RO	1	0	0.988170146942	-492.0	241.0	-496	241	1
2.7	2015_Jun_04_1014	s	s	17	4	SIC	358	ABS	1	0	02VD 02VO 02VC 02MD 02MO 10MC 02RD 02RO	0	1	2.12345409393	None	None	None	None	1
2.7	2015_Jun_04_1014	s	s	17	4	SIC	359	ABS	0	2	02VD 02VO 02VC 02MD 02MO 02MC 10RD 02RO	0	1	1.59562206268	None	None	None	None	1
2.7	2015_Jun_04_1014	s	s	17	4	SIC	360	RC	2	0	02VD 02VO 09VC 02MD 02MO 02MC 02RD 02RO	1	0	0.59498000145	-1.0	-10.0	0	-5	1
2.7	2015_Jun_04_1014	s	s	17	4	SIC	361	ABS	2	0	02VD 02VO 10VC 02MD 02MO 02MC 02RD 02RO	0	1	1.88257908821	None	None	None	None	1
2.7	2015_Jun_04_1014	s	s	17	4	SIC	362	RC	1	0	02VD 02VO 02VC 02MD 02MO 09MC 02RD 02RO	0	1	2.24302792549	-431.0	-377.0	None	None	0
2.7	2015_Jun_04_1014	s	s	17	4	SIC	363	ABS	1	1	02VD 02VO 02VC 02MD 10MO 02MC 02RD 02RO	0	1	2.0771420002	None	None	None	None	1
2.7	2015_Jun_04_1014	s	s	17	4	SIC	364	RC	2	1	02VD 09VO 02VC 02MD 02MO 02MC 02RD 02RO	1	0	1.11794614792	376.0	-315.0	370	-310	1
2.7	2015_Jun_04_1014	s	s	17	4	SIC	365	RC	2	2	09VD 02VO 02VC 02MD 02MO 02MC 02RD 02RO	1	0	1.29436802864	53.0	-241.0	59	-242	1
2.7	2015_Jun_04_1014	s	s	17	4	SIC	366	RC	1	1	02VD 02VO 02VC 02MD 09MO 02MC 02RD 02RO	1	0	1.65655398369	-396.0	195.0	-395	196	1
2.7	2015_Jun_04_1014	s	s	17	4	SIC	367	RC	0	1	02VD 02VO 02VC 02MD 02MO 02MC 02RD 09RO	1	0	2.17680096626	316.0	369.0	314	367	1
2.7	2015_Jun_04_1014	s	s	17	4	SIC	368	ABS	2	2	10VD 02VO 02VC 02MD 02MO 02MC 02RD 02RO	0	1	2.5771150589	None	None	None	None	1
2.7	2015_Jun_04_1014	s	s	17	4	SIC	369	RC	0	1	02VD 02VO 02VC 02MD 02MO 02MC 02RD 09RO	1	0	1.36191105843	512.0	360.0	520	366	1
2.7	2015_Jun_04_1014	s	s	17	4	SIC	370	ABS	1	0	02VD 02VO 02VC 02MD 02MO 10MC 02RD 02RO	1	0	2.28680276871	None	None	326	-335	0
2.7	2015_Jun_04_1014	s	s	17	4	SIC	371	RC	1	0	02VD 02VO 02VC 02MD 02MO 09MC 02RD 02RO	1	0	0.971753120422	-350.0	139.0	-351	144	1
2.7	2015_Jun_04_1014	s	s	17	4	SIC	372	RC	2	0	02VD 02VO 09VC 02MD 02MO 02MC 02RD 02RO	1	0	0.646649837494	-389.0	134.0	-396	137	1
2.7	2015_Jun_04_1014	s	s	17	4	SIC	373	RC	0	2	02VD 02VO 02VC 02MD 02MO 02MC 09RD 02RO	1	0	1.31800198555	-143.0	-396.0	-147	-405	1
2.7	2015_Jun_04_1014	s	s	17	4	SIC	374	RC	2	1	02VD 09VO 02VC 02MD 02MO 02MC 02RD 02RO	1	0	0.965085029602	314.0	-137.0	321	-129	1
2.7	2015_Jun_04_1014	s	s	17	4	SIC	375	RC	1	2	02VD 02VO 02VC 09MD 02MO 02MC 02RD 02RO	1	0	1.92973089218	500.0	-46.0	508	-36	1
2.7	2015_Jun_04_1014	s	s	17	4	SIC	376	ABS	1	2	02VD 02VO 02VC 10MD 02MO 02MC 02RD 02RO	0	1	2.01596713066	None	None	None	None	1
2.7	2015_Jun_04_1014	s	s	17	4	SIC	377	RC	2	2	09VD 02VO 02VC 02MD 02MO 02MC 02RD 02RO	1	0	1.23530316353	203.0	-205.0	200	-209	1
2.7	2015_Jun_04_1014	s	s	17	4	SIC	378	RC	1	1	02VD 02VO 02VC 02MD 09MO 02MC 02RD 02RO	1	0	1.63917779922	-302.0	-183.0	-300	-174	1
2.7	2015_Jun_04_1014	s	s	17	4	SIC	379	ABS	2	0	02VD 02VO 10VC 02MD 02MO 02MC 02RD 02RO	0	1	1.63051819801	None	None	None	None	1
2.7	2015_Jun_04_1014	s	s	17	4	SIC	380	ABS	0	1	02VD 02VO 02VC 02MD 02MO 02MC 02RD 10RO	0	1	3.3626499176	None	None	None	None	1
2.7	2015_Jun_04_1014	s	s	17	4	SIC	381	ABS	1	1	02VD 02VO 02VC 02MD 10MO 02MC 02RD 02RO	0	1	2.15324020386	None	None	None	None	1
2.7	2015_Jun_04_1014	s	s	17	4	SIC	382	ABS	2	2	10VD 02VO 02VC 02MD 02MO 02MC 02RD 02RO	0	1	1.96522092819	None	None	None	None	1
2.7	2015_Jun_04_1014	s	s	17	4	SIC	383	ABS	2	1	02VD 10VO 02VC 02MD 02MO 02MC 02RD 02RO	0	1	1.65942978859	None	None	None	None	1
2.7	2015_Jun_04_1014	s	s	17	4	SIC	384	ABS	0	2	02VD 02VO 02VC 02MD 02MO 02MC 10RD 02RO	0	1	2.48673200607	None	None	None	None	1
2.7	2015_Jun_04_1014	s	s	17	4	SIC	385	RC	1	1	02VD 02VO 02VC 02MD 09MO 02MC 02RD 02RO	1	0	1.47075295448	244.0	-122.0	247	-119	1
2.7	2015_Jun_04_1014	s	s	17	4	SIC	386	ABS	2	1	02VD 10VO 02VC 02MD 02MO 02MC 02RD 02RO	0	1	3.32530403137	None	None	None	None	1
2.7	2015_Jun_04_1014	s	s	17	4	SIC	387	ABS	2	2	10VD 02VO 02VC 02MD 02MO 02MC 02RD 02RO	0	1	2.67115306854	None	None	None	None	1
2.7	2015_Jun_04_1014	s	s	17	4	SIC	388	ABS	0	2	02VD 02VO 02VC 02MD 02MO 02MC 10RD 02RO	0	1	2.18449282646	None	None	None	None	1
2.7	2015_Jun_04_1014	s	s	17	4	SIC	389	RC	2	2	09VD 02VO 02VC 02MD 02MO 02MC 02RD 02RO	1	0	0.819975137711	15.0	272.0	11	268	1
2.7	2015_Jun_04_1014	s	s	17	4	SIC	390	RC	1	0	02VD 02VO 02VC 02MD 02MO 09MC 02RD 02RO	1	0	1.97677183151	-261.0	-409.0	-264	-412	1
2.7	2015_Jun_04_1014	s	s	17	4	SIC	391	ABS	0	1	02VD 02VO 02VC 02MD 02MO 02MC 02RD 10RO	0	1	3.07151985168	None	None	None	None	1
2.7	2015_Jun_04_1014	s	s	17	4	SIC	392	RC	2	1	02VD 09VO 02VC 02MD 02MO 02MC 02RD 02RO	1	0	0.761187076569	-263.0	229.0	-264	230	1
2.7	2015_Jun_04_1014	s	s	17	4	SIC	393	ABS	1	0	02VD 02VO 02VC 02MD 02MO 10MC 02RD 02RO	0	1	2.12981581688	None	None	None	None	1
2.7	2015_Jun_04_1014	s	s	17	4	SIC	394	RC	0	2	02VD 02VO 02VC 02MD 02MO 02MC 09RD 02RO	0	1	3.4795229435	165.0	-195.0	None	None	0
2.7	2015_Jun_04_1014	s	s	17	4	SIC	395	ABS	2	0	02VD 02VO 10VC 02MD 02MO 02MC 02RD 02RO	0	1	1.94518399239	None	None	None	None	1
2.7	2015_Jun_04_1014	s	s	17	4	SIC	396	ABS	1	1	02VD 02VO 02VC 02MD 10MO 02MC 02RD 02RO	0	1	3.73060202599	None	None	None	None	1
2.7	2015_Jun_04_1014	s	s	17	4	SIC	397	RC	2	0	02VD 02VO 09VC 02MD 02MO 02MC 02RD 02RO	1	0	1.5977408886	426.0	60.0	246	135	0
2.7	2015_Jun_04_1014	s	s	17	4	SIC	398	RC	0	1	02VD 02VO 02VC 02MD 02MO 02MC 02RD 09RO	1	0	3.58579397202	68.0	301.0	73	310	1
2.7	2015_Jun_04_1014	s	s	17	4	SIC	399	ABS	1	2	02VD 02VO 02VC 10MD 02MO 02MC 02RD 02RO	0	1	1.44771814346	None	None	None	None	1
2.7	2015_Jun_04_1014	s	s	17	4	SIC	400	RC	1	2	02VD 02VO 02VC 09MD 02MO 02MC 02RD 02RO	1	0	0.875746011734	39.0	261.0	44	270	1
2.7	2015_Jun_04_1014	s	s	17	4	SIC	401	RC	1	1	02VD 02VO 02VC 02MD 09MO 02MC 02RD 02RO	1	0	1.83550596237	169.0	203.0	165	202	1
2.7	2015_Jun_04_1014	s	s	17	4	SIC	402	RC	0	1	02VD 02VO 02VC 02MD 02MO 02MC 02RD 09RO	1	0	0.576111078262	63.0	113.0	67	117	1
2.7	2015_Jun_04_1014	s	s	17	4	SIC	403	ABS	2	2	10VD 02VO 02VC 02MD 02MO 02MC 02RD 02RO	0	1	2.51357388496	None	None	None	None	1
2.7	2015_Jun_04_1014	s	s	17	4	SIC	404	ABS	0	2	02VD 02VO 02VC 02MD 02MO 02MC 10RD 02RO	0	1	3.76010513306	None	None	None	None	1
2.7	2015_Jun_04_1014	s	s	17	4	SIC	405	ABS	0	1	02VD 02VO 02VC 02MD 02MO 02MC 02RD 10RO	0	1	4.74883198738	None	None	None	None	1
2.7	2015_Jun_04_1014	s	s	17	4	SIC	406	RC	2	0	02VD 02VO 09VC 02MD 02MO 02MC 02RD 02RO	1	0	1.12592196465	-352.0	124.0	-347	115	1
2.7	2015_Jun_04_1014	s	s	17	4	SIC	407	RC	2	2	09VD 02VO 02VC 02MD 02MO 02MC 02RD 02RO	1	0	1.87089204788	-204.0	353.0	-211	358	1
2.7	2015_Jun_04_1014	s	s	17	4	SIC	408	RC	1	0	02VD 02VO 02VC 02MD 02MO 09MC 02RD 02RO	1	0	2.00024485588	173.0	-63.0	180	-57	1
2.7	2015_Jun_04_1014	s	s	17	4	SIC	409	ABS	1	2	02VD 02VO 02VC 10MD 02MO 02MC 02RD 02RO	0	1	1.30048799515	None	None	None	None	1
2.7	2015_Jun_04_1014	s	s	17	4	SIC	410	ABS	1	1	02VD 02VO 02VC 02MD 10MO 02MC 02RD 02RO	0	1	2.04745197296	None	None	None	None	1
2.7	2015_Jun_04_1014	s	s	17	4	SIC	411	ABS	2	0	02VD 02VO 10VC 02MD 02MO 02MC 02RD 02RO	0	1	2.52418994904	None	None	None	None	1
2.7	2015_Jun_04_1014	s	s	17	4	SIC	412	RC	0	2	02VD 02VO 02VC 02MD 02MO 02MC 09RD 02RO	1	0	1.26824808121	358.0	-159.0	360	-154	1
2.7	2015_Jun_04_1014	s	s	17	4	SIC	413	ABS	1	0	02VD 02VO 02VC 02MD 02MO 10MC 02RD 02RO	0	1	2.90440583229	None	None	None	None	1
2.7	2015_Jun_04_1014	s	s	17	4	SIC	414	ABS	2	1	02VD 10VO 02VC 02MD 02MO 02MC 02RD 02RO	0	1	1.85280609131	None	None	None	None	1
2.7	2015_Jun_04_1014	s	s	17	4	SIC	415	RC	2	1	02VD 09VO 02VC 02MD 02MO 02MC 02RD 02RO	1	0	1.3481631279	460.0	-211.0	460	-209	1
2.7	2015_Jun_04_1014	s	s	17	4	SIC	416	RC	1	2	02VD 02VO 02VC 09MD 02MO 02MC 02RD 02RO	1	0	1.97683691978	453.0	398.0	455	399	1
2.7	2015_Jun_04_1014	s	s	17	4	SIC	417	ABS	0	2	02VD 02VO 02VC 02MD 02MO 02MC 10RD 02RO	0	1	2.65537905693	None	None	None	None	1
2.7	2015_Jun_04_1014	s	s	17	4	SIC	418	RC	2	0	02VD 02VO 09VC 02MD 02MO 02MC 02RD 02RO	1	0	1.36140990257	-400.0	375.0	-409	376	1
2.7	2015_Jun_04_1014	s	s	17	4	SIC	419	ABS	2	1	02VD 10VO 02VC 02MD 02MO 02MC 02RD 02RO	0	1	3.27900886536	None	None	None	None	1
2.7	2015_Jun_04_1014	s	s	17	4	SIC	420	RC	2	1	02VD 09VO 02VC 02MD 02MO 02MC 02RD 02RO	1	0	1.44706201553	26.0	-407.0	25	-415	1
2.7	2015_Jun_04_1014	s	s	17	4	SIC	421	RC	2	2	09VD 02VO 02VC 02MD 02MO 02MC 02RD 02RO	1	0	1.17644190788	-518.0	-236.0	-520	-239	1
2.7	2015_Jun_04_1014	s	s	17	4	SIC	422	RC	0	2	02VD 02VO 02VC 02MD 02MO 02MC 09RD 02RO	1	0	1.34808087349	487.0	282.0	496	290	1
2.7	2015_Jun_04_1014	s	s	17	4	SIC	423	ABS	2	0	02VD 02VO 10VC 02MD 02MO 02MC 02RD 02RO	0	1	1.76497197151	None	None	None	None	1
2.7	2015_Jun_04_1014	s	s	17	4	SIC	424	ABS	1	0	02VD 02VO 02VC 02MD 02MO 10MC 02RD 02RO	0	1	3.40772390366	None	None	None	None	1
2.7	2015_Jun_04_1014	s	s	17	4	SIC	425	RC	1	0	02VD 02VO 02VC 02MD 02MO 09MC 02RD 02RO	1	0	0.793455123901	117.0	248.0	119	247	1
2.7	2015_Jun_04_1014	s	s	17	4	SIC	426	RC	1	1	02VD 02VO 02VC 02MD 09MO 02MC 02RD 02RO	1	0	1.27095913887	-490.0	359.0	-495	360	1
2.7	2015_Jun_04_1014	s	s	17	4	SIC	427	ABS	1	1	02VD 02VO 02VC 02MD 10MO 02MC 02RD 02RO	0	1	2.54917502403	None	None	None	None	1
2.7	2015_Jun_04_1014	s	s	17	4	SIC	428	ABS	2	2	10VD 02VO 02VC 02MD 02MO 02MC 02RD 02RO	0	1	1.67700195312	None	None	None	None	1
2.7	2015_Jun_04_1014	s	s	17	4	SIC	429	RC	0	1	02VD 02VO 02VC 02MD 02MO 02MC 02RD 09RO	0	1	3.11853885651	503.0	33.0	None	None	0
2.7	2015_Jun_04_1014	s	s	17	4	SIC	430	ABS	1	2	02VD 02VO 02VC 10MD 02MO 02MC 02RD 02RO	0	1	1.60014104843	None	None	None	None	1
2.7	2015_Jun_04_1014	s	s	17	4	SIC	431	RC	1	2	02VD 02VO 02VC 09MD 02MO 02MC 02RD 02RO	1	0	1.22357702255	133.0	-170.0	135	-166	1
2.7	2015_Jun_04_1014	s	s	17	4	SIC	432	ABS	0	1	02VD 02VO 02VC 02MD 02MO 02MC 02RD 10RO	0	1	3.63158893585	None	None	None	None	1
2.7	2015_Jun_04_1014	s	s	17	4	SIC	433	ABS	1	2	02VD 02VO 02VC 10MD 02MO 02MC 02RD 02RO	0	1	1.92961406708	None	None	None	None	1
2.7	2015_Jun_04_1014	s	s	17	4	SIC	434	RC	2	1	02VD 09VO 02VC 02MD 02MO 02MC 02RD 02RO	1	0	1.83316802979	465.0	-261.0	468	-257	1
2.7	2015_Jun_04_1014	s	s	17	4	SIC	435	ABS	1	1	02VD 02VO 02VC 02MD 10MO 02MC 02RD 02RO	0	1	1.59452605247	None	None	None	None	1
2.7	2015_Jun_04_1014	s	s	17	4	SIC	436	RC	0	2	02VD 02VO 02VC 02MD 02MO 02MC 09RD 02RO	1	0	1.21945500374	102.0	-386.0	101	-394	1
2.7	2015_Jun_04_1014	s	s	17	4	SIC	437	RC	2	0	02VD 02VO 09VC 02MD 02MO 02MC 02RD 02RO	1	0	2.57360601425	341.0	-375.0	335	-374	1
2.7	2015_Jun_04_1014	s	s	17	4	SIC	438	RC	1	1	02VD 02VO 02VC 02MD 09MO 02MC 02RD 02RO	1	0	1.05387401581	-265.0	407.0	-266	416	1
2.7	2015_Jun_04_1014	s	s	17	4	SIC	439	ABS	1	0	02VD 02VO 02VC 02MD 02MO 10MC 02RD 02RO	0	1	2.11408090591	None	None	None	None	1
2.7	2015_Jun_04_1014	s	s	17	4	SIC	440	RC	1	2	02VD 02VO 02VC 09MD 02MO 02MC 02RD 02RO	1	0	2.02411913872	323.0	-377.0	318	-384	1
2.7	2015_Jun_04_1014	s	s	17	4	SIC	441	ABS	2	2	10VD 02VO 02VC 02MD 02MO 02MC 02RD 02RO	0	1	1.94146990776	None	None	None	None	1
2.7	2015_Jun_04_1014	s	s	17	4	SIC	442	ABS	2	1	02VD 10VO 02VC 02MD 02MO 02MC 02RD 02RO	0	1	2.94253110886	None	None	None	None	1
2.7	2015_Jun_04_1014	s	s	17	4	SIC	443	ABS	0	2	02VD 02VO 02VC 02MD 02MO 02MC 10RD 02RO	0	1	2.00667405128	None	None	None	None	1
2.7	2015_Jun_04_1014	s	s	17	4	SIC	444	RC	0	1	02VD 02VO 02VC 02MD 02MO 02MC 02RD 09RO	1	0	0.996063947678	-115.0	-182.0	-107	-187	1
2.7	2015_Jun_04_1014	s	s	17	4	SIC	445	RC	1	0	02VD 02VO 02VC 02MD 02MO 09MC 02RD 02RO	1	0	1.15274810791	478.0	192.0	484	189	1
2.7	2015_Jun_04_1014	s	s	17	4	SIC	446	ABS	0	1	02VD 02VO 02VC 02MD 02MO 02MC 02RD 10RO	0	1	2.86919808388	None	None	None	None	1
2.7	2015_Jun_04_1014	s	s	17	4	SIC	447	RC	2	2	09VD 02VO 02VC 02MD 02MO 02MC 02RD 02RO	1	0	1.3293390274	-310.0	166.0	-320	167	1
2.7	2015_Jun_04_1014	s	s	17	4	SIC	448	ABS	2	0	02VD 02VO 10VC 02MD 02MO 02MC 02RD 02RO	0	1	1.64331698418	None	None	None	None	1
2.7	2015_Jun_04_1014	s	s	17	4	SIC	449	ABS	1	1	02VD 02VO 02VC 02MD 10MO 02MC 02RD 02RO	0	1	2.96545505524	None	None	None	None	1
2.7	2015_Jun_04_1014	s	s	17	4	SIC	450	RC	1	1	02VD 02VO 02VC 02MD 09MO 02MC 02RD 02RO	1	0	1.73376703262	-81.0	-235.0	-69	-233	1
2.7	2015_Jun_04_1014	s	s	17	4	SIC	451	ABS	2	2	10VD 02VO 02VC 02MD 02MO 02MC 02RD 02RO	0	1	2.80074214935	None	None	None	None	1
2.7	2015_Jun_04_1014	s	s	17	4	SIC	452	RC	1	0	02VD 02VO 02VC 02MD 02MO 09MC 02RD 02RO	1	0	0.676913976669	257.0	97.0	254	106	1
2.7	2015_Jun_04_1014	s	s	17	4	SIC	453	ABS	0	1	02VD 02VO 02VC 02MD 02MO 02MC 02RD 10RO	0	1	3.96612501144	None	None	None	None	1
2.7	2015_Jun_04_1014	s	s	17	4	SIC	454	RC	2	1	02VD 09VO 02VC 02MD 02MO 02MC 02RD 02RO	1	0	0.799723863602	-104.0	131.0	-107	134	1
2.7	2015_Jun_04_1014	s	s	17	4	SIC	455	ABS	1	0	02VD 02VO 02VC 02MD 02MO 10MC 02RD 02RO	0	1	3.54839587212	None	None	None	None	1
2.7	2015_Jun_04_1014	s	s	17	4	SIC	456	ABS	1	2	02VD 02VO 02VC 10MD 02MO 02MC 02RD 02RO	0	1	2.1019179821	None	None	None	None	1
2.7	2015_Jun_04_1014	s	s	17	4	SIC	457	ABS	0	2	02VD 02VO 02VC 02MD 02MO 02MC 10RD 02RO	0	1	2.48286700249	None	None	None	None	1
2.7	2015_Jun_04_1014	s	s	17	4	SIC	458	ABS	2	0	02VD 02VO 10VC 02MD 02MO 02MC 02RD 02RO	0	1	1.92957901955	None	None	None	None	1
2.7	2015_Jun_04_1014	s	s	17	4	SIC	459	RC	2	2	09VD 02VO 02VC 02MD 02MO 02MC 02RD 02RO	1	0	1.27999901772	-126.0	-404.0	-120	-413	1
2.7	2015_Jun_04_1014	s	s	17	4	SIC	460	RC	0	1	02VD 02VO 02VC 02MD 02MO 02MC 02RD 09RO	1	0	1.33627700806	187.0	-89.0	183	-96	1
2.7	2015_Jun_04_1014	s	s	17	4	SIC	461	RC	2	0	02VD 02VO 09VC 02MD 02MO 02MC 02RD 02RO	1	0	1.05596590042	-291.0	281.0	-291	279	1
2.7	2015_Jun_04_1014	s	s	17	4	SIC	462	RC	1	2	02VD 02VO 02VC 09MD 02MO 02MC 02RD 02RO	1	0	0.611265897751	-202.0	39.0	-203	43	1
2.7	2015_Jun_04_1014	s	s	17	4	SIC	463	ABS	2	1	02VD 10VO 02VC 02MD 02MO 02MC 02RD 02RO	0	1	1.8894610405	None	None	None	None	1
2.7	2015_Jun_04_1014	s	s	17	4	SIC	464	RC	0	2	02VD 02VO 02VC 02MD 02MO 02MC 09RD 02RO	1	0	1.3619530201	455.0	231.0	456	225	1
2.7	2015_Jun_04_1014	s	s	17	4	SIC	465	ABS	1	1	02VD 02VO 02VC 02MD 10MO 02MC 02RD 02RO	0	1	2.62882995605	None	None	None	None	1
2.7	2015_Jun_04_1014	s	s	17	4	SIC	466	ABS	0	2	02VD 02VO 02VC 02MD 02MO 02MC 10RD 02RO	0	1	2.9344189167	None	None	None	None	1
2.7	2015_Jun_04_1014	s	s	17	4	SIC	467	RC	2	2	09VD 02VO 02VC 02MD 02MO 02MC 02RD 02RO	1	0	0.9532558918	-32.0	395.0	-27	396	1
2.7	2015_Jun_04_1014	s	s	17	4	SIC	468	RC	1	2	02VD 02VO 02VC 09MD 02MO 02MC 02RD 02RO	1	0	1.05884504318	223.0	-90.0	229	-92	1
2.7	2015_Jun_04_1014	s	s	17	4	SIC	469	ABS	0	1	02VD 02VO 02VC 02MD 02MO 02MC 02RD 10RO	0	1	4.70749092102	None	None	None	None	1
2.7	2015_Jun_04_1014	s	s	17	4	SIC	470	RC	0	1	02VD 02VO 02VC 02MD 02MO 02MC 02RD 09RO	1	0	0.771310091019	-362.0	-118.0	-358	-123	1
2.7	2015_Jun_04_1014	s	s	17	4	SIC	471	RC	1	0	02VD 02VO 02VC 02MD 02MO 09MC 02RD 02RO	1	0	0.701545000076	-56.0	162.0	-57	167	1
2.7	2015_Jun_04_1014	s	s	17	4	SIC	472	RC	1	1	02VD 02VO 02VC 02MD 09MO 02MC 02RD 02RO	1	0	0.729208946228	189.0	212.0	185	200	1
2.7	2015_Jun_04_1014	s	s	17	4	SIC	473	RC	2	1	02VD 09VO 02VC 02MD 02MO 02MC 02RD 02RO	1	0	0.923723936081	-195.0	-23.0	-190	-27	1
2.7	2015_Jun_04_1014	s	s	17	4	SIC	474	ABS	1	2	02VD 02VO 02VC 10MD 02MO 02MC 02RD 02RO	0	1	1.67077088356	None	None	None	None	1
2.7	2015_Jun_04_1014	s	s	17	4	SIC	475	RC	0	2	02VD 02VO 02VC 02MD 02MO 02MC 09RD 02RO	1	0	2.56543302536	386.0	177.0	400	185	1
2.7	2015_Jun_04_1014	s	s	17	4	SIC	476	ABS	2	2	10VD 02VO 02VC 02MD 02MO 02MC 02RD 02RO	0	1	2.65446209908	None	None	None	None	1
2.7	2015_Jun_04_1014	s	s	17	4	SIC	477	RC	2	0	02VD 02VO 09VC 02MD 02MO 02MC 02RD 02RO	1	0	0.987974882126	447.0	20.0	450	23	1
2.7	2015_Jun_04_1014	s	s	17	4	SIC	478	ABS	2	0	02VD 02VO 10VC 02MD 02MO 02MC 02RD 02RO	0	1	2.3299639225	None	None	None	None	1
2.7	2015_Jun_04_1014	s	s	17	4	SIC	479	ABS	1	0	02VD 02VO 02VC 02MD 02MO 10MC 02RD 02RO	0	1	2.47823405266	None	None	None	None	1
2.7	2015_Jun_04_1014	s	s	17	4	SIC	480	ABS	2	1	02VD 10VO 02VC 02MD 02MO 02MC 02RD 02RO	0	1	4.39698314667	None	None	None	None	1
