Version	Date	Stimuli	Method	Subject	Session	Condition	Trial	Target	Channel1	Channel2	Distractors	LMouseButton	RMouseButton	RT	TargetX	TargetY	ResponseX	ResponseY	Correct
2.7	2015_Jun_02_1013	s	s	17	2	Capacity	1	RC	1	0	08VC 15MC	1	0	2.56554889679	201.0	-323.0	195	-324	1
2.7	2015_Jun_02_1013	s	s	17	2	Capacity	2	RC	2	0	15VC 08MC	1	0	1.58867502213	-185.0	404.0	-180	410	1
2.7	2015_Jun_02_1013	s	s	17	2	Capacity	3	ABS	1	0	08VC 16MC	0	1	3.9424841404	None	None	None	None	1
2.7	2015_Jun_02_1013	s	s	17	2	Capacity	4	ABS	2	0	16VC 08MC	0	1	3.35395693779	None	None	None	None	1
2.7	2015_Jun_02_1013	s	s	17	2	Capacity	5	RC	1	0	08VC 15MC	1	0	4.4016020298	414.0	91.0	418	89	1
2.7	2015_Jun_02_1013	s	s	17	2	Capacity	6	RC	2	0	15VC 08MC	1	0	2.29462599754	-262.0	232.0	-264	236	1
2.7	2015_Jun_02_1013	s	s	17	2	Capacity	7	ABS	1	0	08VC 16MC	0	1	4.6796901226	None	None	None	None	1
2.7	2015_Jun_02_1013	s	s	17	2	Capacity	8	ABS	2	0	16VC 08MC	0	1	2.28826212883	None	None	None	None	1
2.7	2015_Jun_02_1013	s	s	17	2	Capacity	9	ABS	2	0	16VC 08MC	0	1	4.8102209568	None	None	None	None	1
2.7	2015_Jun_02_1013	s	s	17	2	Capacity	10	RC	1	0	08VC 15MC	1	0	1.84546113014	408.0	216.0	418	214	1
2.7	2015_Jun_02_1013	s	s	17	2	Capacity	11	RC	2	0	15VC 08MC	1	0	1.31758403778	-74.0	237.0	-73	234	1
2.7	2015_Jun_02_1013	s	s	17	2	Capacity	12	ABS	1	0	08VC 16MC	0	1	5.56677699089	None	None	None	None	1
2.7	2015_Jun_02_1013	s	s	17	2	Capacity	13	ABS	2	0	16VC 08MC	0	1	5.67321300507	None	None	None	None	1
2.7	2015_Jun_02_1013	s	s	17	2	Capacity	14	ABS	1	0	08VC 16MC	0	1	3.45527291298	None	None	None	None	1
2.7	2015_Jun_02_1013	s	s	17	2	Capacity	15	RC	2	0	15VC 08MC	1	0	2.36034989357	-3.0	-151.0	8	-148	1
2.7	2015_Jun_02_1013	s	s	17	2	Capacity	16	RC	1	0	08VC 15MC	1	0	1.40774297714	69.0	19.0	74	25	1
2.7	2015_Jun_02_1013	s	s	17	2	Capacity	17	ABS	2	0	16VC 08MC	0	1	2.96306300163	None	None	None	None	1
2.7	2015_Jun_02_1013	s	s	17	2	Capacity	18	RC	1	0	08VC 15MC	1	0	1.35340309143	228.0	251.0	224	254	1
2.7	2015_Jun_02_1013	s	s	17	2	Capacity	19	ABS	1	0	08VC 16MC	0	1	3.03619289398	None	None	None	None	1
2.7	2015_Jun_02_1013	s	s	17	2	Capacity	20	RC	2	0	15VC 08MC	1	0	1.92352700233	-58.0	-267.0	-63	-268	1
2.7	2015_Jun_02_1013	s	s	17	2	Capacity	21	ABS	2	0	16VC 08MC	0	1	4.06017184258	None	None	None	None	1
2.7	2015_Jun_02_1013	s	s	17	2	Capacity	22	RC	1	0	08VC 15MC	1	0	2.31794881821	-366.0	-332.0	-371	-331	1
2.7	2015_Jun_02_1013	s	s	17	2	Capacity	23	ABS	1	0	08VC 16MC	0	1	4.22271990776	None	None	None	None	1
2.7	2015_Jun_02_1013	s	s	17	2	Capacity	24	RC	2	0	15VC 08MC	1	0	0.820294857025	-44.0	-58.0	-47	-61	1
2.7	2015_Jun_02_1013	s	s	17	2	Capacity	25	ABS	1	0	08VC 16MC	0	1	2.86921787262	None	None	None	None	1
2.7	2015_Jun_02_1013	s	s	17	2	Capacity	26	RC	2	0	15VC 08MC	1	0	1.47983789444	-90.0	-356.0	-86	-360	1
2.7	2015_Jun_02_1013	s	s	17	2	Capacity	27	RC	1	0	08VC 15MC	1	0	1.40952110291	-474.0	27.0	-468	29	1
2.7	2015_Jun_02_1013	s	s	17	2	Capacity	28	ABS	2	0	16VC 08MC	0	1	2.29148507118	None	None	None	None	1
2.7	2015_Jun_02_1013	s	s	17	2	Capacity	29	ABS	2	0	16VC 08MC	0	1	2.2324719429	None	None	None	None	1
2.7	2015_Jun_02_1013	s	s	17	2	Capacity	30	RC	2	0	15VC 08MC	1	0	0.853778839111	-98.0	29.0	-91	24	1
2.7	2015_Jun_02_1013	s	s	17	2	Capacity	31	ABS	1	0	08VC 16MC	0	1	2.45481395721	None	None	None	None	1
2.7	2015_Jun_02_1013	s	s	17	2	Capacity	32	RC	1	0	08VC 15MC	1	0	1.28930592537	-527.0	364.0	-527	364	1
2.7	2015_Jun_02_1013	s	s	17	2	Capacity	33	ABS	2	0	16VC 08MC	0	1	1.87080693245	None	None	None	None	1
2.7	2015_Jun_02_1013	s	s	17	2	Capacity	34	ABS	1	0	08VC 16MC	0	1	2.47110390663	None	None	None	None	1
2.7	2015_Jun_02_1013	s	s	17	2	Capacity	35	RC	2	0	15VC 08MC	1	0	0.752628087997	5.0	29.0	11	26	1
2.7	2015_Jun_02_1013	s	s	17	2	Capacity	36	RC	1	0	08VC 15MC	1	0	1.23209786415	-393.0	38.0	-402	40	1
2.7	2015_Jun_02_1013	s	s	17	2	Capacity	37	RC	2	0	15VC 08MC	1	0	0.740851163864	-236.0	-102.0	-233	-97	1
2.7	2015_Jun_02_1013	s	s	17	2	Capacity	38	RC	1	0	08VC 15MC	1	0	2.34558606148	456.0	-341.0	462	-341	1
2.7	2015_Jun_02_1013	s	s	17	2	Capacity	39	ABS	2	0	16VC 08MC	0	1	1.988519907	None	None	None	None	1
2.7	2015_Jun_02_1013	s	s	17	2	Capacity	40	ABS	1	0	08VC 16MC	0	1	2.86919403076	None	None	None	None	1
2.7	2015_Jun_02_1013	s	s	17	2	Capacity	41	ABS	1	0	08VC 16MC	0	1	2.50658082962	None	None	None	None	1
2.7	2015_Jun_02_1013	s	s	17	2	Capacity	42	RC	2	0	15VC 08MC	1	0	0.770748853683	438.0	45.0	438	48	1
2.7	2015_Jun_02_1013	s	s	17	2	Capacity	43	ABS	2	0	16VC 08MC	0	1	2.34158396721	None	None	None	None	1
2.7	2015_Jun_02_1013	s	s	17	2	Capacity	44	RC	1	0	08VC 15MC	1	0	2.44546103477	337.0	-86.0	339	-85	1
2.7	2015_Jun_02_1013	s	s	17	2	Capacity	45	RC	1	0	08VC 15MC	0	1	0.988102912903	276.0	-103.0	None	None	0
2.7	2015_Jun_02_1013	s	s	17	2	Capacity	46	ABS	1	0	08VC 16MC	0	1	2.25934720039	None	None	None	None	1
2.7	2015_Jun_02_1013	s	s	17	2	Capacity	47	ABS	2	0	16VC 08MC	0	1	1.76503181458	None	None	None	None	1
2.7	2015_Jun_02_1013	s	s	17	2	Capacity	48	RC	2	0	15VC 08MC	1	0	1.24245405197	205.0	-183.0	214	-186	1
2.7	2015_Jun_02_1013	s	s	17	2	Capacity	49	ABS	1	0	08VC 16MC	0	1	3.36107206345	None	None	None	None	1
2.7	2015_Jun_02_1013	s	s	17	2	Capacity	50	RC	1	0	08VC 15MC	1	0	1.00650000572	228.0	-27.0	221	-24	1
2.7	2015_Jun_02_1013	s	s	17	2	Capacity	51	ABS	2	0	16VC 08MC	0	1	2.30417704582	None	None	None	None	1
2.7	2015_Jun_02_1013	s	s	17	2	Capacity	52	RC	2	0	15VC 08MC	1	0	1.88055205345	-418.0	358.0	-417	358	1
2.7	2015_Jun_02_1013	s	s	17	2	Capacity	53	RC	2	0	15VC 08MC	1	0	6.38274598122	361.0	-161.0	365	-161	1
2.7	2015_Jun_02_1013	s	s	17	2	Capacity	54	RC	1	0	08VC 15MC	1	0	2.48305892944	-123.0	-351.0	-111	-343	1
2.7	2015_Jun_02_1013	s	s	17	2	Capacity	55	ABS	2	0	16VC 08MC	0	1	2.16518211365	None	None	None	None	1
2.7	2015_Jun_02_1013	s	s	17	2	Capacity	56	ABS	1	0	08VC 16MC	0	1	3.93073916435	None	None	None	None	1
2.7	2015_Jun_02_1013	s	s	17	2	Capacity	57	RC	1	0	08VC 15MC	1	0	1.00937485695	-206.0	-19.0	-206	-16	1
2.7	2015_Jun_02_1013	s	s	17	2	Capacity	58	ABS	2	0	16VC 08MC	0	1	1.92758011818	None	None	None	None	1
2.7	2015_Jun_02_1013	s	s	17	2	Capacity	59	RC	2	0	15VC 08MC	1	0	0.917465925217	-342.0	173.0	-336	172	1
2.7	2015_Jun_02_1013	s	s	17	2	Capacity	60	ABS	1	0	08VC 16MC	0	1	2.89482998848	None	None	None	None	1
2.7	2015_Jun_02_1013	s	s	17	2	Capacity	61	RC	2	0	15VC 08MC	1	0	0.806709051132	-85.0	33.0	-78	43	1
2.7	2015_Jun_02_1013	s	s	17	2	Capacity	62	ABS	1	0	08VC 16MC	0	1	3.97297096252	None	None	None	None	1
2.7	2015_Jun_02_1013	s	s	17	2	Capacity	63	ABS	2	0	16VC 08MC	0	1	2.98209404945	None	None	None	None	1
2.7	2015_Jun_02_1013	s	s	17	2	Capacity	64	RC	1	0	08VC 15MC	1	0	0.909568071365	14.0	193.0	19	202	1
2.7	2015_Jun_02_1013	s	s	17	2	Capacity	1	ABS	0	2	16RD 08RO	0	1	2.87138199806	None	None	None	None	1
2.7	2015_Jun_02_1013	s	s	17	2	Capacity	2	ABS	0	1	08RD 16RO	0	1	3.41902089119	None	None	None	None	1
2.7	2015_Jun_02_1013	s	s	17	2	Capacity	3	RC	0	2	15RD 08RO	0	1	3.24803996086	183.0	-108.0	None	None	0
2.7	2015_Jun_02_1013	s	s	17	2	Capacity	4	RC	0	1	08RD 15RO	1	0	2.8690598011	351.0	-294.0	362	-286	1
2.7	2015_Jun_02_1013	s	s	17	2	Capacity	5	RC	0	2	15RD 08RO	1	0	3.50698208809	-351.0	-317.0	-344	-313	1
2.7	2015_Jun_02_1013	s	s	17	2	Capacity	6	ABS	0	1	08RD 16RO	0	1	5.2725481987	None	None	None	None	1
2.7	2015_Jun_02_1013	s	s	17	2	Capacity	7	ABS	0	2	16RD 08RO	0	1	3.11543893814	None	None	None	None	1
2.7	2015_Jun_02_1013	s	s	17	2	Capacity	8	RC	0	1	08RD 15RO	0	1	3.93701291084	-52.0	203.0	None	None	0
2.7	2015_Jun_02_1013	s	s	17	2	Capacity	9	RC	0	2	15RD 08RO	1	0	3.77531099319	91.0	50.0	95	45	1
2.7	2015_Jun_02_1013	s	s	17	2	Capacity	10	ABS	0	2	16RD 08RO	0	1	2.84295892715	None	None	None	None	1
2.7	2015_Jun_02_1013	s	s	17	2	Capacity	11	RC	0	1	08RD 15RO	1	0	3.74227499962	281.0	162.0	279	160	1
2.7	2015_Jun_02_1013	s	s	17	2	Capacity	12	ABS	0	1	08RD 16RO	0	1	5.09090304375	None	None	None	None	1
2.7	2015_Jun_02_1013	s	s	17	2	Capacity	13	RC	0	1	08RD 15RO	1	0	3.07561707497	-413.0	374.0	-412	383	1
2.7	2015_Jun_02_1013	s	s	17	2	Capacity	14	ABS	0	2	16RD 08RO	0	1	4.00903511047	None	None	None	None	1
2.7	2015_Jun_02_1013	s	s	17	2	Capacity	15	RC	0	2	15RD 08RO	1	0	1.4707159996	-172.0	-409.0	-173	-414	1
2.7	2015_Jun_02_1013	s	s	17	2	Capacity	16	ABS	0	1	08RD 16RO	0	1	5.6375439167	None	None	None	None	1
2.7	2015_Jun_02_1013	s	s	17	2	Capacity	17	ABS	0	1	08RD 16RO	0	1	8.03870105743	None	None	None	None	1
2.7	2015_Jun_02_1013	s	s	17	2	Capacity	18	RC	0	2	15RD 08RO	1	0	2.73010897636	370.0	379.0	359	387	1
2.7	2015_Jun_02_1013	s	s	17	2	Capacity	19	RC	0	1	08RD 15RO	1	0	2.17690300941	-463.0	189.0	-472	190	1
2.7	2015_Jun_02_1013	s	s	17	2	Capacity	20	ABS	0	2	16RD 08RO	0	1	2.94822001457	None	None	None	None	1
2.7	2015_Jun_02_1013	s	s	17	2	Capacity	21	RC	0	2	15RD 08RO	1	0	3.35406517982	39.0	-112.0	54	-105	1
2.7	2015_Jun_02_1013	s	s	17	2	Capacity	22	ABS	0	2	16RD 08RO	0	1	3.38915610313	None	None	None	None	1
2.7	2015_Jun_02_1013	s	s	17	2	Capacity	23	ABS	0	1	08RD 16RO	0	1	4.85739707947	None	None	None	None	1
2.7	2015_Jun_02_1013	s	s	17	2	Capacity	24	RC	0	1	08RD 15RO	1	0	2.57239484787	128.0	-295.0	134	-295	1
2.7	2015_Jun_02_1013	s	s	17	2	Capacity	25	RC	0	2	15RD 08RO	1	0	2.90296196938	482.0	-329.0	488	-337	1
2.7	2015_Jun_02_1013	s	s	17	2	Capacity	26	RC	0	1	08RD 15RO	1	0	2.81018304825	376.0	-170.0	374	-171	1
2.7	2015_Jun_02_1013	s	s	17	2	Capacity	27	ABS	0	2	16RD 08RO	0	1	3.79633116722	None	None	None	None	1
2.7	2015_Jun_02_1013	s	s	17	2	Capacity	28	ABS	0	1	08RD 16RO	0	1	5.92687797546	None	None	None	None	1
2.7	2015_Jun_02_1013	s	s	17	2	Capacity	29	ABS	0	1	08RD 16RO	0	1	5.1852889061	None	None	None	None	1
2.7	2015_Jun_02_1013	s	s	17	2	Capacity	30	RC	0	2	15RD 08RO	1	0	3.92277312279	474.0	-295.0	482	-298	1
2.7	2015_Jun_02_1013	s	s	17	2	Capacity	31	ABS	0	2	16RD 08RO	0	1	4.78673791885	None	None	None	None	1
2.7	2015_Jun_02_1013	s	s	17	2	Capacity	32	RC	0	1	08RD 15RO	1	0	2.61929607391	493.0	240.0	483	239	1
2.7	2015_Jun_02_1013	s	s	17	2	Capacity	33	RC	0	1	08RD 15RO	1	0	3.36584591866	77.0	-145.0	86	-138	1
2.7	2015_Jun_02_1013	s	s	17	2	Capacity	34	ABS	0	2	16RD 08RO	0	1	5.37357091904	None	None	None	None	1
2.7	2015_Jun_02_1013	s	s	17	2	Capacity	35	RC	0	2	15RD 08RO	0	1	4.03470301628	-523.0	238.0	None	None	0
2.7	2015_Jun_02_1013	s	s	17	2	Capacity	36	ABS	0	1	08RD 16RO	0	1	5.41378688812	None	None	None	None	1
2.7	2015_Jun_02_1013	s	s	17	2	Capacity	37	RC	0	1	08RD 15RO	1	0	3.61275291443	2.0	-73.0	4	-71	1
2.7	2015_Jun_02_1013	s	s	17	2	Capacity	38	ABS	0	2	16RD 08RO	0	1	3.65791797638	None	None	None	None	1
2.7	2015_Jun_02_1013	s	s	17	2	Capacity	39	RC	0	2	15RD 08RO	1	0	0.929518938065	-17.0	47.0	-15	42	1
2.7	2015_Jun_02_1013	s	s	17	2	Capacity	40	ABS	0	1	08RD 16RO	0	1	6.95307183266	None	None	None	None	1
2.7	2015_Jun_02_1013	s	s	17	2	Capacity	41	RC	0	2	15RD 08RO	1	0	3.13721299171	307.0	-5.0	295	-2	1
2.7	2015_Jun_02_1013	s	s	17	2	Capacity	42	ABS	0	2	16RD 08RO	0	1	7.25027108192	None	None	None	None	1
2.7	2015_Jun_02_1013	s	s	17	2	Capacity	43	ABS	0	1	08RD 16RO	0	1	8.67925405502	None	None	None	None	1
2.7	2015_Jun_02_1013	s	s	17	2	Capacity	44	RC	0	1	08RD 15RO	1	0	1.65586304665	-361.0	254.0	-363	256	1
2.7	2015_Jun_02_1013	s	s	17	2	Capacity	45	RC	0	2	15RD 08RO	1	0	1.39775514603	-216.0	64.0	-229	68	1
2.7	2015_Jun_02_1013	s	s	17	2	Capacity	46	ABS	0	2	16RD 08RO	0	1	4.21042490005	None	None	None	None	1
2.7	2015_Jun_02_1013	s	s	17	2	Capacity	47	ABS	0	1	08RD 16RO	0	1	5.00569486618	None	None	None	None	1
2.7	2015_Jun_02_1013	s	s	17	2	Capacity	48	RC	0	1	08RD 15RO	1	0	3.01902890205	328.0	-384.0	328	-384	1
2.7	2015_Jun_02_1013	s	s	17	2	Capacity	49	ABS	0	1	08RD 16RO	0	1	4.92923402786	None	None	None	None	1
2.7	2015_Jun_02_1013	s	s	17	2	Capacity	50	ABS	0	2	16RD 08RO	0	1	4.22488307953	None	None	None	None	1
2.7	2015_Jun_02_1013	s	s	17	2	Capacity	51	RC	0	1	08RD 15RO	1	0	3.35179185867	-198.0	-349.0	-199	-349	1
2.7	2015_Jun_02_1013	s	s	17	2	Capacity	52	RC	0	2	15RD 08RO	1	0	3.17267203331	-333.0	-341.0	-324	-345	1
2.7	2015_Jun_02_1013	s	s	17	2	Capacity	53	RC	0	2	15RD 08RO	1	0	1.43054294586	-34.0	-406.0	-39	-411	1
2.7	2015_Jun_02_1013	s	s	17	2	Capacity	54	ABS	0	2	16RD 08RO	0	1	3.72517895699	None	None	None	None	1
2.7	2015_Jun_02_1013	s	s	17	2	Capacity	55	ABS	0	1	08RD 16RO	0	1	7.17402100563	None	None	None	None	1
2.7	2015_Jun_02_1013	s	s	17	2	Capacity	56	RC	0	1	08RD 15RO	1	0	1.37442493439	-14.0	252.0	-12	254	1
2.7	2015_Jun_02_1013	s	s	17	2	Capacity	57	RC	0	2	15RD 08RO	1	0	1.49424409866	-293.0	218.0	-295	222	1
2.7	2015_Jun_02_1013	s	s	17	2	Capacity	58	RC	0	1	08RD 15RO	1	0	3.81984305382	-392.0	328.0	-380	329	1
2.7	2015_Jun_02_1013	s	s	17	2	Capacity	59	ABS	0	2	16RD 08RO	0	1	4.03666615486	None	None	None	None	1
2.7	2015_Jun_02_1013	s	s	17	2	Capacity	60	ABS	0	1	08RD 16RO	0	1	7.9273018837	None	None	None	None	1
2.7	2015_Jun_02_1013	s	s	17	2	Capacity	61	RC	0	1	08RD 15RO	1	0	2.0866458416	150.0	174.0	144	179	1
2.7	2015_Jun_02_1013	s	s	17	2	Capacity	62	ABS	0	1	08RD 16RO	0	1	8.26282691956	None	None	None	None	1
2.7	2015_Jun_02_1013	s	s	17	2	Capacity	63	ABS	0	2	16RD 08RO	0	1	3.66001105309	None	None	None	None	1
2.7	2015_Jun_02_1013	s	s	17	2	Capacity	64	RC	0	2	15RD 08RO	1	0	2.58409023285	514.0	-51.0	525	-42	1
2.7	2015_Jun_02_1013	s	s	17	2	SIC	1	RC	2	2	09VD 02VO 02VC 02MD 02MO 02MC 02RD 02RO	1	0	0.124141931534	-370.0	-409.0	-357	-62	0
2.7	2015_Jun_02_1013	s	s	17	2	SIC	2	ABS	1	2	02VD 02VO 02VC 10MD 02MO 02MC 02RD 02RO	0	1	3.89074802399	None	None	None	None	1
2.7	2015_Jun_02_1013	s	s	17	2	SIC	3	ABS	1	0	02VD 02VO 02VC 02MD 02MO 10MC 02RD 02RO	0	1	3.72556495667	None	None	None	None	1
2.7	2015_Jun_02_1013	s	s	17	2	SIC	4	RC	1	0	02VD 02VO 02VC 02MD 02MO 09MC 02RD 02RO	1	0	1.27060103416	64.0	-40.0	56	-33	1
2.7	2015_Jun_02_1013	s	s	17	2	SIC	5	RC	2	1	02VD 09VO 02VC 02MD 02MO 02MC 02RD 02RO	1	0	2.70120501518	399.0	-147.0	406	-142	1
2.7	2015_Jun_02_1013	s	s	17	2	SIC	6	RC	1	1	02VD 02VO 02VC 02MD 09MO 02MC 02RD 02RO	1	0	6.33195400238	-459.0	-236.0	-452	-235	1
2.7	2015_Jun_02_1013	s	s	17	2	SIC	7	RC	2	0	02VD 02VO 09VC 02MD 02MO 02MC 02RD 02RO	1	0	3.18557691574	400.0	117.0	394	119	1
2.7	2015_Jun_02_1013	s	s	17	2	SIC	8	ABS	1	1	02VD 02VO 02VC 02MD 10MO 02MC 02RD 02RO	0	1	4.19011282921	None	None	None	None	1
2.7	2015_Jun_02_1013	s	s	17	2	SIC	9	RC	0	2	02VD 02VO 02VC 02MD 02MO 02MC 09RD 02RO	1	0	3.52517008781	-67.0	-234.0	-66	-235	1
2.7	2015_Jun_02_1013	s	s	17	2	SIC	10	ABS	0	1	02VD 02VO 02VC 02MD 02MO 02MC 02RD 10RO	0	1	4.12556099892	None	None	None	None	1
2.7	2015_Jun_02_1013	s	s	17	2	SIC	11	ABS	2	0	02VD 02VO 10VC 02MD 02MO 02MC 02RD 02RO	0	1	2.68303704262	None	None	None	None	1
2.7	2015_Jun_02_1013	s	s	17	2	SIC	12	ABS	2	2	10VD 02VO 02VC 02MD 02MO 02MC 02RD 02RO	0	1	4.94981694221	None	None	None	None	1
2.7	2015_Jun_02_1013	s	s	17	2	SIC	13	RC	0	1	02VD 02VO 02VC 02MD 02MO 02MC 02RD 09RO	0	1	4.53094792366	53.0	214.0	None	None	0
2.7	2015_Jun_02_1013	s	s	17	2	SIC	14	ABS	0	2	02VD 02VO 02VC 02MD 02MO 02MC 10RD 02RO	0	1	4.09260797501	None	None	None	None	1
2.7	2015_Jun_02_1013	s	s	17	2	SIC	15	ABS	2	1	02VD 10VO 02VC 02MD 02MO 02MC 02RD 02RO	0	1	8.31694793701	None	None	None	None	1
2.7	2015_Jun_02_1013	s	s	17	2	SIC	16	RC	1	2	02VD 02VO 02VC 09MD 02MO 02MC 02RD 02RO	1	0	2.57244205475	-486.0	-159.0	-487	-156	1
2.7	2015_Jun_02_1013	s	s	17	2	SIC	17	RC	1	1	02VD 02VO 02VC 02MD 09MO 02MC 02RD 02RO	1	0	2.78893899918	469.0	74.0	476	78	1
2.7	2015_Jun_02_1013	s	s	17	2	SIC	18	RC	1	0	02VD 02VO 02VC 02MD 02MO 09MC 02RD 02RO	1	0	9.9664349556	-389.0	-74.0	-388	-78	1
2.7	2015_Jun_02_1013	s	s	17	2	SIC	19	ABS	2	1	02VD 10VO 02VC 02MD 02MO 02MC 02RD 02RO	0	1	2.52998018265	None	None	None	None	1
2.7	2015_Jun_02_1013	s	s	17	2	SIC	20	ABS	2	2	10VD 02VO 02VC 02MD 02MO 02MC 02RD 02RO	0	1	3.61305499077	None	None	None	None	1
2.7	2015_Jun_02_1013	s	s	17	2	SIC	21	ABS	2	0	02VD 02VO 10VC 02MD 02MO 02MC 02RD 02RO	0	1	3.19528102875	None	None	None	None	1
2.7	2015_Jun_02_1013	s	s	17	2	SIC	22	RC	2	2	09VD 02VO 02VC 02MD 02MO 02MC 02RD 02RO	1	0	4.17797613144	-309.0	399.0	-304	403	1
2.7	2015_Jun_02_1013	s	s	17	2	SIC	23	RC	0	1	02VD 02VO 02VC 02MD 02MO 02MC 02RD 09RO	1	0	4.56412482262	-22.0	-277.0	-11	-276	1
2.7	2015_Jun_02_1013	s	s	17	2	SIC	24	ABS	0	1	02VD 02VO 02VC 02MD 02MO 02MC 02RD 10RO	0	1	5.05836987495	None	None	None	None	1
2.7	2015_Jun_02_1013	s	s	17	2	SIC	25	ABS	1	2	02VD 02VO 02VC 10MD 02MO 02MC 02RD 02RO	0	1	3.26833200455	None	None	None	None	1
2.7	2015_Jun_02_1013	s	s	17	2	SIC	26	ABS	1	0	02VD 02VO 02VC 02MD 02MO 10MC 02RD 02RO	0	1	3.73784589767	None	None	None	None	1
2.7	2015_Jun_02_1013	s	s	17	2	SIC	27	RC	2	0	02VD 02VO 09VC 02MD 02MO 02MC 02RD 02RO	1	0	1.36165213585	490.0	167.0	490	164	1
2.7	2015_Jun_02_1013	s	s	17	2	SIC	28	ABS	0	2	02VD 02VO 02VC 02MD 02MO 02MC 10RD 02RO	0	1	6.73208785057	None	None	None	None	1
2.7	2015_Jun_02_1013	s	s	17	2	SIC	29	RC	1	2	02VD 02VO 02VC 09MD 02MO 02MC 02RD 02RO	1	0	3.92475986481	56.0	-306.0	51	-315	1
2.7	2015_Jun_02_1013	s	s	17	2	SIC	30	RC	2	1	02VD 09VO 02VC 02MD 02MO 02MC 02RD 02RO	1	0	2.9595580101	221.0	-319.0	223	-325	1
2.7	2015_Jun_02_1013	s	s	17	2	SIC	31	ABS	1	1	02VD 02VO 02VC 02MD 10MO 02MC 02RD 02RO	0	1	5.64414787292	None	None	None	None	1
2.7	2015_Jun_02_1013	s	s	17	2	SIC	32	RC	0	2	02VD 02VO 02VC 02MD 02MO 02MC 09RD 02RO	1	0	2.90719795227	412.0	-237.0	416	-248	1
2.7	2015_Jun_02_1013	s	s	17	2	SIC	33	ABS	1	0	02VD 02VO 02VC 02MD 02MO 10MC 02RD 02RO	0	1	7.11699604988	None	None	None	None	1
2.7	2015_Jun_02_1013	s	s	17	2	SIC	34	RC	2	0	02VD 02VO 09VC 02MD 02MO 02MC 02RD 02RO	1	0	1.99500489235	-451.0	-348.0	-457	-340	1
2.7	2015_Jun_02_1013	s	s	17	2	SIC	35	RC	0	1	02VD 02VO 02VC 02MD 02MO 02MC 02RD 09RO	1	0	0.882474899292	-501.0	-227.0	-500	-227	1
2.7	2015_Jun_02_1013	s	s	17	2	SIC	36	RC	1	0	02VD 02VO 02VC 02MD 02MO 09MC 02RD 02RO	1	0	0.996133804321	-199.0	-184.0	-190	-182	1
2.7	2015_Jun_02_1013	s	s	17	2	SIC	37	RC	2	2	09VD 02VO 02VC 02MD 02MO 02MC 02RD 02RO	1	0	1.3599820137	-160.0	-219.0	-156	-225	1
2.7	2015_Jun_02_1013	s	s	17	2	SIC	38	ABS	2	1	02VD 10VO 02VC 02MD 02MO 02MC 02RD 02RO	0	1	2.58430695534	None	None	None	None	1
2.7	2015_Jun_02_1013	s	s	17	2	SIC	39	ABS	1	1	02VD 02VO 02VC 02MD 10MO 02MC 02RD 02RO	0	1	3.73746299744	None	None	None	None	1
2.7	2015_Jun_02_1013	s	s	17	2	SIC	40	ABS	2	2	10VD 02VO 02VC 02MD 02MO 02MC 02RD 02RO	0	1	3.25987386703	None	None	None	None	1
2.7	2015_Jun_02_1013	s	s	17	2	SIC	41	RC	1	2	02VD 02VO 02VC 09MD 02MO 02MC 02RD 02RO	1	0	2.4453830719	-427.0	-250.0	-427	-258	1
2.7	2015_Jun_02_1013	s	s	17	2	SIC	42	ABS	2	0	02VD 02VO 10VC 02MD 02MO 02MC 02RD 02RO	0	1	3.09268116951	None	None	None	None	1
2.7	2015_Jun_02_1013	s	s	17	2	SIC	43	RC	1	1	02VD 02VO 02VC 02MD 09MO 02MC 02RD 02RO	1	0	1.63363599777	79.0	393.0	83	396	1
2.7	2015_Jun_02_1013	s	s	17	2	SIC	44	ABS	0	1	02VD 02VO 02VC 02MD 02MO 02MC 02RD 10RO	0	1	4.56452393532	None	None	None	None	1
2.7	2015_Jun_02_1013	s	s	17	2	SIC	45	ABS	1	2	02VD 02VO 02VC 10MD 02MO 02MC 02RD 02RO	0	1	2.83328294754	None	None	None	None	1
2.7	2015_Jun_02_1013	s	s	17	2	SIC	46	RC	0	2	02VD 02VO 02VC 02MD 02MO 02MC 09RD 02RO	0	1	4.15060305595	-283.0	-345.0	None	None	0
2.7	2015_Jun_02_1013	s	s	17	2	SIC	47	RC	2	1	02VD 09VO 02VC 02MD 02MO 02MC 02RD 02RO	1	0	1.45929098129	-167.0	-263.0	-174	-257	1
2.7	2015_Jun_02_1013	s	s	17	2	SIC	48	ABS	0	2	02VD 02VO 02VC 02MD 02MO 02MC 10RD 02RO	0	1	2.3384001255	None	None	None	None	1
2.7	2015_Jun_02_1013	s	s	17	2	SIC	49	RC	0	1	02VD 02VO 02VC 02MD 02MO 02MC 02RD 09RO	1	0	1.58468794823	-296.0	104.0	-285	112	1
2.7	2015_Jun_02_1013	s	s	17	2	SIC	50	ABS	0	1	02VD 02VO 02VC 02MD 02MO 02MC 02RD 10RO	0	1	4.35449409485	None	None	None	None	1
2.7	2015_Jun_02_1013	s	s	17	2	SIC	51	ABS	2	1	02VD 10VO 02VC 02MD 02MO 02MC 02RD 02RO	0	1	2.3416121006	None	None	None	None	1
2.7	2015_Jun_02_1013	s	s	17	2	SIC	52	RC	1	2	02VD 02VO 02VC 09MD 02MO 02MC 02RD 02RO	1	0	2.68975615501	-305.0	-393.0	-320	-387	1
2.7	2015_Jun_02_1013	s	s	17	2	SIC	53	RC	1	1	02VD 02VO 02VC 02MD 09MO 02MC 02RD 02RO	1	0	1.6563949585	79.0	-209.0	81	-200	1
2.7	2015_Jun_02_1013	s	s	17	2	SIC	54	ABS	0	2	02VD 02VO 02VC 02MD 02MO 02MC 10RD 02RO	0	1	4.03433609009	None	None	None	None	1
2.7	2015_Jun_02_1013	s	s	17	2	SIC	55	ABS	1	2	02VD 02VO 02VC 10MD 02MO 02MC 02RD 02RO	0	1	2.62181186676	None	None	None	None	1
2.7	2015_Jun_02_1013	s	s	17	2	SIC	56	RC	2	2	09VD 02VO 02VC 02MD 02MO 02MC 02RD 02RO	1	0	1.72966814041	204.0	-299.0	194	-293	1
2.7	2015_Jun_02_1013	s	s	17	2	SIC	57	ABS	1	1	02VD 02VO 02VC 02MD 10MO 02MC 02RD 02RO	0	1	3.20088505745	None	None	None	None	1
2.7	2015_Jun_02_1013	s	s	17	2	SIC	58	ABS	2	0	02VD 02VO 10VC 02MD 02MO 02MC 02RD 02RO	0	1	3.4245839119	None	None	None	None	1
2.7	2015_Jun_02_1013	s	s	17	2	SIC	59	RC	0	2	02VD 02VO 02VC 02MD 02MO 02MC 09RD 02RO	1	0	3.675812006	459.0	-323.0	459	-330	1
2.7	2015_Jun_02_1013	s	s	17	2	SIC	60	ABS	2	2	10VD 02VO 02VC 02MD 02MO 02MC 02RD 02RO	0	1	2.58340811729	None	None	None	None	1
2.7	2015_Jun_02_1013	s	s	17	2	SIC	61	ABS	1	0	02VD 02VO 02VC 02MD 02MO 10MC 02RD 02RO	0	1	8.63893699646	None	None	None	None	1
2.7	2015_Jun_02_1013	s	s	17	2	SIC	62	RC	2	1	02VD 09VO 02VC 02MD 02MO 02MC 02RD 02RO	1	0	1.63216090202	-107.0	-31.0	-112	-32	1
2.7	2015_Jun_02_1013	s	s	17	2	SIC	63	RC	1	0	02VD 02VO 02VC 02MD 02MO 09MC 02RD 02RO	1	0	0.984050989151	-186.0	78.0	-188	84	1
2.7	2015_Jun_02_1013	s	s	17	2	SIC	64	RC	2	0	02VD 02VO 09VC 02MD 02MO 02MC 02RD 02RO	1	0	2.32992506027	-384.0	-344.0	-380	-341	1
2.7	2015_Jun_02_1013	s	s	17	2	SIC	65	RC	0	2	02VD 02VO 02VC 02MD 02MO 02MC 09RD 02RO	1	0	1.54505705833	-199.0	47.0	-195	49	1
2.7	2015_Jun_02_1013	s	s	17	2	SIC	66	RC	0	1	02VD 02VO 02VC 02MD 02MO 02MC 02RD 09RO	1	0	3.34910798073	281.0	212.0	294	216	1
2.7	2015_Jun_02_1013	s	s	17	2	SIC	67	ABS	0	1	02VD 02VO 02VC 02MD 02MO 02MC 02RD 10RO	0	1	3.57747411728	None	None	None	None	1
2.7	2015_Jun_02_1013	s	s	17	2	SIC	68	RC	2	1	02VD 09VO 02VC 02MD 02MO 02MC 02RD 02RO	1	0	1.37288689613	-203.0	-93.0	-193	-92	1
2.7	2015_Jun_02_1013	s	s	17	2	SIC	69	ABS	2	1	02VD 10VO 02VC 02MD 02MO 02MC 02RD 02RO	0	1	3.657736063	None	None	None	None	1
2.7	2015_Jun_02_1013	s	s	17	2	SIC	70	RC	1	2	02VD 02VO 02VC 09MD 02MO 02MC 02RD 02RO	1	0	2.09225201607	-482.0	-153.0	-487	-157	1
2.7	2015_Jun_02_1013	s	s	17	2	SIC	71	ABS	1	2	02VD 02VO 02VC 10MD 02MO 02MC 02RD 02RO	0	1	5.71201491356	None	None	None	None	1
2.7	2015_Jun_02_1013	s	s	17	2	SIC	72	ABS	2	2	10VD 02VO 02VC 02MD 02MO 02MC 02RD 02RO	0	1	4.2815861702	None	None	None	None	1
2.7	2015_Jun_02_1013	s	s	17	2	SIC	73	ABS	0	2	02VD 02VO 02VC 02MD 02MO 02MC 10RD 02RO	0	1	3.86815595627	None	None	None	None	1
2.7	2015_Jun_02_1013	s	s	17	2	SIC	74	ABS	1	0	02VD 02VO 02VC 02MD 02MO 10MC 02RD 02RO	0	1	5.42215299606	None	None	None	None	1
2.7	2015_Jun_02_1013	s	s	17	2	SIC	75	RC	2	2	09VD 02VO 02VC 02MD 02MO 02MC 02RD 02RO	1	0	0.96449303627	465.0	155.0	464	148	1
2.7	2015_Jun_02_1013	s	s	17	2	SIC	76	RC	1	0	02VD 02VO 02VC 02MD 02MO 09MC 02RD 02RO	1	0	4.84880805016	-506.0	-273.0	-510	-267	1
2.7	2015_Jun_02_1013	s	s	17	2	SIC	77	RC	1	1	02VD 02VO 02VC 02MD 09MO 02MC 02RD 02RO	1	0	1.57666897774	202.0	-164.0	208	-162	1
2.7	2015_Jun_02_1013	s	s	17	2	SIC	78	ABS	1	1	02VD 02VO 02VC 02MD 10MO 02MC 02RD 02RO	0	1	5.20188498497	None	None	None	None	1
2.7	2015_Jun_02_1013	s	s	17	2	SIC	79	RC	2	0	02VD 02VO 09VC 02MD 02MO 02MC 02RD 02RO	1	0	2.73805499077	437.0	-394.0	437	-388	1
2.7	2015_Jun_02_1013	s	s	17	2	SIC	80	ABS	2	0	02VD 02VO 10VC 02MD 02MO 02MC 02RD 02RO	0	1	2.44769096375	None	None	None	None	1
2.7	2015_Jun_02_1013	s	s	17	2	SIC	81	RC	0	1	02VD 02VO 02VC 02MD 02MO 02MC 02RD 09RO	1	0	3.94863200188	207.0	187.0	197	192	1
2.7	2015_Jun_02_1013	s	s	17	2	SIC	82	ABS	1	2	02VD 02VO 02VC 10MD 02MO 02MC 02RD 02RO	0	1	2.37174701691	None	None	None	None	1
2.7	2015_Jun_02_1013	s	s	17	2	SIC	83	RC	2	2	09VD 02VO 02VC 02MD 02MO 02MC 02RD 02RO	1	0	1.00968194008	-11.0	-20.0	-15	-24	1
2.7	2015_Jun_02_1013	s	s	17	2	SIC	84	RC	2	0	02VD 02VO 09VC 02MD 02MO 02MC 02RD 02RO	1	0	1.17641091347	256.0	294.0	246	296	1
2.7	2015_Jun_02_1013	s	s	17	2	SIC	85	RC	1	0	02VD 02VO 02VC 02MD 02MO 09MC 02RD 02RO	1	0	4.08372592926	-400.0	-210.0	-392	-210	1
2.7	2015_Jun_02_1013	s	s	17	2	SIC	86	ABS	0	2	02VD 02VO 02VC 02MD 02MO 02MC 10RD 02RO	0	1	2.80066013336	None	None	None	None	1
2.7	2015_Jun_02_1013	s	s	17	2	SIC	87	RC	1	2	02VD 02VO 02VC 09MD 02MO 02MC 02RD 02RO	1	0	1.69875216484	-432.0	-46.0	-425	-42	1
2.7	2015_Jun_02_1013	s	s	17	2	SIC	88	ABS	2	2	10VD 02VO 02VC 02MD 02MO 02MC 02RD 02RO	0	1	3.4575920105	None	None	None	None	1
2.7	2015_Jun_02_1013	s	s	17	2	SIC	89	ABS	1	1	02VD 02VO 02VC 02MD 10MO 02MC 02RD 02RO	0	1	3.91101503372	None	None	None	None	1
2.7	2015_Jun_02_1013	s	s	17	2	SIC	90	RC	1	1	02VD 02VO 02VC 02MD 09MO 02MC 02RD 02RO	1	0	1.62039089203	-334.0	-345.0	-338	-354	1
2.7	2015_Jun_02_1013	s	s	17	2	SIC	91	ABS	0	1	02VD 02VO 02VC 02MD 02MO 02MC 02RD 10RO	0	1	3.71423816681	None	None	None	None	1
2.7	2015_Jun_02_1013	s	s	17	2	SIC	92	ABS	2	1	02VD 10VO 02VC 02MD 02MO 02MC 02RD 02RO	0	1	5.62560582161	None	None	None	None	1
2.7	2015_Jun_02_1013	s	s	17	2	SIC	93	ABS	1	0	02VD 02VO 02VC 02MD 02MO 10MC 02RD 02RO	0	1	3.30216002464	None	None	None	None	1
2.7	2015_Jun_02_1013	s	s	17	2	SIC	94	ABS	2	0	02VD 02VO 10VC 02MD 02MO 02MC 02RD 02RO	0	1	3.09488916397	None	None	None	None	1
2.7	2015_Jun_02_1013	s	s	17	2	SIC	95	RC	0	2	02VD 02VO 02VC 02MD 02MO 02MC 09RD 02RO	0	1	3.30692887306	129.0	-401.0	None	None	0
2.7	2015_Jun_02_1013	s	s	17	2	SIC	96	RC	2	1	02VD 09VO 02VC 02MD 02MO 02MC 02RD 02RO	1	0	1.49192690849	-454.0	83.0	-442	85	1
2.7	2015_Jun_02_1013	s	s	17	2	SIC	97	RC	2	2	09VD 02VO 02VC 02MD 02MO 02MC 02RD 02RO	1	0	1.35930991173	-209.0	-148.0	-214	-146	1
2.7	2015_Jun_02_1013	s	s	17	2	SIC	98	RC	2	1	02VD 09VO 02VC 02MD 02MO 02MC 02RD 02RO	1	0	1.24698114395	-358.0	91.0	-361	92	1
2.7	2015_Jun_02_1013	s	s	17	2	SIC	99	RC	0	2	02VD 02VO 02VC 02MD 02MO 02MC 09RD 02RO	1	0	0.870391130447	440.0	131.0	434	128	1
2.7	2015_Jun_02_1013	s	s	17	2	SIC	100	RC	0	1	02VD 02VO 02VC 02MD 02MO 02MC 02RD 09RO	1	0	3.06763720512	195.0	-309.0	205	-311	1
2.7	2015_Jun_02_1013	s	s	17	2	SIC	101	RC	1	0	02VD 02VO 02VC 02MD 02MO 09MC 02RD 02RO	1	0	3.16089296341	-518.0	-77.0	-523	-77	1
2.7	2015_Jun_02_1013	s	s	17	2	SIC	102	ABS	2	0	02VD 02VO 10VC 02MD 02MO 02MC 02RD 02RO	0	1	3.86841487885	None	None	None	None	1
2.7	2015_Jun_02_1013	s	s	17	2	SIC	103	RC	1	1	02VD 02VO 02VC 02MD 09MO 02MC 02RD 02RO	0	1	4.31648302078	-150.0	133.0	None	None	0
2.7	2015_Jun_02_1013	s	s	17	2	SIC	104	ABS	2	2	10VD 02VO 02VC 02MD 02MO 02MC 02RD 02RO	0	1	4.42154788971	None	None	None	None	1
2.7	2015_Jun_02_1013	s	s	17	2	SIC	105	ABS	2	1	02VD 10VO 02VC 02MD 02MO 02MC 02RD 02RO	0	1	2.32996702194	None	None	None	None	1
2.7	2015_Jun_02_1013	s	s	17	2	SIC	106	ABS	1	0	02VD 02VO 02VC 02MD 02MO 10MC 02RD 02RO	0	1	3.56587004662	None	None	None	None	1
2.7	2015_Jun_02_1013	s	s	17	2	SIC	107	ABS	1	1	02VD 02VO 02VC 02MD 10MO 02MC 02RD 02RO	0	1	3.50700592995	None	None	None	None	1
2.7	2015_Jun_02_1013	s	s	17	2	SIC	108	ABS	0	2	02VD 02VO 02VC 02MD 02MO 02MC 10RD 02RO	0	1	2.38633680344	None	None	None	None	1
2.7	2015_Jun_02_1013	s	s	17	2	SIC	109	RC	2	0	02VD 02VO 09VC 02MD 02MO 02MC 02RD 02RO	0	1	1.84722900391	-321.0	143.0	None	None	0
2.7	2015_Jun_02_1013	s	s	17	2	SIC	110	ABS	1	2	02VD 02VO 02VC 10MD 02MO 02MC 02RD 02RO	0	1	2.88302898407	None	None	None	None	1
2.7	2015_Jun_02_1013	s	s	17	2	SIC	111	ABS	0	1	02VD 02VO 02VC 02MD 02MO 02MC 02RD 10RO	0	1	4.61341094971	None	None	None	None	1
2.7	2015_Jun_02_1013	s	s	17	2	SIC	112	RC	1	2	02VD 02VO 02VC 09MD 02MO 02MC 02RD 02RO	1	0	2.57218813896	457.0	253.0	464	249	1
2.7	2015_Jun_02_1013	s	s	17	2	SIC	113	RC	1	0	02VD 02VO 02VC 02MD 02MO 09MC 02RD 02RO	1	0	3.50491690636	533.0	-348.0	535	-340	1
2.7	2015_Jun_02_1013	s	s	17	2	SIC	114	ABS	2	1	02VD 10VO 02VC 02MD 02MO 02MC 02RD 02RO	0	1	2.76040697098	None	None	None	None	1
2.7	2015_Jun_02_1013	s	s	17	2	SIC	115	ABS	2	2	10VD 02VO 02VC 02MD 02MO 02MC 02RD 02RO	0	1	3.32808089256	None	None	None	None	1
2.7	2015_Jun_02_1013	s	s	17	2	SIC	116	ABS	1	2	02VD 02VO 02VC 10MD 02MO 02MC 02RD 02RO	0	1	2.98394489288	None	None	None	None	1
2.7	2015_Jun_02_1013	s	s	17	2	SIC	117	ABS	2	0	02VD 02VO 10VC 02MD 02MO 02MC 02RD 02RO	0	1	3.58940911293	None	None	None	None	1
2.7	2015_Jun_02_1013	s	s	17	2	SIC	118	ABS	1	0	02VD 02VO 02VC 02MD 02MO 10MC 02RD 02RO	0	1	4.02236509323	None	None	None	None	1
2.7	2015_Jun_02_1013	s	s	17	2	SIC	119	ABS	0	2	02VD 02VO 02VC 02MD 02MO 02MC 10RD 02RO	0	1	2.5749130249	None	None	None	None	1
2.7	2015_Jun_02_1013	s	s	17	2	SIC	120	ABS	1	1	02VD 02VO 02VC 02MD 10MO 02MC 02RD 02RO	0	1	3.88972592354	None	None	None	None	1
2.7	2015_Jun_02_1013	s	s	17	2	SIC	121	RC	2	0	02VD 02VO 09VC 02MD 02MO 02MC 02RD 02RO	1	0	1.23530697823	-377.0	231.0	-372	227	1
2.7	2015_Jun_02_1013	s	s	17	2	SIC	122	RC	1	2	02VD 02VO 02VC 09MD 02MO 02MC 02RD 02RO	1	0	4.26912212372	-498.0	203.0	-487	211	1
2.7	2015_Jun_02_1013	s	s	17	2	SIC	123	ABS	0	1	02VD 02VO 02VC 02MD 02MO 02MC 02RD 10RO	0	1	3.24249887466	None	None	None	None	1
2.7	2015_Jun_02_1013	s	s	17	2	SIC	124	RC	2	1	02VD 09VO 02VC 02MD 02MO 02MC 02RD 02RO	1	0	2.33370399475	405.0	146.0	404	153	1
2.7	2015_Jun_02_1013	s	s	17	2	SIC	125	RC	0	2	02VD 02VO 02VC 02MD 02MO 02MC 09RD 02RO	1	0	1.32951998711	-481.0	-296.0	-485	-289	1
2.7	2015_Jun_02_1013	s	s	17	2	SIC	126	RC	1	1	02VD 02VO 02VC 02MD 09MO 02MC 02RD 02RO	1	0	2.96293711662	114.0	-354.0	121	-361	1
2.7	2015_Jun_02_1013	s	s	17	2	SIC	127	RC	2	2	09VD 02VO 02VC 02MD 02MO 02MC 02RD 02RO	1	0	0.97074007988	-47.0	259.0	-44	265	1
2.7	2015_Jun_02_1013	s	s	17	2	SIC	128	RC	0	1	02VD 02VO 02VC 02MD 02MO 02MC 02RD 09RO	1	0	0.75262093544	-96.0	164.0	-99	162	1
2.7	2015_Jun_02_1013	s	s	17	2	SIC	129	RC	2	0	02VD 02VO 09VC 02MD 02MO 02MC 02RD 02RO	1	0	1.7655069828	469.0	-344.0	472	-341	1
2.7	2015_Jun_02_1013	s	s	17	2	SIC	130	ABS	2	0	02VD 02VO 10VC 02MD 02MO 02MC 02RD 02RO	0	1	3.13029813766	None	None	None	None	1
2.7	2015_Jun_02_1013	s	s	17	2	SIC	131	ABS	1	0	02VD 02VO 02VC 02MD 02MO 10MC 02RD 02RO	0	1	3.9022359848	None	None	None	None	1
2.7	2015_Jun_02_1013	s	s	17	2	SIC	132	ABS	0	2	02VD 02VO 02VC 02MD 02MO 02MC 10RD 02RO	0	1	2.27110099792	None	None	None	None	1
2.7	2015_Jun_02_1013	s	s	17	2	SIC	133	ABS	1	2	02VD 02VO 02VC 10MD 02MO 02MC 02RD 02RO	0	1	1.99555206299	None	None	None	None	1
2.7	2015_Jun_02_1013	s	s	17	2	SIC	134	RC	1	0	02VD 02VO 02VC 02MD 02MO 09MC 02RD 02RO	1	0	1.32402396202	145.0	-85.0	138	-92	1
2.7	2015_Jun_02_1013	s	s	17	2	SIC	135	RC	2	1	02VD 09VO 02VC 02MD 02MO 02MC 02RD 02RO	1	0	0.97637295723	-211.0	-244.0	-212	-253	1
2.7	2015_Jun_02_1013	s	s	17	2	SIC	136	ABS	2	2	10VD 02VO 02VC 02MD 02MO 02MC 02RD 02RO	0	1	2.8926320076	None	None	None	None	1
2.7	2015_Jun_02_1013	s	s	17	2	SIC	137	ABS	2	1	02VD 10VO 02VC 02MD 02MO 02MC 02RD 02RO	0	1	4.47924113274	None	None	None	None	1
2.7	2015_Jun_02_1013	s	s	17	2	SIC	138	ABS	0	1	02VD 02VO 02VC 02MD 02MO 02MC 02RD 10RO	0	1	4.53090596199	None	None	None	None	1
2.7	2015_Jun_02_1013	s	s	17	2	SIC	139	ABS	1	1	02VD 02VO 02VC 02MD 10MO 02MC 02RD 02RO	0	1	4.17447400093	None	None	None	None	1
2.7	2015_Jun_02_1013	s	s	17	2	SIC	140	RC	1	2	02VD 02VO 02VC 09MD 02MO 02MC 02RD 02RO	1	0	1.89176011086	346.0	-228.0	353	-223	1
2.7	2015_Jun_02_1013	s	s	17	2	SIC	141	RC	2	2	09VD 02VO 02VC 02MD 02MO 02MC 02RD 02RO	1	0	2.63368678093	296.0	332.0	306	334	1
2.7	2015_Jun_02_1013	s	s	17	2	SIC	142	RC	1	1	02VD 02VO 02VC 02MD 09MO 02MC 02RD 02RO	1	0	1.84731698036	-20.0	-248.0	-17	-250	1
2.7	2015_Jun_02_1013	s	s	17	2	SIC	143	RC	0	2	02VD 02VO 02VC 02MD 02MO 02MC 09RD 02RO	1	0	2.98699212074	357.0	234.0	372	240	1
2.7	2015_Jun_02_1013	s	s	17	2	SIC	144	RC	0	1	02VD 02VO 02VC 02MD 02MO 02MC 02RD 09RO	1	0	2.65941286087	62.0	-334.0	61	-346	1
2.7	2015_Jun_02_1013	s	s	17	2	SIC	145	RC	2	0	02VD 02VO 09VC 02MD 02MO 02MC 02RD 02RO	1	0	1.65531396866	-110.0	128.0	-107	132	1
2.7	2015_Jun_02_1013	s	s	17	2	SIC	146	RC	0	2	02VD 02VO 02VC 02MD 02MO 02MC 09RD 02RO	1	0	1.09102416039	196.0	-152.0	190	-148	1
2.7	2015_Jun_02_1013	s	s	17	2	SIC	147	ABS	1	0	02VD 02VO 02VC 02MD 02MO 10MC 02RD 02RO	0	1	3.03608489037	None	None	None	None	1
2.7	2015_Jun_02_1013	s	s	17	2	SIC	148	ABS	2	2	10VD 02VO 02VC 02MD 02MO 02MC 02RD 02RO	0	1	1.97427201271	None	None	None	None	1
2.7	2015_Jun_02_1013	s	s	17	2	SIC	149	RC	1	0	02VD 02VO 02VC 02MD 02MO 09MC 02RD 02RO	1	0	1.47745418549	-85.0	-409.0	-80	-420	1
2.7	2015_Jun_02_1013	s	s	17	2	SIC	150	RC	0	1	02VD 02VO 02VC 02MD 02MO 02MC 02RD 09RO	1	0	1.96017003059	-496.0	-228.0	-483	-225	1
2.7	2015_Jun_02_1013	s	s	17	2	SIC	151	ABS	1	2	02VD 02VO 02VC 10MD 02MO 02MC 02RD 02RO	0	1	2.50345492363	None	None	None	None	1
2.7	2015_Jun_02_1013	s	s	17	2	SIC	152	ABS	2	1	02VD 10VO 02VC 02MD 02MO 02MC 02RD 02RO	0	1	3.86835002899	None	None	None	None	1
2.7	2015_Jun_02_1013	s	s	17	2	SIC	153	RC	1	2	02VD 02VO 02VC 09MD 02MO 02MC 02RD 02RO	1	0	1.29099488258	-184.0	-346.0	-179	-341	1
2.7	2015_Jun_02_1013	s	s	17	2	SIC	154	ABS	2	0	02VD 02VO 10VC 02MD 02MO 02MC 02RD 02RO	0	1	2.27102804184	None	None	None	None	1
2.7	2015_Jun_02_1013	s	s	17	2	SIC	155	RC	2	2	09VD 02VO 02VC 02MD 02MO 02MC 02RD 02RO	1	0	0.994590997696	-395.0	203.0	-384	203	1
2.7	2015_Jun_02_1013	s	s	17	2	SIC	156	RC	1	1	02VD 02VO 02VC 02MD 09MO 02MC 02RD 02RO	1	0	0.903650045395	219.0	-108.0	224	-104	1
2.7	2015_Jun_02_1013	s	s	17	2	SIC	157	RC	2	1	02VD 09VO 02VC 02MD 02MO 02MC 02RD 02RO	1	0	0.870702981949	-233.0	-124.0	-241	-122	1
2.7	2015_Jun_02_1013	s	s	17	2	SIC	158	ABS	0	2	02VD 02VO 02VC 02MD 02MO 02MC 10RD 02RO	0	1	2.33728981018	None	None	None	None	1
2.7	2015_Jun_02_1013	s	s	17	2	SIC	159	ABS	1	1	02VD 02VO 02VC 02MD 10MO 02MC 02RD 02RO	0	1	3.12800216675	None	None	None	None	1
2.7	2015_Jun_02_1013	s	s	17	2	SIC	160	ABS	0	1	02VD 02VO 02VC 02MD 02MO 02MC 02RD 10RO	0	1	3.58304595947	None	None	None	None	1
2.7	2015_Jun_02_1013	s	s	17	2	SIC	161	RC	1	1	02VD 02VO 02VC 02MD 09MO 02MC 02RD 02RO	1	0	1.91005396843	-156.0	194.0	-151	195	1
2.7	2015_Jun_02_1013	s	s	17	2	SIC	162	RC	0	2	02VD 02VO 02VC 02MD 02MO 02MC 09RD 02RO	1	0	2.25527381897	29.0	-269.0	25	-274	1
2.7	2015_Jun_02_1013	s	s	17	2	SIC	163	ABS	1	0	02VD 02VO 02VC 02MD 02MO 10MC 02RD 02RO	0	1	3.6667778492	None	None	None	None	1
2.7	2015_Jun_02_1013	s	s	17	2	SIC	164	ABS	1	2	02VD 02VO 02VC 10MD 02MO 02MC 02RD 02RO	0	1	2.84566283226	None	None	None	None	1
2.7	2015_Jun_02_1013	s	s	17	2	SIC	165	ABS	2	1	02VD 10VO 02VC 02MD 02MO 02MC 02RD 02RO	0	1	2.5862569809	None	None	None	None	1
2.7	2015_Jun_02_1013	s	s	17	2	SIC	166	ABS	0	1	02VD 02VO 02VC 02MD 02MO 02MC 02RD 10RO	0	1	5.23301196098	None	None	None	None	1
2.7	2015_Jun_02_1013	s	s	17	2	SIC	167	RC	1	2	02VD 02VO 02VC 09MD 02MO 02MC 02RD 02RO	1	0	1.13678503036	-370.0	230.0	-362	229	1
2.7	2015_Jun_02_1013	s	s	17	2	SIC	168	ABS	0	2	02VD 02VO 02VC 02MD 02MO 02MC 10RD 02RO	0	1	4.18634080887	None	None	None	None	1
2.7	2015_Jun_02_1013	s	s	17	2	SIC	169	RC	1	0	02VD 02VO 02VC 02MD 02MO 09MC 02RD 02RO	1	0	1.46550607681	23.0	-287.0	26	-287	1
2.7	2015_Jun_02_1013	s	s	17	2	SIC	170	ABS	1	1	02VD 02VO 02VC 02MD 10MO 02MC 02RD 02RO	0	1	3.18968510628	None	None	None	None	1
2.7	2015_Jun_02_1013	s	s	17	2	SIC	171	RC	0	1	02VD 02VO 02VC 02MD 02MO 02MC 02RD 09RO	1	0	1.41191101074	-282.0	-106.0	-274	-106	1
2.7	2015_Jun_02_1013	s	s	17	2	SIC	172	RC	2	1	02VD 09VO 02VC 02MD 02MO 02MC 02RD 02RO	1	0	1.85909509659	487.0	-70.0	496	-73	1
2.7	2015_Jun_02_1013	s	s	17	2	SIC	173	ABS	2	2	10VD 02VO 02VC 02MD 02MO 02MC 02RD 02RO	0	1	2.58652091026	None	None	None	None	1
2.7	2015_Jun_02_1013	s	s	17	2	SIC	174	ABS	2	0	02VD 02VO 10VC 02MD 02MO 02MC 02RD 02RO	0	1	2.27109193802	None	None	None	None	1
2.7	2015_Jun_02_1013	s	s	17	2	SIC	175	RC	2	0	02VD 02VO 09VC 02MD 02MO 02MC 02RD 02RO	1	0	1.3534078598	6.0	-85.0	-7	-80	1
2.7	2015_Jun_02_1013	s	s	17	2	SIC	176	RC	2	2	09VD 02VO 02VC 02MD 02MO 02MC 02RD 02RO	1	0	0.988042831421	-62.0	238.0	-66	243	1
2.7	2015_Jun_02_1013	s	s	17	2	SIC	177	RC	1	1	02VD 02VO 02VC 02MD 09MO 02MC 02RD 02RO	1	0	1.05504512787	-420.0	229.0	-431	232	1
2.7	2015_Jun_02_1013	s	s	17	2	SIC	178	RC	2	1	02VD 09VO 02VC 02MD 02MO 02MC 02RD 02RO	1	0	1.21881389618	-56.0	383.0	-59	392	1
2.7	2015_Jun_02_1013	s	s	17	2	SIC	179	ABS	2	0	02VD 02VO 10VC 02MD 02MO 02MC 02RD 02RO	0	1	2.45512604713	None	None	None	None	1
2.7	2015_Jun_02_1013	s	s	17	2	SIC	180	RC	2	2	09VD 02VO 02VC 02MD 02MO 02MC 02RD 02RO	1	0	2.54977107048	-484.0	-369.0	-492	-360	1
2.7	2015_Jun_02_1013	s	s	17	2	SIC	181	RC	0	1	02VD 02VO 02VC 02MD 02MO 02MC 02RD 09RO	1	0	2.17691302299	480.0	-1.0	486	5	1
2.7	2015_Jun_02_1013	s	s	17	2	SIC	182	ABS	2	1	02VD 10VO 02VC 02MD 02MO 02MC 02RD 02RO	0	1	4.38196802139	None	None	None	None	1
2.7	2015_Jun_02_1013	s	s	17	2	SIC	183	RC	1	2	02VD 02VO 02VC 09MD 02MO 02MC 02RD 02RO	1	0	2.14165496826	-75.0	-187.0	-82	-178	1
2.7	2015_Jun_02_1013	s	s	17	2	SIC	184	ABS	0	2	02VD 02VO 02VC 02MD 02MO 02MC 10RD 02RO	0	1	2.83607387543	None	None	None	None	1
2.7	2015_Jun_02_1013	s	s	17	2	SIC	185	RC	2	0	02VD 02VO 09VC 02MD 02MO 02MC 02RD 02RO	1	0	1.18633008003	174.0	14.0	169	20	1
2.7	2015_Jun_02_1013	s	s	17	2	SIC	186	ABS	2	2	10VD 02VO 02VC 02MD 02MO 02MC 02RD 02RO	0	1	2.54825496674	None	None	None	None	1
2.7	2015_Jun_02_1013	s	s	17	2	SIC	187	ABS	0	1	02VD 02VO 02VC 02MD 02MO 02MC 02RD 10RO	0	1	6.94972395897	None	None	None	None	1
2.7	2015_Jun_02_1013	s	s	17	2	SIC	188	ABS	1	1	02VD 02VO 02VC 02MD 10MO 02MC 02RD 02RO	0	1	2.98908805847	None	None	None	None	1
2.7	2015_Jun_02_1013	s	s	17	2	SIC	189	ABS	1	2	02VD 02VO 02VC 10MD 02MO 02MC 02RD 02RO	0	1	3.08339309692	None	None	None	None	1
2.7	2015_Jun_02_1013	s	s	17	2	SIC	190	ABS	1	0	02VD 02VO 02VC 02MD 02MO 10MC 02RD 02RO	0	1	4.0656979084	None	None	None	None	1
2.7	2015_Jun_02_1013	s	s	17	2	SIC	191	RC	0	2	02VD 02VO 02VC 02MD 02MO 02MC 09RD 02RO	1	0	2.07796192169	-356.0	-259.0	-351	-250	1
2.7	2015_Jun_02_1013	s	s	17	2	SIC	192	RC	1	0	02VD 02VO 02VC 02MD 02MO 09MC 02RD 02RO	1	0	1.67845988274	465.0	-21.0	473	-16	1
2.7	2015_Jun_02_1013	s	s	17	2	SIC	193	ABS	0	1	02VD 02VO 02VC 02MD 02MO 02MC 02RD 10RO	0	1	3.8638651371	None	None	None	None	1
2.7	2015_Jun_02_1013	s	s	17	2	SIC	194	RC	1	2	02VD 02VO 02VC 09MD 02MO 02MC 02RD 02RO	0	1	3.19606900215	113.0	204.0	None	None	0
2.7	2015_Jun_02_1013	s	s	17	2	SIC	195	ABS	2	1	02VD 10VO 02VC 02MD 02MO 02MC 02RD 02RO	0	1	3.73067522049	None	None	None	None	1
2.7	2015_Jun_02_1013	s	s	17	2	SIC	196	RC	1	1	02VD 02VO 02VC 02MD 09MO 02MC 02RD 02RO	1	0	1.61564993858	-426.0	254.0	-433	254	1
2.7	2015_Jun_02_1013	s	s	17	2	SIC	197	ABS	1	1	02VD 02VO 02VC 02MD 10MO 02MC 02RD 02RO	0	1	5.13180088997	None	None	None	None	1
2.7	2015_Jun_02_1013	s	s	17	2	SIC	198	ABS	1	0	02VD 02VO 02VC 02MD 02MO 10MC 02RD 02RO	0	1	3.00713610649	None	None	None	None	1
2.7	2015_Jun_02_1013	s	s	17	2	SIC	199	RC	2	1	02VD 09VO 02VC 02MD 02MO 02MC 02RD 02RO	1	0	8.41535687447	176.0	-164.0	175	-161	1
2.7	2015_Jun_02_1013	s	s	17	2	SIC	200	ABS	2	2	10VD 02VO 02VC 02MD 02MO 02MC 02RD 02RO	0	1	2.39504599571	None	None	None	None	1
2.7	2015_Jun_02_1013	s	s	17	2	SIC	201	RC	1	0	02VD 02VO 02VC 02MD 02MO 09MC 02RD 02RO	1	0	1.208340168	-414.0	218.0	-412	219	1
2.7	2015_Jun_02_1013	s	s	17	2	SIC	202	RC	2	0	02VD 02VO 09VC 02MD 02MO 02MC 02RD 02RO	1	0	2.48086714745	-453.0	-329.0	-459	-330	1
2.7	2015_Jun_02_1013	s	s	17	2	SIC	203	ABS	0	2	02VD 02VO 02VC 02MD 02MO 02MC 10RD 02RO	0	1	3.24804997444	None	None	None	None	1
2.7	2015_Jun_02_1013	s	s	17	2	SIC	204	ABS	1	2	02VD 02VO 02VC 10MD 02MO 02MC 02RD 02RO	0	1	6.91535520554	None	None	None	None	1
2.7	2015_Jun_02_1013	s	s	17	2	SIC	205	RC	0	2	02VD 02VO 02VC 02MD 02MO 02MC 09RD 02RO	1	0	0.936089992523	-283.0	297.0	-278	294	1
2.7	2015_Jun_02_1013	s	s	17	2	SIC	206	ABS	2	0	02VD 02VO 10VC 02MD 02MO 02MC 02RD 02RO	0	1	2.37703919411	None	None	None	None	1
2.7	2015_Jun_02_1013	s	s	17	2	SIC	207	RC	2	2	09VD 02VO 02VC 02MD 02MO 02MC 02RD 02RO	1	0	1.55022597313	-417.0	-333.0	-412	-330	1
2.7	2015_Jun_02_1013	s	s	17	2	SIC	208	RC	0	1	02VD 02VO 02VC 02MD 02MO 02MC 02RD 09RO	0	1	3.34217119217	115.0	-368.0	None	None	0
2.7	2015_Jun_02_1013	s	s	17	2	SIC	209	RC	1	2	02VD 02VO 02VC 09MD 02MO 02MC 02RD 02RO	1	0	0.729358911514	81.0	2.0	80	2	1
2.7	2015_Jun_02_1013	s	s	17	2	SIC	210	ABS	1	2	02VD 02VO 02VC 10MD 02MO 02MC 02RD 02RO	0	1	2.44747614861	None	None	None	None	1
2.7	2015_Jun_02_1013	s	s	17	2	SIC	211	ABS	2	2	10VD 02VO 02VC 02MD 02MO 02MC 02RD 02RO	0	1	2.11795902252	None	None	None	None	1
2.7	2015_Jun_02_1013	s	s	17	2	SIC	212	RC	1	0	02VD 02VO 02VC 02MD 02MO 09MC 02RD 02RO	1	0	1.64391899109	-19.0	-389.0	-20	-392	1
2.7	2015_Jun_02_1013	s	s	17	2	SIC	213	RC	1	1	02VD 02VO 02VC 02MD 09MO 02MC 02RD 02RO	1	0	0.782569169998	-82.0	-299.0	-76	-291	1
2.7	2015_Jun_02_1013	s	s	17	2	SIC	214	ABS	1	1	02VD 02VO 02VC 02MD 10MO 02MC 02RD 02RO	0	1	3.55410599709	None	None	None	None	1
2.7	2015_Jun_02_1013	s	s	17	2	SIC	215	RC	0	1	02VD 02VO 02VC 02MD 02MO 02MC 02RD 09RO	1	0	1.45896816254	226.0	-360.0	222	-352	1
2.7	2015_Jun_02_1013	s	s	17	2	SIC	216	ABS	2	0	02VD 02VO 10VC 02MD 02MO 02MC 02RD 02RO	0	1	1.96509504318	None	None	None	None	1
2.7	2015_Jun_02_1013	s	s	17	2	SIC	217	RC	2	2	09VD 02VO 02VC 02MD 02MO 02MC 02RD 02RO	1	0	0.92444896698	-265.0	61.0	-260	60	1
2.7	2015_Jun_02_1013	s	s	17	2	SIC	218	RC	0	2	02VD 02VO 02VC 02MD 02MO 02MC 09RD 02RO	1	0	1.32955384254	-230.0	-159.0	-223	-156	1
2.7	2015_Jun_02_1013	s	s	17	2	SIC	219	ABS	2	1	02VD 10VO 02VC 02MD 02MO 02MC 02RD 02RO	0	1	3.91886115074	None	None	None	None	1
2.7	2015_Jun_02_1013	s	s	17	2	SIC	220	ABS	0	1	02VD 02VO 02VC 02MD 02MO 02MC 02RD 10RO	0	1	3.93941497803	None	None	None	None	1
2.7	2015_Jun_02_1013	s	s	17	2	SIC	221	ABS	1	0	02VD 02VO 02VC 02MD 02MO 10MC 02RD 02RO	0	1	4.06965398788	None	None	None	None	1
2.7	2015_Jun_02_1013	s	s	17	2	SIC	222	RC	2	0	02VD 02VO 09VC 02MD 02MO 02MC 02RD 02RO	1	0	2.77413892746	284.0	114.0	272	121	1
2.7	2015_Jun_02_1013	s	s	17	2	SIC	223	RC	2	1	02VD 09VO 02VC 02MD 02MO 02MC 02RD 02RO	1	0	2.21212005615	96.0	203.0	103	204	1
2.7	2015_Jun_02_1013	s	s	17	2	SIC	224	ABS	0	2	02VD 02VO 02VC 02MD 02MO 02MC 10RD 02RO	0	1	2.78629302979	None	None	None	None	1
2.7	2015_Jun_02_1013	s	s	17	2	SIC	225	RC	2	0	02VD 02VO 09VC 02MD 02MO 02MC 02RD 02RO	1	0	2.45409703255	303.0	382.0	299	384	1
2.7	2015_Jun_02_1013	s	s	17	2	SIC	226	RC	1	1	02VD 02VO 02VC 02MD 09MO 02MC 02RD 02RO	1	0	2.09445810318	-383.0	327.0	-379	323	1
2.7	2015_Jun_02_1013	s	s	17	2	SIC	227	ABS	2	2	10VD 02VO 02VC 02MD 02MO 02MC 02RD 02RO	0	1	2.19782686234	None	None	None	None	1
2.7	2015_Jun_02_1013	s	s	17	2	SIC	228	RC	2	2	09VD 02VO 02VC 02MD 02MO 02MC 02RD 02RO	1	0	1.47077298164	191.0	-328.0	185	-324	1
2.7	2015_Jun_02_1013	s	s	17	2	SIC	229	ABS	0	2	02VD 02VO 02VC 02MD 02MO 02MC 10RD 02RO	0	1	2.50418305397	None	None	None	None	1
2.7	2015_Jun_02_1013	s	s	17	2	SIC	230	ABS	1	0	02VD 02VO 02VC 02MD 02MO 10MC 02RD 02RO	0	1	3.90480208397	None	None	None	None	1
2.7	2015_Jun_02_1013	s	s	17	2	SIC	231	ABS	0	1	02VD 02VO 02VC 02MD 02MO 02MC 02RD 10RO	0	1	3.95421600342	None	None	None	None	1
2.7	2015_Jun_02_1013	s	s	17	2	SIC	232	RC	0	1	02VD 02VO 02VC 02MD 02MO 02MC 02RD 09RO	0	1	3.61293101311	-208.0	-12.0	None	None	0
2.7	2015_Jun_02_1013	s	s	17	2	SIC	233	ABS	2	1	02VD 10VO 02VC 02MD 02MO 02MC 02RD 02RO	0	1	3.34607195854	None	None	None	None	1
2.7	2015_Jun_02_1013	s	s	17	2	SIC	234	RC	0	2	02VD 02VO 02VC 02MD 02MO 02MC 09RD 02RO	1	0	2.73014807701	535.0	-280.0	541	-279	1
2.7	2015_Jun_02_1013	s	s	17	2	SIC	235	RC	1	2	02VD 02VO 02VC 09MD 02MO 02MC 02RD 02RO	1	0	0.811531066895	-77.0	-66.0	-80	-73	1
2.7	2015_Jun_02_1013	s	s	17	2	SIC	236	RC	2	1	02VD 09VO 02VC 02MD 02MO 02MC 02RD 02RO	1	0	0.900684118271	-11.0	332.0	-4	339	1
2.7	2015_Jun_02_1013	s	s	17	2	SIC	237	RC	1	0	02VD 02VO 02VC 02MD 02MO 09MC 02RD 02RO	1	0	1.21793603897	-369.0	216.0	-365	221	1
2.7	2015_Jun_02_1013	s	s	17	2	SIC	238	ABS	1	1	02VD 02VO 02VC 02MD 10MO 02MC 02RD 02RO	0	1	3.8226339817	None	None	None	None	1
2.7	2015_Jun_02_1013	s	s	17	2	SIC	239	ABS	1	2	02VD 02VO 02VC 10MD 02MO 02MC 02RD 02RO	0	1	3.26613092422	None	None	None	None	1
2.7	2015_Jun_02_1013	s	s	17	2	SIC	240	ABS	2	0	02VD 02VO 10VC 02MD 02MO 02MC 02RD 02RO	0	1	1.89004015923	None	None	None	None	1
2.7	2015_Jun_02_1013	s	s	17	2	SIC	241	ABS	0	1	02VD 02VO 02VC 02MD 02MO 02MC 02RD 10RO	0	1	3.39791703224	None	None	None	None	1
2.7	2015_Jun_02_1013	s	s	17	2	SIC	242	ABS	1	0	02VD 02VO 02VC 02MD 02MO 10MC 02RD 02RO	0	1	3.48341321945	None	None	None	None	1
2.7	2015_Jun_02_1013	s	s	17	2	SIC	243	RC	1	1	02VD 02VO 02VC 02MD 09MO 02MC 02RD 02RO	1	0	1.43535709381	497.0	185.0	504	178	1
2.7	2015_Jun_02_1013	s	s	17	2	SIC	244	RC	2	1	02VD 09VO 02VC 02MD 02MO 02MC 02RD 02RO	1	0	0.858695030212	450.0	24.0	445	30	1
2.7	2015_Jun_02_1013	s	s	17	2	SIC	245	ABS	1	1	02VD 02VO 02VC 02MD 10MO 02MC 02RD 02RO	0	1	2.44782805443	None	None	None	None	1
2.7	2015_Jun_02_1013	s	s	17	2	SIC	246	ABS	2	1	02VD 10VO 02VC 02MD 02MO 02MC 02RD 02RO	0	1	1.82014298439	None	None	None	None	1
2.7	2015_Jun_02_1013	s	s	17	2	SIC	247	RC	1	0	02VD 02VO 02VC 02MD 02MO 09MC 02RD 02RO	1	0	2.80817699432	143.0	176.0	148	166	1
2.7	2015_Jun_02_1013	s	s	17	2	SIC	248	RC	0	1	02VD 02VO 02VC 02MD 02MO 02MC 02RD 09RO	1	0	2.79773807526	437.0	103.0	441	112	1
2.7	2015_Jun_02_1013	s	s	17	2	SIC	249	ABS	1	2	02VD 02VO 02VC 10MD 02MO 02MC 02RD 02RO	0	1	1.97682309151	None	None	None	None	1
2.7	2015_Jun_02_1013	s	s	17	2	SIC	250	ABS	2	0	02VD 02VO 10VC 02MD 02MO 02MC 02RD 02RO	0	1	3.00085306168	None	None	None	None	1
2.7	2015_Jun_02_1013	s	s	17	2	SIC	251	ABS	2	2	10VD 02VO 02VC 02MD 02MO 02MC 02RD 02RO	0	1	3.342263937	None	None	None	None	1
2.7	2015_Jun_02_1013	s	s	17	2	SIC	252	RC	2	0	02VD 02VO 09VC 02MD 02MO 02MC 02RD 02RO	1	0	0.96453499794	-120.0	-214.0	-123	-213	1
2.7	2015_Jun_02_1013	s	s	17	2	SIC	253	RC	2	2	09VD 02VO 02VC 02MD 02MO 02MC 02RD 02RO	1	0	1.00377106667	373.0	13.0	379	23	1
2.7	2015_Jun_02_1013	s	s	17	2	SIC	254	RC	1	2	02VD 02VO 02VC 09MD 02MO 02MC 02RD 02RO	1	0	2.23020219803	-205.0	150.0	-203	146	1
2.7	2015_Jun_02_1013	s	s	17	2	SIC	255	RC	0	2	02VD 02VO 02VC 02MD 02MO 02MC 09RD 02RO	1	0	1.26540279388	18.0	208.0	16	206	1
2.7	2015_Jun_02_1013	s	s	17	2	SIC	256	ABS	0	2	02VD 02VO 02VC 02MD 02MO 02MC 10RD 02RO	0	1	3.14837002754	None	None	None	None	1
2.7	2015_Jun_02_1013	s	s	17	2	SIC	257	ABS	1	0	02VD 02VO 02VC 02MD 02MO 10MC 02RD 02RO	0	1	3.84565186501	None	None	None	None	1
2.7	2015_Jun_02_1013	s	s	17	2	SIC	258	RC	2	0	02VD 02VO 09VC 02MD 02MO 02MC 02RD 02RO	1	0	1.49420881271	108.0	376.0	98	376	1
2.7	2015_Jun_02_1013	s	s	17	2	SIC	259	ABS	0	2	02VD 02VO 02VC 02MD 02MO 02MC 10RD 02RO	0	1	3.40107083321	None	None	None	None	1
2.7	2015_Jun_02_1013	s	s	17	2	SIC	260	ABS	1	2	02VD 02VO 02VC 10MD 02MO 02MC 02RD 02RO	0	1	2.50651907921	None	None	None	None	1
2.7	2015_Jun_02_1013	s	s	17	2	SIC	261	RC	1	0	02VD 02VO 02VC 02MD 02MO 09MC 02RD 02RO	1	0	1.67781996727	-228.0	176.0	-224	172	1
2.7	2015_Jun_02_1013	s	s	17	2	SIC	262	ABS	2	0	02VD 02VO 10VC 02MD 02MO 02MC 02RD 02RO	0	1	2.57709503174	None	None	None	None	1
2.7	2015_Jun_02_1013	s	s	17	2	SIC	263	ABS	2	2	10VD 02VO 02VC 02MD 02MO 02MC 02RD 02RO	0	1	2.1007668972	None	None	None	None	1
2.7	2015_Jun_02_1013	s	s	17	2	SIC	264	ABS	2	1	02VD 10VO 02VC 02MD 02MO 02MC 02RD 02RO	0	1	1.9065618515	None	None	None	None	1
2.7	2015_Jun_02_1013	s	s	17	2	SIC	265	RC	2	2	09VD 02VO 02VC 02MD 02MO 02MC 02RD 02RO	1	0	1.21010899544	170.0	407.0	174	410	1
2.7	2015_Jun_02_1013	s	s	17	2	SIC	266	RC	1	1	02VD 02VO 02VC 02MD 09MO 02MC 02RD 02RO	1	0	1.03513097763	-120.0	285.0	-116	284	1
2.7	2015_Jun_02_1013	s	s	17	2	SIC	267	RC	0	1	02VD 02VO 02VC 02MD 02MO 02MC 02RD 09RO	1	0	2.73819899559	-422.0	-329.0	-418	-333	1
2.7	2015_Jun_02_1013	s	s	17	2	SIC	268	RC	2	1	02VD 09VO 02VC 02MD 02MO 02MC 02RD 02RO	1	0	0.835056781769	189.0	40.0	180	37	1
2.7	2015_Jun_02_1013	s	s	17	2	SIC	269	ABS	1	1	02VD 02VO 02VC 02MD 10MO 02MC 02RD 02RO	0	1	3.73441696167	None	None	None	None	1
2.7	2015_Jun_02_1013	s	s	17	2	SIC	270	RC	0	2	02VD 02VO 02VC 02MD 02MO 02MC 09RD 02RO	1	0	1.64719986916	361.0	13.0	367	10	1
2.7	2015_Jun_02_1013	s	s	17	2	SIC	271	ABS	0	1	02VD 02VO 02VC 02MD 02MO 02MC 02RD 10RO	0	1	3.7368710041	None	None	None	None	1
2.7	2015_Jun_02_1013	s	s	17	2	SIC	272	RC	1	2	02VD 02VO 02VC 09MD 02MO 02MC 02RD 02RO	1	0	0.876984119415	154.0	388.0	149	395	1
2.7	2015_Jun_02_1013	s	s	17	2	SIC	273	ABS	1	2	02VD 02VO 02VC 10MD 02MO 02MC 02RD 02RO	0	1	2.55119681358	None	None	None	None	1
2.7	2015_Jun_02_1013	s	s	17	2	SIC	274	ABS	2	2	10VD 02VO 02VC 02MD 02MO 02MC 02RD 02RO	0	1	2.85728192329	None	None	None	None	1
2.7	2015_Jun_02_1013	s	s	17	2	SIC	275	ABS	1	1	02VD 02VO 02VC 02MD 10MO 02MC 02RD 02RO	0	1	2.28899002075	None	None	None	None	1
2.7	2015_Jun_02_1013	s	s	17	2	SIC	276	RC	1	2	02VD 02VO 02VC 09MD 02MO 02MC 02RD 02RO	1	0	1.72468590736	-237.0	314.0	-236	317	1
2.7	2015_Jun_02_1013	s	s	17	2	SIC	277	ABS	2	0	02VD 02VO 10VC 02MD 02MO 02MC 02RD 02RO	0	1	2.53672599792	None	None	None	None	1
2.7	2015_Jun_02_1013	s	s	17	2	SIC	278	RC	0	2	02VD 02VO 02VC 02MD 02MO 02MC 09RD 02RO	1	0	0.974008798599	-222.0	-133.0	-218	-130	1
2.7	2015_Jun_02_1013	s	s	17	2	SIC	279	RC	0	1	02VD 02VO 02VC 02MD 02MO 02MC 02RD 09RO	1	0	0.913082122803	-123.0	45.0	-117	44	1
2.7	2015_Jun_02_1013	s	s	17	2	SIC	280	ABS	0	1	02VD 02VO 02VC 02MD 02MO 02MC 02RD 10RO	0	1	3.11271905899	None	None	None	None	1
2.7	2015_Jun_02_1013	s	s	17	2	SIC	281	ABS	2	1	02VD 10VO 02VC 02MD 02MO 02MC 02RD 02RO	0	1	2.18521809578	None	None	None	None	1
2.7	2015_Jun_02_1013	s	s	17	2	SIC	282	RC	1	1	02VD 02VO 02VC 02MD 09MO 02MC 02RD 02RO	1	0	0.96450304985	-124.0	-272.0	-123	-282	1
2.7	2015_Jun_02_1013	s	s	17	2	SIC	283	RC	2	2	09VD 02VO 02VC 02MD 02MO 02MC 02RD 02RO	1	0	0.760786771774	-214.0	71.0	-206	71	1
2.7	2015_Jun_02_1013	s	s	17	2	SIC	284	ABS	1	0	02VD 02VO 02VC 02MD 02MO 10MC 02RD 02RO	0	1	3.50699496269	None	None	None	None	1
2.7	2015_Jun_02_1013	s	s	17	2	SIC	285	RC	2	0	02VD 02VO 09VC 02MD 02MO 02MC 02RD 02RO	1	0	1.45387196541	471.0	250.0	480	246	1
2.7	2015_Jun_02_1013	s	s	17	2	SIC	286	RC	2	1	02VD 09VO 02VC 02MD 02MO 02MC 02RD 02RO	1	0	2.23087191582	-508.0	93.0	-501	96	1
2.7	2015_Jun_02_1013	s	s	17	2	SIC	287	RC	1	0	02VD 02VO 02VC 02MD 02MO 09MC 02RD 02RO	1	0	1.51772499084	523.0	96.0	516	101	1
2.7	2015_Jun_02_1013	s	s	17	2	SIC	288	ABS	0	2	02VD 02VO 02VC 02MD 02MO 02MC 10RD 02RO	0	1	1.9850320816	None	None	None	None	1
2.7	2015_Jun_02_1013	s	s	17	2	SIC	289	ABS	2	0	02VD 02VO 10VC 02MD 02MO 02MC 02RD 02RO	0	1	3.10681200027	None	None	None	None	1
2.7	2015_Jun_02_1013	s	s	17	2	SIC	290	RC	2	2	09VD 02VO 02VC 02MD 02MO 02MC 02RD 02RO	1	0	0.965224027634	-13.0	-43.0	-5	-47	1
2.7	2015_Jun_02_1013	s	s	17	2	SIC	291	ABS	2	2	10VD 02VO 02VC 02MD 02MO 02MC 02RD 02RO	0	1	3.0091919899	None	None	None	None	1
2.7	2015_Jun_02_1013	s	s	17	2	SIC	292	ABS	1	2	02VD 02VO 02VC 10MD 02MO 02MC 02RD 02RO	0	1	3.25973200798	None	None	None	None	1
2.7	2015_Jun_02_1013	s	s	17	2	SIC	293	ABS	0	2	02VD 02VO 02VC 02MD 02MO 02MC 10RD 02RO	0	1	2.79509282112	None	None	None	None	1
2.7	2015_Jun_02_1013	s	s	17	2	SIC	294	RC	0	1	02VD 02VO 02VC 02MD 02MO 02MC 02RD 09RO	1	0	2.49478816986	-496.0	-191.0	-491	-187	1
2.7	2015_Jun_02_1013	s	s	17	2	SIC	295	ABS	0	1	02VD 02VO 02VC 02MD 02MO 02MC 02RD 10RO	0	1	5.61384510994	None	None	None	None	1
2.7	2015_Jun_02_1013	s	s	17	2	SIC	296	RC	1	2	02VD 02VO 02VC 09MD 02MO 02MC 02RD 02RO	1	0	2.47738480568	235.0	-348.0	240	-343	1
2.7	2015_Jun_02_1013	s	s	17	2	SIC	297	RC	0	2	02VD 02VO 02VC 02MD 02MO 02MC 09RD 02RO	1	0	1.85907101631	-422.0	113.0	-433	113	1
2.7	2015_Jun_02_1013	s	s	17	2	SIC	298	RC	2	1	02VD 09VO 02VC 02MD 02MO 02MC 02RD 02RO	1	0	4.71660900116	38.0	-196.0	47	-198	1
2.7	2015_Jun_02_1013	s	s	17	2	SIC	299	RC	1	0	02VD 02VO 02VC 02MD 02MO 09MC 02RD 02RO	1	0	1.74133610725	-362.0	202.0	-366	198	1
2.7	2015_Jun_02_1013	s	s	17	2	SIC	300	ABS	2	1	02VD 10VO 02VC 02MD 02MO 02MC 02RD 02RO	0	1	1.85433793068	None	None	None	None	1
2.7	2015_Jun_02_1013	s	s	17	2	SIC	301	ABS	1	0	02VD 02VO 02VC 02MD 02MO 10MC 02RD 02RO	0	1	3.03624391556	None	None	None	None	1
2.7	2015_Jun_02_1013	s	s	17	2	SIC	302	RC	2	0	02VD 02VO 09VC 02MD 02MO 02MC 02RD 02RO	1	0	1.74124097824	-258.0	-192.0	-267	-187	1
2.7	2015_Jun_02_1013	s	s	17	2	SIC	303	ABS	1	1	02VD 02VO 02VC 02MD 10MO 02MC 02RD 02RO	0	1	2.45936012268	None	None	None	None	1
2.7	2015_Jun_02_1013	s	s	17	2	SIC	304	RC	1	1	02VD 02VO 02VC 02MD 09MO 02MC 02RD 02RO	1	0	1.81823205948	-517.0	-142.0	-522	-136	1
2.7	2015_Jun_02_1013	s	s	17	2	SIC	305	RC	1	0	02VD 02VO 02VC 02MD 02MO 09MC 02RD 02RO	1	0	1.64499592781	-312.0	-357.0	-321	-356	1
2.7	2015_Jun_02_1013	s	s	17	2	SIC	306	ABS	1	2	02VD 02VO 02VC 10MD 02MO 02MC 02RD 02RO	0	1	1.59433412552	None	None	None	None	1
2.7	2015_Jun_02_1013	s	s	17	2	SIC	307	ABS	0	1	02VD 02VO 02VC 02MD 02MO 02MC 02RD 10RO	1	0	2.92409801483	None	None	34	-60	0
2.7	2015_Jun_02_1013	s	s	17	2	SIC	308	RC	1	1	02VD 02VO 02VC 02MD 09MO 02MC 02RD 02RO	1	0	1.04685378075	-373.0	-27.0	-370	-41	1
2.7	2015_Jun_02_1013	s	s	17	2	SIC	309	RC	2	2	09VD 02VO 02VC 02MD 02MO 02MC 02RD 02RO	1	0	0.811526060104	-256.0	-91.0	-259	-92	1
2.7	2015_Jun_02_1013	s	s	17	2	SIC	310	ABS	0	2	02VD 02VO 02VC 02MD 02MO 02MC 10RD 02RO	0	1	2.82196807861	None	None	None	None	1
2.7	2015_Jun_02_1013	s	s	17	2	SIC	311	RC	2	1	02VD 09VO 02VC 02MD 02MO 02MC 02RD 02RO	1	0	2.03950095177	306.0	-307.0	319	-304	1
2.7	2015_Jun_02_1013	s	s	17	2	SIC	312	RC	1	2	02VD 02VO 02VC 09MD 02MO 02MC 02RD 02RO	0	1	2.09220480919	252.0	117.0	None	None	0
2.7	2015_Jun_02_1013	s	s	17	2	SIC	313	RC	0	1	02VD 02VO 02VC 02MD 02MO 02MC 02RD 09RO	0	1	3.2087829113	110.0	-209.0	None	None	0
2.7	2015_Jun_02_1013	s	s	17	2	SIC	314	ABS	2	2	10VD 02VO 02VC 02MD 02MO 02MC 02RD 02RO	0	1	1.65939903259	None	None	None	None	1
2.7	2015_Jun_02_1013	s	s	17	2	SIC	315	ABS	2	0	02VD 02VO 10VC 02MD 02MO 02MC 02RD 02RO	0	1	3.25986003876	None	None	None	None	1
2.7	2015_Jun_02_1013	s	s	17	2	SIC	316	RC	0	2	02VD 02VO 02VC 02MD 02MO 02MC 09RD 02RO	1	0	0.799784898758	-181.0	-32.0	-190	-33	1
2.7	2015_Jun_02_1013	s	s	17	2	SIC	317	ABS	2	1	02VD 10VO 02VC 02MD 02MO 02MC 02RD 02RO	0	1	2.70663094521	None	None	None	None	1
2.7	2015_Jun_02_1013	s	s	17	2	SIC	318	RC	2	0	02VD 02VO 09VC 02MD 02MO 02MC 02RD 02RO	1	0	0.900346040726	-477.0	114.0	-485	122	1
2.7	2015_Jun_02_1013	s	s	17	2	SIC	319	ABS	1	0	02VD 02VO 02VC 02MD 02MO 10MC 02RD 02RO	0	1	3.7194340229	None	None	None	None	1
2.7	2015_Jun_02_1013	s	s	17	2	SIC	320	ABS	1	1	02VD 02VO 02VC 02MD 10MO 02MC 02RD 02RO	0	1	2.49199795723	None	None	None	None	1
2.7	2015_Jun_02_1013	s	s	17	2	SIC	321	RC	2	1	02VD 09VO 02VC 02MD 02MO 02MC 02RD 02RO	1	0	2.57707309723	398.0	222.0	402	224	1
2.7	2015_Jun_02_1013	s	s	17	2	SIC	322	ABS	1	2	02VD 02VO 02VC 10MD 02MO 02MC 02RD 02RO	0	1	2.32481908798	None	None	None	None	1
2.7	2015_Jun_02_1013	s	s	17	2	SIC	323	RC	1	1	02VD 02VO 02VC 02MD 09MO 02MC 02RD 02RO	1	0	0.8048350811	-106.0	-35.0	-94	-31	1
2.7	2015_Jun_02_1013	s	s	17	2	SIC	324	RC	1	0	02VD 02VO 02VC 02MD 02MO 09MC 02RD 02RO	1	0	3.27993202209	212.0	257.0	207	262	1
2.7	2015_Jun_02_1013	s	s	17	2	SIC	325	RC	2	2	09VD 02VO 02VC 02MD 02MO 02MC 02RD 02RO	1	0	1.13631296158	-237.0	136.0	-227	144	1
2.7	2015_Jun_02_1013	s	s	17	2	SIC	326	ABS	1	0	02VD 02VO 02VC 02MD 02MO 10MC 02RD 02RO	0	1	2.2522289753	None	None	None	None	1
2.7	2015_Jun_02_1013	s	s	17	2	SIC	327	RC	2	0	02VD 02VO 09VC 02MD 02MO 02MC 02RD 02RO	1	0	0.771469116211	-119.0	108.0	-111	102	1
2.7	2015_Jun_02_1013	s	s	17	2	SIC	328	RC	1	2	02VD 02VO 02VC 09MD 02MO 02MC 02RD 02RO	1	0	0.893946170807	69.0	94.0	64	97	1
2.7	2015_Jun_02_1013	s	s	17	2	SIC	329	ABS	2	1	02VD 10VO 02VC 02MD 02MO 02MC 02RD 02RO	1	0	2.31816506386	None	None	295	-114	0
2.7	2015_Jun_02_1013	s	s	17	2	SIC	330	RC	0	1	02VD 02VO 02VC 02MD 02MO 02MC 02RD 09RO	1	0	3.51876783371	-6.0	-200.0	9	-194	1
2.7	2015_Jun_02_1013	s	s	17	2	SIC	331	RC	0	2	02VD 02VO 02VC 02MD 02MO 02MC 09RD 02RO	1	0	1.0703959465	203.0	-111.0	205	-119	1
2.7	2015_Jun_02_1013	s	s	17	2	SIC	332	ABS	2	0	02VD 02VO 10VC 02MD 02MO 02MC 02RD 02RO	0	1	2.40055203438	None	None	None	None	1
2.7	2015_Jun_02_1013	s	s	17	2	SIC	333	ABS	0	1	02VD 02VO 02VC 02MD 02MO 02MC 02RD 10RO	0	1	3.67176318169	None	None	None	None	1
2.7	2015_Jun_02_1013	s	s	17	2	SIC	334	ABS	2	2	10VD 02VO 02VC 02MD 02MO 02MC 02RD 02RO	1	0	0.799623966217	None	None	45	232	0
2.7	2015_Jun_02_1013	s	s	17	2	SIC	335	ABS	1	1	02VD 02VO 02VC 02MD 10MO 02MC 02RD 02RO	0	1	5.1431851387	None	None	None	None	1
2.7	2015_Jun_02_1013	s	s	17	2	SIC	336	ABS	0	2	02VD 02VO 02VC 02MD 02MO 02MC 10RD 02RO	0	1	3.0831091404	None	None	None	None	1
2.7	2015_Jun_02_1013	s	s	17	2	SIC	337	RC	1	1	02VD 02VO 02VC 02MD 09MO 02MC 02RD 02RO	0	1	3.48346805573	-448.0	-356.0	None	None	0
2.7	2015_Jun_02_1013	s	s	17	2	SIC	338	RC	0	2	02VD 02VO 02VC 02MD 02MO 02MC 09RD 02RO	1	0	1.45662713051	-200.0	-314.0	-207	-305	1
2.7	2015_Jun_02_1013	s	s	17	2	SIC	339	ABS	2	0	02VD 02VO 10VC 02MD 02MO 02MC 02RD 02RO	0	1	1.91300797462	None	None	None	None	1
2.7	2015_Jun_02_1013	s	s	17	2	SIC	340	ABS	1	1	02VD 02VO 02VC 02MD 10MO 02MC 02RD 02RO	0	1	2.8662109375	None	None	None	None	1
2.7	2015_Jun_02_1013	s	s	17	2	SIC	341	RC	1	2	02VD 02VO 02VC 09MD 02MO 02MC 02RD 02RO	1	0	1.12260007858	337.0	263.0	343	261	1
2.7	2015_Jun_02_1013	s	s	17	2	SIC	342	ABS	2	1	02VD 10VO 02VC 02MD 02MO 02MC 02RD 02RO	0	1	1.98421788216	None	None	None	None	1
2.7	2015_Jun_02_1013	s	s	17	2	SIC	343	RC	2	2	09VD 02VO 02VC 02MD 02MO 02MC 02RD 02RO	1	0	1.68632698059	-396.0	-212.0	-391	-209	1
2.7	2015_Jun_02_1013	s	s	17	2	SIC	344	ABS	0	2	02VD 02VO 02VC 02MD 02MO 02MC 10RD 02RO	0	1	2.04737091064	None	None	None	None	1
2.7	2015_Jun_02_1013	s	s	17	2	SIC	345	RC	1	0	02VD 02VO 02VC 02MD 02MO 09MC 02RD 02RO	1	0	1.57279109955	531.0	-266.0	533	-261	1
2.7	2015_Jun_02_1013	s	s	17	2	SIC	346	ABS	1	0	02VD 02VO 02VC 02MD 02MO 10MC 02RD 02RO	0	1	2.7715280056	None	None	None	None	1
2.7	2015_Jun_02_1013	s	s	17	2	SIC	347	ABS	1	2	02VD 02VO 02VC 10MD 02MO 02MC 02RD 02RO	0	1	2.64772605896	None	None	None	None	1
2.7	2015_Jun_02_1013	s	s	17	2	SIC	348	ABS	0	1	02VD 02VO 02VC 02MD 02MO 02MC 02RD 10RO	0	1	3.54914402962	None	None	None	None	1
2.7	2015_Jun_02_1013	s	s	17	2	SIC	349	RC	0	1	02VD 02VO 02VC 02MD 02MO 02MC 02RD 09RO	1	0	2.47165298462	-462.0	-212.0	-470	-211	1
2.7	2015_Jun_02_1013	s	s	17	2	SIC	350	RC	2	1	02VD 09VO 02VC 02MD 02MO 02MC 02RD 02RO	1	0	1.39684009552	-348.0	-73.0	-336	-63	1
2.7	2015_Jun_02_1013	s	s	17	2	SIC	351	RC	2	0	02VD 02VO 09VC 02MD 02MO 02MC 02RD 02RO	1	0	2.35389995575	539.0	-369.0	531	-363	1
2.7	2015_Jun_02_1013	s	s	17	2	SIC	352	ABS	2	2	10VD 02VO 02VC 02MD 02MO 02MC 02RD 02RO	0	1	2.36519002914	None	None	None	None	1
2.7	2015_Jun_02_1013	s	s	17	2	SIC	353	RC	1	2	02VD 02VO 02VC 09MD 02MO 02MC 02RD 02RO	1	0	0.953248977661	-226.0	21.0	-220	21	1
2.7	2015_Jun_02_1013	s	s	17	2	SIC	354	ABS	2	0	02VD 02VO 10VC 02MD 02MO 02MC 02RD 02RO	0	1	2.55340504646	None	None	None	None	1
2.7	2015_Jun_02_1013	s	s	17	2	SIC	355	ABS	1	0	02VD 02VO 02VC 02MD 02MO 10MC 02RD 02RO	0	1	2.40457487106	None	None	None	None	1
2.7	2015_Jun_02_1013	s	s	17	2	SIC	356	ABS	0	1	02VD 02VO 02VC 02MD 02MO 02MC 02RD 10RO	0	1	2.7928249836	None	None	None	None	1
2.7	2015_Jun_02_1013	s	s	17	2	SIC	357	ABS	1	2	02VD 02VO 02VC 10MD 02MO 02MC 02RD 02RO	0	1	1.96505999565	None	None	None	None	1
2.7	2015_Jun_02_1013	s	s	17	2	SIC	358	RC	2	0	02VD 02VO 09VC 02MD 02MO 02MC 02RD 02RO	1	0	1.86532402039	427.0	-171.0	436	-173	1
2.7	2015_Jun_02_1013	s	s	17	2	SIC	359	RC	1	0	02VD 02VO 02VC 02MD 02MO 09MC 02RD 02RO	1	0	0.712325811386	-203.0	233.0	-204	235	1
2.7	2015_Jun_02_1013	s	s	17	2	SIC	360	RC	1	1	02VD 02VO 02VC 02MD 09MO 02MC 02RD 02RO	1	0	1.41183590889	-229.0	306.0	-231	303	1
2.7	2015_Jun_02_1013	s	s	17	2	SIC	361	RC	0	2	02VD 02VO 02VC 02MD 02MO 02MC 09RD 02RO	0	1	4.49081301689	233.0	176.0	None	None	0
2.7	2015_Jun_02_1013	s	s	17	2	SIC	362	ABS	2	2	10VD 02VO 02VC 02MD 02MO 02MC 02RD 02RO	0	1	2.10111093521	None	None	None	None	1
2.7	2015_Jun_02_1013	s	s	17	2	SIC	363	RC	2	2	09VD 02VO 02VC 02MD 02MO 02MC 02RD 02RO	1	0	0.674092054367	36.0	102.0	34	95	1
2.7	2015_Jun_02_1013	s	s	17	2	SIC	364	ABS	0	2	02VD 02VO 02VC 02MD 02MO 02MC 10RD 02RO	0	1	2.04744696617	None	None	None	None	1
2.7	2015_Jun_02_1013	s	s	17	2	SIC	365	RC	0	1	02VD 02VO 02VC 02MD 02MO 02MC 02RD 09RO	1	0	1.80893802643	-158.0	-230.0	-161	-233	1
2.7	2015_Jun_02_1013	s	s	17	2	SIC	366	RC	2	1	02VD 09VO 02VC 02MD 02MO 02MC 02RD 02RO	1	0	0.929167985916	124.0	128.0	118	126	1
2.7	2015_Jun_02_1013	s	s	17	2	SIC	367	ABS	2	1	02VD 10VO 02VC 02MD 02MO 02MC 02RD 02RO	0	1	1.95914006233	None	None	None	None	1
2.7	2015_Jun_02_1013	s	s	17	2	SIC	368	ABS	1	1	02VD 02VO 02VC 02MD 10MO 02MC 02RD 02RO	0	1	2.51350188255	None	None	None	None	1
2.7	2015_Jun_02_1013	s	s	17	2	SIC	369	RC	1	1	02VD 02VO 02VC 02MD 09MO 02MC 02RD 02RO	1	0	1.61801099777	-291.0	-170.0	-288	-174	1
2.7	2015_Jun_02_1013	s	s	17	2	SIC	370	RC	1	2	02VD 02VO 02VC 09MD 02MO 02MC 02RD 02RO	1	0	1.17396712303	121.0	-292.0	125	-289	1
2.7	2015_Jun_02_1013	s	s	17	2	SIC	371	RC	0	2	02VD 02VO 02VC 02MD 02MO 02MC 09RD 02RO	1	0	1.80411791801	-89.0	-198.0	-89	-205	1
2.7	2015_Jun_02_1013	s	s	17	2	SIC	372	RC	2	1	02VD 09VO 02VC 02MD 02MO 02MC 02RD 02RO	1	0	2.78672289848	119.0	103.0	125	99	1
2.7	2015_Jun_02_1013	s	s	17	2	SIC	373	ABS	2	0	02VD 02VO 10VC 02MD 02MO 02MC 02RD 02RO	0	1	2.46626400948	None	None	None	None	1
2.7	2015_Jun_02_1013	s	s	17	2	SIC	374	ABS	2	2	10VD 02VO 02VC 02MD 02MO 02MC 02RD 02RO	0	1	2.165184021	None	None	None	None	1
2.7	2015_Jun_02_1013	s	s	17	2	SIC	375	ABS	1	2	02VD 02VO 02VC 10MD 02MO 02MC 02RD 02RO	0	1	2.95376110077	None	None	None	None	1
2.7	2015_Jun_02_1013	s	s	17	2	SIC	376	RC	0	1	02VD 02VO 02VC 02MD 02MO 02MC 02RD 09RO	0	1	5.1034181118	382.0	-267.0	None	None	0
2.7	2015_Jun_02_1013	s	s	17	2	SIC	377	ABS	0	2	02VD 02VO 02VC 02MD 02MO 02MC 10RD 02RO	0	1	2.56531596184	None	None	None	None	1
2.7	2015_Jun_02_1013	s	s	17	2	SIC	378	RC	1	0	02VD 02VO 02VC 02MD 02MO 09MC 02RD 02RO	0	1	3.05968904495	173.0	-5.0	None	None	0
2.7	2015_Jun_02_1013	s	s	17	2	SIC	379	RC	2	2	09VD 02VO 02VC 02MD 02MO 02MC 02RD 02RO	1	0	0.809442043304	-84.0	100.0	-84	101	1
2.7	2015_Jun_02_1013	s	s	17	2	SIC	380	ABS	1	1	02VD 02VO 02VC 02MD 10MO 02MC 02RD 02RO	0	1	2.12634110451	None	None	None	None	1
2.7	2015_Jun_02_1013	s	s	17	2	SIC	381	RC	2	0	02VD 02VO 09VC 02MD 02MO 02MC 02RD 02RO	1	0	1.49421882629	-414.0	27.0	-414	15	1
2.7	2015_Jun_02_1013	s	s	17	2	SIC	382	ABS	0	1	02VD 02VO 02VC 02MD 02MO 02MC 02RD 10RO	0	1	4.42511415482	None	None	None	None	1
2.7	2015_Jun_02_1013	s	s	17	2	SIC	383	ABS	1	0	02VD 02VO 02VC 02MD 02MO 10MC 02RD 02RO	0	1	3.32479095459	None	None	None	None	1
2.7	2015_Jun_02_1013	s	s	17	2	SIC	384	ABS	2	1	02VD 10VO 02VC 02MD 02MO 02MC 02RD 02RO	0	1	1.83008694649	None	None	None	None	1
2.7	2015_Jun_02_1013	s	s	17	2	SIC	385	RC	1	1	02VD 02VO 02VC 02MD 09MO 02MC 02RD 02RO	1	0	2.70665001869	287.0	-301.0	290	-303	1
2.7	2015_Jun_02_1013	s	s	17	2	SIC	386	ABS	2	2	10VD 02VO 02VC 02MD 02MO 02MC 02RD 02RO	0	1	1.17634701729	None	None	None	None	1
2.7	2015_Jun_02_1013	s	s	17	2	SIC	387	ABS	1	2	02VD 02VO 02VC 10MD 02MO 02MC 02RD 02RO	0	1	1.81205010414	None	None	None	None	1
2.7	2015_Jun_02_1013	s	s	17	2	SIC	388	ABS	1	0	02VD 02VO 02VC 02MD 02MO 10MC 02RD 02RO	0	1	4.11476898193	None	None	None	None	1
2.7	2015_Jun_02_1013	s	s	17	2	SIC	389	RC	2	0	02VD 02VO 09VC 02MD 02MO 02MC 02RD 02RO	1	0	2.19506692886	-184.0	192.0	-183	189	1
2.7	2015_Jun_02_1013	s	s	17	2	SIC	390	ABS	0	1	02VD 02VO 02VC 02MD 02MO 02MC 02RD 10RO	0	1	3.87188601494	None	None	None	None	1
2.7	2015_Jun_02_1013	s	s	17	2	SIC	391	RC	1	0	02VD 02VO 02VC 02MD 02MO 09MC 02RD 02RO	1	0	1.25380110741	228.0	132.0	213	139	1
2.7	2015_Jun_02_1013	s	s	17	2	SIC	392	RC	2	2	09VD 02VO 02VC 02MD 02MO 02MC 02RD 02RO	1	0	2.08966803551	116.0	-284.0	126	-279	1
2.7	2015_Jun_02_1013	s	s	17	2	SIC	393	ABS	1	1	02VD 02VO 02VC 02MD 10MO 02MC 02RD 02RO	0	1	3.31515979767	None	None	None	None	1
2.7	2015_Jun_02_1013	s	s	17	2	SIC	394	RC	1	2	02VD 02VO 02VC 09MD 02MO 02MC 02RD 02RO	1	0	2.31803417206	-477.0	410.0	-473	418	1
2.7	2015_Jun_02_1013	s	s	17	2	SIC	395	ABS	0	2	02VD 02VO 02VC 02MD 02MO 02MC 10RD 02RO	0	1	3.70508599281	None	None	None	None	1
2.7	2015_Jun_02_1013	s	s	17	2	SIC	396	RC	0	2	02VD 02VO 02VC 02MD 02MO 02MC 09RD 02RO	1	0	1.21753096581	-485.0	-43.0	-476	-44	1
2.7	2015_Jun_02_1013	s	s	17	2	SIC	397	ABS	2	1	02VD 10VO 02VC 02MD 02MO 02MC 02RD 02RO	0	1	3.76373910904	None	None	None	None	1
2.7	2015_Jun_02_1013	s	s	17	2	SIC	398	RC	0	1	02VD 02VO 02VC 02MD 02MO 02MC 02RD 09RO	0	1	4.82570505142	-463.0	216.0	None	None	0
2.7	2015_Jun_02_1013	s	s	17	2	SIC	399	ABS	2	0	02VD 02VO 10VC 02MD 02MO 02MC 02RD 02RO	0	1	2.60541510582	None	None	None	None	1
2.7	2015_Jun_02_1013	s	s	17	2	SIC	400	RC	2	1	02VD 09VO 02VC 02MD 02MO 02MC 02RD 02RO	1	0	1.93908596039	-425.0	-184.0	-415	-186	1
2.7	2015_Jun_02_1013	s	s	17	2	SIC	401	RC	1	0	02VD 02VO 02VC 02MD 02MO 09MC 02RD 02RO	1	0	0.691680908203	-219.0	-62.0	-211	-59	1
2.7	2015_Jun_02_1013	s	s	17	2	SIC	402	ABS	0	2	02VD 02VO 02VC 02MD 02MO 02MC 10RD 02RO	0	1	1.42364501953	None	None	None	None	1
2.7	2015_Jun_02_1013	s	s	17	2	SIC	403	RC	2	0	02VD 02VO 09VC 02MD 02MO 02MC 02RD 02RO	1	0	2.71321797371	206.0	-136.0	206	-137	1
2.7	2015_Jun_02_1013	s	s	17	2	SIC	404	RC	1	2	02VD 02VO 02VC 09MD 02MO 02MC 02RD 02RO	1	0	1.55297207832	-238.0	-270.0	-227	-269	1
2.7	2015_Jun_02_1013	s	s	17	2	SIC	405	RC	1	1	02VD 02VO 02VC 02MD 09MO 02MC 02RD 02RO	0	1	3.2951669693	367.0	75.0	None	None	0
2.7	2015_Jun_02_1013	s	s	17	2	SIC	406	ABS	0	1	02VD 02VO 02VC 02MD 02MO 02MC 02RD 10RO	0	1	4.98526906967	None	None	None	None	1
2.7	2015_Jun_02_1013	s	s	17	2	SIC	407	ABS	2	0	02VD 02VO 10VC 02MD 02MO 02MC 02RD 02RO	0	1	2.51282095909	None	None	None	None	1
2.7	2015_Jun_02_1013	s	s	17	2	SIC	408	ABS	2	1	02VD 10VO 02VC 02MD 02MO 02MC 02RD 02RO	0	1	1.66567206383	None	None	None	None	1
2.7	2015_Jun_02_1013	s	s	17	2	SIC	409	ABS	2	2	10VD 02VO 02VC 02MD 02MO 02MC 02RD 02RO	0	1	2.78432488441	None	None	None	None	1
2.7	2015_Jun_02_1013	s	s	17	2	SIC	410	RC	0	2	02VD 02VO 02VC 02MD 02MO 02MC 09RD 02RO	1	0	0.834990024567	94.0	26.0	85	27	1
2.7	2015_Jun_02_1013	s	s	17	2	SIC	411	ABS	1	0	02VD 02VO 02VC 02MD 02MO 10MC 02RD 02RO	0	1	4.02486515045	None	None	None	None	1
2.7	2015_Jun_02_1013	s	s	17	2	SIC	412	ABS	1	1	02VD 02VO 02VC 02MD 10MO 02MC 02RD 02RO	0	1	4.47219204903	None	None	None	None	1
2.7	2015_Jun_02_1013	s	s	17	2	SIC	413	ABS	1	2	02VD 02VO 02VC 10MD 02MO 02MC 02RD 02RO	0	1	3.18569803238	None	None	None	None	1
2.7	2015_Jun_02_1013	s	s	17	2	SIC	414	RC	2	1	02VD 09VO 02VC 02MD 02MO 02MC 02RD 02RO	1	0	2.78698611259	411.0	-402.0	418	-399	1
2.7	2015_Jun_02_1013	s	s	17	2	SIC	415	RC	0	1	02VD 02VO 02VC 02MD 02MO 02MC 02RD 09RO	1	0	3.69005680084	476.0	66.0	470	62	1
2.7	2015_Jun_02_1013	s	s	17	2	SIC	416	RC	2	2	09VD 02VO 02VC 02MD 02MO 02MC 02RD 02RO	1	0	1.13833379745	-290.0	77.0	-292	76	1
2.7	2015_Jun_02_1013	s	s	17	2	SIC	417	RC	1	2	02VD 02VO 02VC 09MD 02MO 02MC 02RD 02RO	1	0	1.90608692169	166.0	-92.0	168	-84	1
2.7	2015_Jun_02_1013	s	s	17	2	SIC	418	RC	2	2	09VD 02VO 02VC 02MD 02MO 02MC 02RD 02RO	1	0	1.58402395248	2.0	-284.0	0	-280	1
2.7	2015_Jun_02_1013	s	s	17	2	SIC	419	RC	2	0	02VD 02VO 09VC 02MD 02MO 02MC 02RD 02RO	1	0	1.70614504814	90.0	-409.0	88	-404	1
2.7	2015_Jun_02_1013	s	s	17	2	SIC	420	ABS	1	0	02VD 02VO 02VC 02MD 02MO 10MC 02RD 02RO	0	1	3.76357603073	None	None	None	None	1
2.7	2015_Jun_02_1013	s	s	17	2	SIC	421	RC	0	2	02VD 02VO 02VC 02MD 02MO 02MC 09RD 02RO	1	0	2.62450885773	-365.0	283.0	-370	292	1
2.7	2015_Jun_02_1013	s	s	17	2	SIC	422	RC	1	1	02VD 02VO 02VC 02MD 09MO 02MC 02RD 02RO	1	0	2.22403502464	-465.0	173.0	-462	175	1
2.7	2015_Jun_02_1013	s	s	17	2	SIC	423	RC	1	0	02VD 02VO 02VC 02MD 02MO 09MC 02RD 02RO	1	0	1.10023999214	-190.0	-99.0	-190	-96	1
2.7	2015_Jun_02_1013	s	s	17	2	SIC	424	RC	0	1	02VD 02VO 02VC 02MD 02MO 02MC 02RD 09RO	0	1	3.22445297241	-10.0	408.0	None	None	0
2.7	2015_Jun_02_1013	s	s	17	2	SIC	425	ABS	1	1	02VD 02VO 02VC 02MD 10MO 02MC 02RD 02RO	0	1	2.19628810883	None	None	None	None	1
2.7	2015_Jun_02_1013	s	s	17	2	SIC	426	ABS	2	2	10VD 02VO 02VC 02MD 02MO 02MC 02RD 02RO	0	1	3.8578209877	None	None	None	None	1
2.7	2015_Jun_02_1013	s	s	17	2	SIC	427	ABS	0	1	02VD 02VO 02VC 02MD 02MO 02MC 02RD 10RO	0	1	3.53049612045	None	None	None	None	1
2.7	2015_Jun_02_1013	s	s	17	2	SIC	428	ABS	2	1	02VD 10VO 02VC 02MD 02MO 02MC 02RD 02RO	0	1	3.22827887535	None	None	None	None	1
2.7	2015_Jun_02_1013	s	s	17	2	SIC	429	RC	2	1	02VD 09VO 02VC 02MD 02MO 02MC 02RD 02RO	1	0	1.56094193459	-430.0	-329.0	-430	-327	1
2.7	2015_Jun_02_1013	s	s	17	2	SIC	430	ABS	0	2	02VD 02VO 02VC 02MD 02MO 02MC 10RD 02RO	0	1	2.07087898254	None	None	None	None	1
2.7	2015_Jun_02_1013	s	s	17	2	SIC	431	ABS	1	2	02VD 02VO 02VC 10MD 02MO 02MC 02RD 02RO	0	1	1.61821007729	None	None	None	None	1
2.7	2015_Jun_02_1013	s	s	17	2	SIC	432	ABS	2	0	02VD 02VO 10VC 02MD 02MO 02MC 02RD 02RO	0	1	2.24750590324	None	None	None	None	1
2.7	2015_Jun_02_1013	s	s	17	2	SIC	433	RC	2	1	02VD 09VO 02VC 02MD 02MO 02MC 02RD 02RO	1	0	2.4715487957	-322.0	-387.0	-321	-378	1
2.7	2015_Jun_02_1013	s	s	17	2	SIC	434	RC	2	2	09VD 02VO 02VC 02MD 02MO 02MC 02RD 02RO	1	0	0.952758789062	-79.0	202.0	-72	203	1
2.7	2015_Jun_02_1013	s	s	17	2	SIC	435	RC	2	0	02VD 02VO 09VC 02MD 02MO 02MC 02RD 02RO	1	0	1.882625103	-355.0	-20.0	-354	-26	1
2.7	2015_Jun_02_1013	s	s	17	2	SIC	436	ABS	2	0	02VD 02VO 10VC 02MD 02MO 02MC 02RD 02RO	0	1	2.13883709908	None	None	None	None	1
2.7	2015_Jun_02_1013	s	s	17	2	SIC	437	ABS	2	2	10VD 02VO 02VC 02MD 02MO 02MC 02RD 02RO	0	1	3.25486207008	None	None	None	None	1
2.7	2015_Jun_02_1013	s	s	17	2	SIC	438	ABS	1	0	02VD 02VO 02VC 02MD 02MO 10MC 02RD 02RO	0	1	4.02492189407	None	None	None	None	1
2.7	2015_Jun_02_1013	s	s	17	2	SIC	439	ABS	0	1	02VD 02VO 02VC 02MD 02MO 02MC 02RD 10RO	0	1	3.51648211479	None	None	None	None	1
2.7	2015_Jun_02_1013	s	s	17	2	SIC	440	ABS	1	1	02VD 02VO 02VC 02MD 10MO 02MC 02RD 02RO	0	1	3.06430602074	None	None	None	None	1
2.7	2015_Jun_02_1013	s	s	17	2	SIC	441	ABS	1	2	02VD 02VO 02VC 10MD 02MO 02MC 02RD 02RO	0	1	2.80643200874	None	None	None	None	1
2.7	2015_Jun_02_1013	s	s	17	2	SIC	442	ABS	0	2	02VD 02VO 02VC 02MD 02MO 02MC 10RD 02RO	0	1	2.2983789444	None	None	None	None	1
2.7	2015_Jun_02_1013	s	s	17	2	SIC	443	RC	1	1	02VD 02VO 02VC 02MD 09MO 02MC 02RD 02RO	0	1	3.68017792702	-439.0	-28.0	None	None	0
2.7	2015_Jun_02_1013	s	s	17	2	SIC	444	RC	1	0	02VD 02VO 02VC 02MD 02MO 09MC 02RD 02RO	0	1	4.44233107567	347.0	-69.0	None	None	0
2.7	2015_Jun_02_1013	s	s	17	2	SIC	445	RC	0	2	02VD 02VO 02VC 02MD 02MO 02MC 09RD 02RO	1	0	1.58862709999	341.0	-252.0	334	-244	1
2.7	2015_Jun_02_1013	s	s	17	2	SIC	446	RC	0	1	02VD 02VO 02VC 02MD 02MO 02MC 02RD 09RO	1	0	3.50382685661	471.0	383.0	463	388	1
2.7	2015_Jun_02_1013	s	s	17	2	SIC	447	RC	1	2	02VD 02VO 02VC 09MD 02MO 02MC 02RD 02RO	1	0	1.17633891106	-177.0	393.0	-169	389	1
2.7	2015_Jun_02_1013	s	s	17	2	SIC	448	ABS	2	1	02VD 10VO 02VC 02MD 02MO 02MC 02RD 02RO	0	1	2.21235609055	None	None	None	None	1
2.7	2015_Jun_02_1013	s	s	17	2	SIC	449	RC	0	1	02VD 02VO 02VC 02MD 02MO 02MC 02RD 09RO	1	0	1.26827502251	-418.0	408.0	-418	407	1
2.7	2015_Jun_02_1013	s	s	17	2	SIC	450	ABS	1	1	02VD 02VO 02VC 02MD 10MO 02MC 02RD 02RO	0	1	3.24804091454	None	None	None	None	1
2.7	2015_Jun_02_1013	s	s	17	2	SIC	451	ABS	2	1	02VD 10VO 02VC 02MD 02MO 02MC 02RD 02RO	0	1	2.24414801598	None	None	None	None	1
2.7	2015_Jun_02_1013	s	s	17	2	SIC	452	RC	1	1	02VD 02VO 02VC 02MD 09MO 02MC 02RD 02RO	1	0	1.17280602455	298.0	322.0	294	320	1
2.7	2015_Jun_02_1013	s	s	17	2	SIC	453	RC	2	2	09VD 02VO 02VC 02MD 02MO 02MC 02RD 02RO	1	0	1.96508288383	-339.0	-406.0	-333	-409	1
2.7	2015_Jun_02_1013	s	s	17	2	SIC	454	RC	1	0	02VD 02VO 02VC 02MD 02MO 09MC 02RD 02RO	1	0	0.973440885544	-458.0	111.0	-468	109	1
2.7	2015_Jun_02_1013	s	s	17	2	SIC	455	RC	2	1	02VD 09VO 02VC 02MD 02MO 02MC 02RD 02RO	1	0	0.90066409111	94.0	-91.0	90	-95	1
2.7	2015_Jun_02_1013	s	s	17	2	SIC	456	ABS	2	2	10VD 02VO 02VC 02MD 02MO 02MC 02RD 02RO	0	1	1.85526800156	None	None	None	None	1
2.7	2015_Jun_02_1013	s	s	17	2	SIC	457	ABS	0	1	02VD 02VO 02VC 02MD 02MO 02MC 02RD 10RO	0	1	2.35006690025	None	None	None	None	1
2.7	2015_Jun_02_1013	s	s	17	2	SIC	458	RC	0	2	02VD 02VO 02VC 02MD 02MO 02MC 09RD 02RO	1	0	0.726835012436	93.0	-15.0	86	-12	1
2.7	2015_Jun_02_1013	s	s	17	2	SIC	459	ABS	1	0	02VD 02VO 02VC 02MD 02MO 10MC 02RD 02RO	0	1	1.93927311897	None	None	None	None	1
2.7	2015_Jun_02_1013	s	s	17	2	SIC	460	ABS	2	0	02VD 02VO 10VC 02MD 02MO 02MC 02RD 02RO	0	1	2.70237493515	None	None	None	None	1
2.7	2015_Jun_02_1013	s	s	17	2	SIC	461	RC	2	0	02VD 02VO 09VC 02MD 02MO 02MC 02RD 02RO	1	0	2.50635313988	7.0	-190.0	5	-181	1
2.7	2015_Jun_02_1013	s	s	17	2	SIC	462	ABS	1	2	02VD 02VO 02VC 10MD 02MO 02MC 02RD 02RO	0	1	2.3275949955	None	None	None	None	1
2.7	2015_Jun_02_1013	s	s	17	2	SIC	463	RC	1	2	02VD 02VO 02VC 09MD 02MO 02MC 02RD 02RO	1	0	1.28007817268	284.0	241.0	281	238	1
2.7	2015_Jun_02_1013	s	s	17	2	SIC	464	ABS	0	2	02VD 02VO 02VC 02MD 02MO 02MC 10RD 02RO	0	1	2.17391705513	None	None	None	None	1
2.7	2015_Jun_02_1013	s	s	17	2	SIC	465	ABS	1	0	02VD 02VO 02VC 02MD 02MO 10MC 02RD 02RO	0	1	3.23398900032	None	None	None	None	1
2.7	2015_Jun_02_1013	s	s	17	2	SIC	466	ABS	1	1	02VD 02VO 02VC 02MD 10MO 02MC 02RD 02RO	0	1	3.72614002228	None	None	None	None	1
2.7	2015_Jun_02_1013	s	s	17	2	SIC	467	RC	1	1	02VD 02VO 02VC 02MD 09MO 02MC 02RD 02RO	1	0	0.72380399704	-87.0	65.0	-79	69	1
2.7	2015_Jun_02_1013	s	s	17	2	SIC	468	RC	2	1	02VD 09VO 02VC 02MD 02MO 02MC 02RD 02RO	1	0	2.2771320343	-454.0	39.0	-448	47	1
2.7	2015_Jun_02_1013	s	s	17	2	SIC	469	ABS	2	0	02VD 02VO 10VC 02MD 02MO 02MC 02RD 02RO	0	1	2.57256293297	None	None	None	None	1
2.7	2015_Jun_02_1013	s	s	17	2	SIC	470	RC	2	0	02VD 02VO 09VC 02MD 02MO 02MC 02RD 02RO	1	0	1.76481699944	436.0	177.0	435	172	1
2.7	2015_Jun_02_1013	s	s	17	2	SIC	471	ABS	2	1	02VD 10VO 02VC 02MD 02MO 02MC 02RD 02RO	0	1	2.4551050663	None	None	None	None	1
2.7	2015_Jun_02_1013	s	s	17	2	SIC	472	ABS	0	2	02VD 02VO 02VC 02MD 02MO 02MC 10RD 02RO	0	1	2.43588018417	None	None	None	None	1
2.7	2015_Jun_02_1013	s	s	17	2	SIC	473	ABS	0	1	02VD 02VO 02VC 02MD 02MO 02MC 02RD 10RO	0	1	3.27160000801	None	None	None	None	1
2.7	2015_Jun_02_1013	s	s	17	2	SIC	474	RC	2	2	09VD 02VO 02VC 02MD 02MO 02MC 02RD 02RO	1	0	1.65906214714	-199.0	-216.0	-205	-219	1
2.7	2015_Jun_02_1013	s	s	17	2	SIC	475	ABS	2	2	10VD 02VO 02VC 02MD 02MO 02MC 02RD 02RO	0	1	3.07146310806	None	None	None	None	1
2.7	2015_Jun_02_1013	s	s	17	2	SIC	476	RC	0	1	02VD 02VO 02VC 02MD 02MO 02MC 02RD 09RO	1	0	3.0478720665	-6.0	270.0	0	277	1
2.7	2015_Jun_02_1013	s	s	17	2	SIC	477	RC	0	2	02VD 02VO 02VC 02MD 02MO 02MC 09RD 02RO	0	1	3.05947399139	426.0	213.0	None	None	0
2.7	2015_Jun_02_1013	s	s	17	2	SIC	478	RC	1	0	02VD 02VO 02VC 02MD 02MO 09MC 02RD 02RO	1	0	1.04036808014	-293.0	149.0	-297	152	1
2.7	2015_Jun_02_1013	s	s	17	2	SIC	479	RC	1	2	02VD 02VO 02VC 09MD 02MO 02MC 02RD 02RO	1	0	1.26633787155	-19.0	-153.0	-27	-148	1
2.7	2015_Jun_02_1013	s	s	17	2	SIC	480	ABS	1	2	02VD 02VO 02VC 10MD 02MO 02MC 02RD 02RO	0	1	2.20978689194	None	None	None	None	1
