Version	Date	Stimuli	Method	Subject	Session	Condition	Trial	Target	Channel1	Channel2	Distractors	LMouseButton	RMouseButton	RT	TargetX	TargetY	ResponseX	ResponseY	Correct
2.7	2015_Jun_05_1013	s	s	17	5	Capacity	1	RC	0	1	08RD 15RO	1	0	2.42412614822	408.0	-165.0	409	-167	1
2.7	2015_Jun_05_1013	s	s	17	5	Capacity	2	ABS	0	1	08RD 16RO	0	1	3.75407409668	None	None	None	None	1
2.7	2015_Jun_05_1013	s	s	17	5	Capacity	3	ABS	0	2	16RD 08RO	0	1	3.51458096504	None	None	None	None	1
2.7	2015_Jun_05_1013	s	s	17	5	Capacity	4	RC	0	2	15RD 08RO	1	0	1.35296010971	-166.0	-91.0	-166	-86	1
2.7	2015_Jun_05_1013	s	s	17	5	Capacity	5	RC	0	2	15RD 08RO	1	0	1.55329704285	170.0	-103.0	175	-96	1
2.7	2015_Jun_05_1013	s	s	17	5	Capacity	6	RC	0	1	08RD 15RO	1	0	1.25883412361	-120.0	-362.0	-133	-358	1
2.7	2015_Jun_05_1013	s	s	17	5	Capacity	7	ABS	0	1	08RD 16RO	0	1	3.71607112885	None	None	None	None	1
2.7	2015_Jun_05_1013	s	s	17	5	Capacity	8	ABS	0	2	16RD 08RO	0	1	2.49469089508	None	None	None	None	1
2.7	2015_Jun_05_1013	s	s	17	5	Capacity	9	ABS	0	2	16RD 08RO	0	1	2.50160813332	None	None	None	None	1
2.7	2015_Jun_05_1013	s	s	17	5	Capacity	10	ABS	0	1	08RD 16RO	0	1	3.71082806587	None	None	None	None	1
2.7	2015_Jun_05_1013	s	s	17	5	Capacity	11	RC	0	2	15RD 08RO	1	0	1.12282896042	248.0	-292.0	248	-293	1
2.7	2015_Jun_05_1013	s	s	17	5	Capacity	12	RC	0	1	08RD 15RO	1	0	1.72961688042	-412.0	-131.0	-408	-130	1
2.7	2015_Jun_05_1013	s	s	17	5	Capacity	13	RC	0	1	08RD 15RO	1	0	0.9503698349	84.0	-125.0	86	-129	1
2.7	2015_Jun_05_1013	s	s	17	5	Capacity	14	ABS	0	1	08RD 16RO	0	1	5.39851999283	None	None	None	None	1
2.7	2015_Jun_05_1013	s	s	17	5	Capacity	15	ABS	0	2	16RD 08RO	0	1	2.85593008995	None	None	None	None	1
2.7	2015_Jun_05_1013	s	s	17	5	Capacity	16	RC	0	2	15RD 08RO	1	0	0.764444112778	-173.0	-69.0	-164	-73	1
2.7	2015_Jun_05_1013	s	s	17	5	Capacity	17	RC	0	2	15RD 08RO	1	0	2.03208589554	-360.0	-233.0	-358	-230	1
2.7	2015_Jun_05_1013	s	s	17	5	Capacity	18	ABS	0	2	16RD 08RO	0	1	2.9538860321	None	None	None	None	1
2.7	2015_Jun_05_1013	s	s	17	5	Capacity	19	ABS	0	1	08RD 16RO	0	1	8.21524810791	None	None	None	None	1
2.7	2015_Jun_05_1013	s	s	17	5	Capacity	20	RC	0	1	08RD 15RO	1	0	0.762611150742	52.0	-85.0	48	-83	1
2.7	2015_Jun_05_1013	s	s	17	5	Capacity	21	ABS	0	1	08RD 16RO	0	1	5.72736096382	None	None	None	None	1
2.7	2015_Jun_05_1013	s	s	17	5	Capacity	22	RC	0	2	15RD 08RO	1	0	0.794848203659	-267.0	23.0	-264	26	1
2.7	2015_Jun_05_1013	s	s	17	5	Capacity	23	ABS	0	2	16RD 08RO	0	1	3.98958492279	None	None	None	None	1
2.7	2015_Jun_05_1013	s	s	17	5	Capacity	24	RC	0	1	08RD 15RO	1	0	3.37752604485	417.0	210.0	421	207	1
2.7	2015_Jun_05_1013	s	s	17	5	Capacity	25	RC	0	1	08RD 15RO	1	0	0.646775007248	-149.0	5.0	-137	14	1
2.7	2015_Jun_05_1013	s	s	17	5	Capacity	26	RC	0	2	15RD 08RO	1	0	2.37742400169	321.0	-333.0	316	-329	1
2.7	2015_Jun_05_1013	s	s	17	5	Capacity	27	ABS	0	1	08RD 16RO	0	1	5.28438520432	None	None	None	None	1
2.7	2015_Jun_05_1013	s	s	17	5	Capacity	28	ABS	0	2	16RD 08RO	0	1	4.12592792511	None	None	None	None	1
2.7	2015_Jun_05_1013	s	s	17	5	Capacity	29	RC	0	1	08RD 15RO	1	0	1.32541203499	311.0	26.0	312	22	1
2.7	2015_Jun_05_1013	s	s	17	5	Capacity	30	RC	0	2	15RD 08RO	1	0	1.00838303566	26.0	-220.0	14	-218	1
2.7	2015_Jun_05_1013	s	s	17	5	Capacity	31	ABS	0	1	08RD 16RO	0	1	3.87190008163	None	None	None	None	1
2.7	2015_Jun_05_1013	s	s	17	5	Capacity	32	ABS	0	2	16RD 08RO	0	1	2.64346909523	None	None	None	None	1
2.7	2015_Jun_05_1013	s	s	17	5	Capacity	33	RC	0	2	15RD 08RO	1	0	1.42042613029	-500.0	281.0	-509	280	1
2.7	2015_Jun_05_1013	s	s	17	5	Capacity	34	RC	0	1	08RD 15RO	1	0	3.35156202316	535.0	3.0	542	-1	1
2.7	2015_Jun_05_1013	s	s	17	5	Capacity	35	ABS	0	1	08RD 16RO	0	1	4.76642203331	None	None	None	None	1
2.7	2015_Jun_05_1013	s	s	17	5	Capacity	36	ABS	0	2	16RD 08RO	0	1	3.2125248909	None	None	None	None	1
2.7	2015_Jun_05_1013	s	s	17	5	Capacity	37	ABS	0	1	08RD 16RO	0	1	5.39437794685	None	None	None	None	1
2.7	2015_Jun_05_1013	s	s	17	5	Capacity	38	ABS	0	2	16RD 08RO	0	1	3.7307009697	None	None	None	None	1
2.7	2015_Jun_05_1013	s	s	17	5	Capacity	39	RC	0	1	08RD 15RO	1	0	1.7245028019	-488.0	221.0	-494	218	1
2.7	2015_Jun_05_1013	s	s	17	5	Capacity	40	RC	0	2	15RD 08RO	1	0	1.40008687973	-18.0	-285.0	-18	-281	1
2.7	2015_Jun_05_1013	s	s	17	5	Capacity	41	RC	0	1	08RD 15RO	1	0	3.1274831295	-290.0	-245.0	-286	-237	1
2.7	2015_Jun_05_1013	s	s	17	5	Capacity	42	RC	0	2	15RD 08RO	1	0	1.63534498215	-529.0	-318.0	-534	-322	1
2.7	2015_Jun_05_1013	s	s	17	5	Capacity	43	ABS	0	2	16RD 08RO	0	1	3.31566500664	None	None	None	None	1
2.7	2015_Jun_05_1013	s	s	17	5	Capacity	44	ABS	0	1	08RD 16RO	0	1	7.02627897263	None	None	None	None	1
2.7	2015_Jun_05_1013	s	s	17	5	Capacity	45	RC	0	1	08RD 15RO	1	0	1.78846812248	3.0	-147.0	0	-143	1
2.7	2015_Jun_05_1013	s	s	17	5	Capacity	46	ABS	0	2	16RD 08RO	0	1	4.88411283493	None	None	None	None	1
2.7	2015_Jun_05_1013	s	s	17	5	Capacity	47	RC	0	2	15RD 08RO	1	0	3.03620791435	387.0	272.0	392	270	1
2.7	2015_Jun_05_1013	s	s	17	5	Capacity	48	ABS	0	1	08RD 16RO	0	1	4.59962105751	None	None	None	None	1
2.7	2015_Jun_05_1013	s	s	17	5	Capacity	49	RC	0	2	15RD 08RO	1	0	1.41863298416	-456.0	-75.0	-467	-69	1
2.7	2015_Jun_05_1013	s	s	17	5	Capacity	50	ABS	0	2	16RD 08RO	0	1	3.04534196854	None	None	None	None	1
2.7	2015_Jun_05_1013	s	s	17	5	Capacity	51	ABS	0	1	08RD 16RO	0	1	4.82331204414	None	None	None	None	1
2.7	2015_Jun_05_1013	s	s	17	5	Capacity	52	RC	0	1	08RD 15RO	1	0	1.88000702858	196.0	221.0	197	208	1
2.7	2015_Jun_05_1013	s	s	17	5	Capacity	53	RC	0	1	08RD 15RO	1	0	3.2008831501	68.0	-324.0	70	-321	1
2.7	2015_Jun_05_1013	s	s	17	5	Capacity	54	ABS	0	1	08RD 16RO	0	1	8.04481387138	None	None	None	None	1
2.7	2015_Jun_05_1013	s	s	17	5	Capacity	55	RC	0	2	15RD 08RO	1	0	0.72922205925	130.0	75.0	133	73	1
2.7	2015_Jun_05_1013	s	s	17	5	Capacity	56	ABS	0	2	16RD 08RO	0	1	3.39721703529	None	None	None	None	1
2.7	2015_Jun_05_1013	s	s	17	5	Capacity	57	RC	0	1	08RD 15RO	1	0	2.04741883278	-198.0	-332.0	-204	-329	1
2.7	2015_Jun_05_1013	s	s	17	5	Capacity	58	ABS	0	2	16RD 08RO	0	1	1.95349884033	None	None	None	None	1
2.7	2015_Jun_05_1013	s	s	17	5	Capacity	59	RC	0	2	15RD 08RO	1	0	1.91546106339	-87.0	-392.0	-83	-392	1
2.7	2015_Jun_05_1013	s	s	17	5	Capacity	60	ABS	0	1	08RD 16RO	0	1	5.04357600212	None	None	None	None	1
2.7	2015_Jun_05_1013	s	s	17	5	Capacity	61	ABS	0	1	08RD 16RO	0	1	4.09554791451	None	None	None	None	1
2.7	2015_Jun_05_1013	s	s	17	5	Capacity	62	ABS	0	2	16RD 08RO	0	1	2.636054039	None	None	None	None	1
2.7	2015_Jun_05_1013	s	s	17	5	Capacity	63	RC	0	2	15RD 08RO	1	0	0.699085950851	208.0	61.0	216	65	1
2.7	2015_Jun_05_1013	s	s	17	5	Capacity	64	RC	0	1	08RD 15RO	1	0	1.15918898582	110.0	306.0	115	306	1
2.7	2015_Jun_05_1013	s	s	17	5	Capacity	1	ABS	1	0	08VC 16MC	0	1	1.99804115295	None	None	None	None	1
2.7	2015_Jun_05_1013	s	s	17	5	Capacity	2	RC	1	0	08VC 15MC	1	0	1.02108287811	-70.0	397.0	-59	406	1
2.7	2015_Jun_05_1013	s	s	17	5	Capacity	3	RC	2	0	15VC 08MC	1	0	0.85861992836	-232.0	10.0	-229	5	1
2.7	2015_Jun_05_1013	s	s	17	5	Capacity	4	ABS	2	0	16VC 08MC	0	1	1.70102405548	None	None	None	None	1
2.7	2015_Jun_05_1013	s	s	17	5	Capacity	5	RC	2	0	15VC 08MC	1	0	0.740782022476	-470.0	267.0	-472	269	1
2.7	2015_Jun_05_1013	s	s	17	5	Capacity	6	RC	1	0	08VC 15MC	1	0	0.632311105728	-418.0	265.0	-410	264	1
2.7	2015_Jun_05_1013	s	s	17	5	Capacity	7	ABS	1	0	08VC 16MC	0	1	1.15290403366	None	None	None	None	1
2.7	2015_Jun_05_1013	s	s	17	5	Capacity	8	ABS	2	0	16VC 08MC	0	1	1.56872391701	None	None	None	None	1
2.7	2015_Jun_05_1013	s	s	17	5	Capacity	9	RC	1	0	08VC 15MC	1	0	1.11427998543	-23.0	-219.0	-25	-225	1
2.7	2015_Jun_05_1013	s	s	17	5	Capacity	10	RC	2	0	15VC 08MC	1	0	0.689399003983	-259.0	337.0	-259	335	1
2.7	2015_Jun_05_1013	s	s	17	5	Capacity	11	ABS	1	0	08VC 16MC	0	1	1.00832700729	None	None	None	None	1
2.7	2015_Jun_05_1013	s	s	17	5	Capacity	12	ABS	2	0	16VC 08MC	0	1	2.00952792168	None	None	None	None	1
2.7	2015_Jun_05_1013	s	s	17	5	Capacity	13	RC	1	0	08VC 15MC	1	0	1.10619497299	-401.0	-361.0	-395	-361	1
2.7	2015_Jun_05_1013	s	s	17	5	Capacity	14	RC	2	0	15VC 08MC	1	0	0.587692975998	508.0	22.0	518	26	1
2.7	2015_Jun_05_1013	s	s	17	5	Capacity	15	ABS	1	0	08VC 16MC	0	1	1.90197300911	None	None	None	None	1
2.7	2015_Jun_05_1013	s	s	17	5	Capacity	16	ABS	2	0	16VC 08MC	0	1	1.32635998726	None	None	None	None	1
2.7	2015_Jun_05_1013	s	s	17	5	Capacity	17	RC	2	0	15VC 08MC	1	0	0.964547157288	504.0	302.0	513	304	1
2.7	2015_Jun_05_1013	s	s	17	5	Capacity	18	ABS	2	0	16VC 08MC	0	1	1.89452600479	None	None	None	None	1
2.7	2015_Jun_05_1013	s	s	17	5	Capacity	19	ABS	1	0	08VC 16MC	0	1	1.60012817383	None	None	None	None	1
2.7	2015_Jun_05_1013	s	s	17	5	Capacity	20	RC	1	0	08VC 15MC	1	0	0.840792894363	-325.0	368.0	-313	369	1
2.7	2015_Jun_05_1013	s	s	17	5	Capacity	21	RC	1	0	08VC 15MC	1	0	0.524024009705	524.0	3.0	524	0	1
2.7	2015_Jun_05_1013	s	s	17	5	Capacity	22	RC	2	0	15VC 08MC	1	0	0.572865962982	-30.0	168.0	-35	175	1
2.7	2015_Jun_05_1013	s	s	17	5	Capacity	23	ABS	1	0	08VC 16MC	0	1	1.81579399109	None	None	None	None	1
2.7	2015_Jun_05_1013	s	s	17	5	Capacity	24	ABS	2	0	16VC 08MC	0	1	1.79685592651	None	None	None	None	1
2.7	2015_Jun_05_1013	s	s	17	5	Capacity	25	RC	2	0	15VC 08MC	1	0	0.535292863846	382.0	356.0	386	361	1
2.7	2015_Jun_05_1013	s	s	17	5	Capacity	26	RC	1	0	08VC 15MC	1	0	1.44715595245	527.0	-263.0	534	-266	1
2.7	2015_Jun_05_1013	s	s	17	5	Capacity	27	ABS	1	0	08VC 16MC	0	1	1.3181450367	None	None	None	None	1
2.7	2015_Jun_05_1013	s	s	17	5	Capacity	28	ABS	2	0	16VC 08MC	0	1	1.14105606079	None	None	None	None	1
2.7	2015_Jun_05_1013	s	s	17	5	Capacity	29	RC	2	0	15VC 08MC	1	0	1.15667200089	-454.0	-151.0	-458	-149	1
2.7	2015_Jun_05_1013	s	s	17	5	Capacity	30	RC	1	0	08VC 15MC	1	0	0.97633600235	-312.0	24.0	-319	32	1
2.7	2015_Jun_05_1013	s	s	17	5	Capacity	31	ABS	2	0	16VC 08MC	0	1	1.14726305008	None	None	None	None	1
2.7	2015_Jun_05_1013	s	s	17	5	Capacity	32	ABS	1	0	08VC 16MC	0	1	1.29146504402	None	None	None	None	1
2.7	2015_Jun_05_1013	s	s	17	5	Capacity	33	ABS	2	0	16VC 08MC	0	1	1.63343715668	None	None	None	None	1
2.7	2015_Jun_05_1013	s	s	17	5	Capacity	34	RC	2	0	15VC 08MC	1	0	0.925549030304	486.0	-307.0	489	-302	1
2.7	2015_Jun_05_1013	s	s	17	5	Capacity	35	ABS	1	0	08VC 16MC	0	1	1.21183085442	None	None	None	None	1
2.7	2015_Jun_05_1013	s	s	17	5	Capacity	36	RC	1	0	08VC 15MC	1	0	1.1820089817	-335.0	-231.0	-331	-226	1
2.7	2015_Jun_05_1013	s	s	17	5	Capacity	37	ABS	1	0	08VC 16MC	0	1	1.18204402924	None	None	None	None	1
2.7	2015_Jun_05_1013	s	s	17	5	Capacity	38	RC	1	0	08VC 15MC	1	0	0.634971857071	-427.0	398.0	-426	406	1
2.7	2015_Jun_05_1013	s	s	17	5	Capacity	39	ABS	2	0	16VC 08MC	0	1	1.40950798988	None	None	None	None	1
2.7	2015_Jun_05_1013	s	s	17	5	Capacity	40	RC	2	0	15VC 08MC	1	0	0.729076147079	336.0	411.0	335	415	1
2.7	2015_Jun_05_1013	s	s	17	5	Capacity	41	ABS	1	0	08VC 16MC	0	1	1.50187706947	None	None	None	None	1
2.7	2015_Jun_05_1013	s	s	17	5	Capacity	42	RC	2	0	15VC 08MC	1	0	0.564363956451	516.0	59.0	516	60	1
2.7	2015_Jun_05_1013	s	s	17	5	Capacity	43	ABS	2	0	16VC 08MC	0	1	1.32717609406	None	None	None	None	1
2.7	2015_Jun_05_1013	s	s	17	5	Capacity	44	RC	1	0	08VC 15MC	1	0	1.38823580742	-386.0	-215.0	-388	-213	1
2.7	2015_Jun_05_1013	s	s	17	5	Capacity	45	ABS	2	0	16VC 08MC	0	1	1.65889596939	None	None	None	None	1
2.7	2015_Jun_05_1013	s	s	17	5	Capacity	46	RC	1	0	08VC 15MC	1	0	0.858638048172	-14.0	31.0	-14	26	1
2.7	2015_Jun_05_1013	s	s	17	5	Capacity	47	RC	2	0	15VC 08MC	1	0	0.670510053635	-60.0	251.0	-52	245	1
2.7	2015_Jun_05_1013	s	s	17	5	Capacity	48	ABS	1	0	08VC 16MC	0	1	1.47770810127	None	None	None	None	1
2.7	2015_Jun_05_1013	s	s	17	5	Capacity	49	ABS	1	0	08VC 16MC	0	1	2.06526613235	None	None	None	None	1
2.7	2015_Jun_05_1013	s	s	17	5	Capacity	50	ABS	2	0	16VC 08MC	0	1	1.06815099716	None	None	None	None	1
2.7	2015_Jun_05_1013	s	s	17	5	Capacity	51	RC	1	0	08VC 15MC	1	0	0.950186014175	-124.0	400.0	-109	406	1
2.7	2015_Jun_05_1013	s	s	17	5	Capacity	52	RC	2	0	15VC 08MC	1	0	0.670672893524	-469.0	156.0	-467	158	1
2.7	2015_Jun_05_1013	s	s	17	5	Capacity	53	RC	2	0	15VC 08MC	1	0	0.819129943848	349.0	-408.0	352	-416	1
2.7	2015_Jun_05_1013	s	s	17	5	Capacity	54	ABS	1	0	08VC 16MC	0	1	1.21960496902	None	None	None	None	1
2.7	2015_Jun_05_1013	s	s	17	5	Capacity	55	ABS	2	0	16VC 08MC	0	1	1.21171283722	None	None	None	None	1
2.7	2015_Jun_05_1013	s	s	17	5	Capacity	56	RC	1	0	08VC 15MC	1	0	0.540871143341	-8.0	-73.0	0	-73	1
2.7	2015_Jun_05_1013	s	s	17	5	Capacity	57	ABS	1	0	08VC 16MC	0	1	1.86413693428	None	None	None	None	1
2.7	2015_Jun_05_1013	s	s	17	5	Capacity	58	RC	2	0	15VC 08MC	1	0	0.611418962479	-441.0	167.0	-442	165	1
2.7	2015_Jun_05_1013	s	s	17	5	Capacity	59	ABS	2	0	16VC 08MC	0	1	1.73723101616	None	None	None	None	1
2.7	2015_Jun_05_1013	s	s	17	5	Capacity	60	RC	1	0	08VC 15MC	1	0	0.73817896843	173.0	56.0	171	56	1
2.7	2015_Jun_05_1013	s	s	17	5	Capacity	61	RC	1	0	08VC 15MC	1	0	0.572473049164	72.0	42.0	73	32	1
2.7	2015_Jun_05_1013	s	s	17	5	Capacity	62	ABS	2	0	16VC 08MC	0	1	1.98623108864	None	None	None	None	1
2.7	2015_Jun_05_1013	s	s	17	5	Capacity	63	ABS	1	0	08VC 16MC	0	1	1.56905794144	None	None	None	None	1
2.7	2015_Jun_05_1013	s	s	17	5	Capacity	64	RC	2	0	15VC 08MC	1	0	0.564379930496	154.0	299.0	160	297	1
2.7	2015_Jun_05_1013	s	s	17	5	SIC	1	ABS	1	0	02VD 02VO 02VC 02MD 02MO 10MC 02RD 02RO	0	1	3.38931798935	None	None	None	None	1
2.7	2015_Jun_05_1013	s	s	17	5	SIC	2	ABS	2	1	02VD 10VO 02VC 02MD 02MO 02MC 02RD 02RO	0	1	1.88029813766	None	None	None	None	1
2.7	2015_Jun_05_1013	s	s	17	5	SIC	3	RC	1	1	02VD 02VO 02VC 02MD 09MO 02MC 02RD 02RO	1	0	1.09975910187	-471.0	255.0	-474	261	1
2.7	2015_Jun_05_1013	s	s	17	5	SIC	4	RC	0	2	02VD 02VO 02VC 02MD 02MO 02MC 09RD 02RO	1	0	0.952705144882	-386.0	-309.0	-381	-301	1
2.7	2015_Jun_05_1013	s	s	17	5	SIC	5	ABS	0	2	02VD 02VO 02VC 02MD 02MO 02MC 10RD 02RO	0	1	1.71793198586	None	None	None	None	1
2.7	2015_Jun_05_1013	s	s	17	5	SIC	6	RC	2	2	09VD 02VO 02VC 02MD 02MO 02MC 02RD 02RO	1	0	0.736366033554	380.0	154.0	380	149	1
2.7	2015_Jun_05_1013	s	s	17	5	SIC	7	RC	1	0	02VD 02VO 02VC 02MD 02MO 09MC 02RD 02RO	1	0	1.57241415977	259.0	-323.0	264	-320	1
2.7	2015_Jun_05_1013	s	s	17	5	SIC	8	ABS	1	2	02VD 02VO 02VC 10MD 02MO 02MC 02RD 02RO	0	1	1.703758955	None	None	None	None	1
2.7	2015_Jun_05_1013	s	s	17	5	SIC	9	RC	2	1	02VD 09VO 02VC 02MD 02MO 02MC 02RD 02RO	1	0	1.24761509895	-120.0	-137.0	-116	-138	1
2.7	2015_Jun_05_1013	s	s	17	5	SIC	10	ABS	2	2	10VD 02VO 02VC 02MD 02MO 02MC 02RD 02RO	0	1	1.78850984573	None	None	None	None	1
2.7	2015_Jun_05_1013	s	s	17	5	SIC	11	RC	1	2	02VD 02VO 02VC 09MD 02MO 02MC 02RD 02RO	1	0	0.752460956573	198.0	340.0	188	345	1
2.7	2015_Jun_05_1013	s	s	17	5	SIC	12	RC	0	1	02VD 02VO 02VC 02MD 02MO 02MC 02RD 09RO	1	0	2.34167313576	-405.0	364.0	-396	373	1
2.7	2015_Jun_05_1013	s	s	17	5	SIC	13	ABS	0	1	02VD 02VO 02VC 02MD 02MO 02MC 02RD 10RO	0	1	2.51303100586	None	None	None	None	1
2.7	2015_Jun_05_1013	s	s	17	5	SIC	14	ABS	2	0	02VD 02VO 10VC 02MD 02MO 02MC 02RD 02RO	0	1	2.17391204834	None	None	None	None	1
2.7	2015_Jun_05_1013	s	s	17	5	SIC	15	RC	2	0	02VD 02VO 09VC 02MD 02MO 02MC 02RD 02RO	1	0	1.40717291832	-445.0	394.0	-444	394	1
2.7	2015_Jun_05_1013	s	s	17	5	SIC	16	ABS	1	1	02VD 02VO 02VC 02MD 10MO 02MC 02RD 02RO	0	1	2.12983202934	None	None	None	None	1
2.7	2015_Jun_05_1013	s	s	17	5	SIC	17	ABS	0	1	02VD 02VO 02VC 02MD 02MO 02MC 02RD 10RO	0	1	4.78676700592	None	None	None	None	1
2.7	2015_Jun_05_1013	s	s	17	5	SIC	18	ABS	0	2	02VD 02VO 02VC 02MD 02MO 02MC 10RD 02RO	0	1	1.91526794434	None	None	None	None	1
2.7	2015_Jun_05_1013	s	s	17	5	SIC	19	ABS	1	1	02VD 02VO 02VC 02MD 10MO 02MC 02RD 02RO	0	1	2.87129211426	None	None	None	None	1
2.7	2015_Jun_05_1013	s	s	17	5	SIC	20	ABS	1	2	02VD 02VO 02VC 10MD 02MO 02MC 02RD 02RO	0	1	3.05969810486	None	None	None	None	1
2.7	2015_Jun_05_1013	s	s	17	5	SIC	21	RC	2	1	02VD 09VO 02VC 02MD 02MO 02MC 02RD 02RO	1	0	1.04693889618	401.0	-150.0	394	-151	1
2.7	2015_Jun_05_1013	s	s	17	5	SIC	22	RC	2	0	02VD 02VO 09VC 02MD 02MO 02MC 02RD 02RO	1	0	0.717304944992	125.0	200.0	129	205	1
2.7	2015_Jun_05_1013	s	s	17	5	SIC	23	ABS	2	1	02VD 10VO 02VC 02MD 02MO 02MC 02RD 02RO	0	1	2.24752211571	None	None	None	None	1
2.7	2015_Jun_05_1013	s	s	17	5	SIC	24	ABS	2	2	10VD 02VO 02VC 02MD 02MO 02MC 02RD 02RO	0	1	1.57098603249	None	None	None	None	1
2.7	2015_Jun_05_1013	s	s	17	5	SIC	25	ABS	1	0	02VD 02VO 02VC 02MD 02MO 10MC 02RD 02RO	0	1	2.58396100998	None	None	None	None	1
2.7	2015_Jun_05_1013	s	s	17	5	SIC	26	RC	1	0	02VD 02VO 02VC 02MD 02MO 09MC 02RD 02RO	1	0	1.11502790451	231.0	178.0	223	175	1
2.7	2015_Jun_05_1013	s	s	17	5	SIC	27	RC	1	2	02VD 02VO 02VC 09MD 02MO 02MC 02RD 02RO	1	0	0.737329006195	-301.0	131.0	-295	126	1
2.7	2015_Jun_05_1013	s	s	17	5	SIC	28	RC	2	2	09VD 02VO 02VC 02MD 02MO 02MC 02RD 02RO	1	0	1.31136012077	-358.0	-45.0	-352	-35	1
2.7	2015_Jun_05_1013	s	s	17	5	SIC	29	ABS	2	0	02VD 02VO 10VC 02MD 02MO 02MC 02RD 02RO	0	1	2.10383701324	None	None	None	None	1
2.7	2015_Jun_05_1013	s	s	17	5	SIC	30	RC	0	1	02VD 02VO 02VC 02MD 02MO 02MC 02RD 09RO	1	0	0.806668043137	389.0	58.0	379	59	1
2.7	2015_Jun_05_1013	s	s	17	5	SIC	31	RC	1	1	02VD 02VO 02VC 02MD 09MO 02MC 02RD 02RO	1	0	0.820990085602	-378.0	-124.0	-376	-129	1
2.7	2015_Jun_05_1013	s	s	17	5	SIC	32	RC	0	2	02VD 02VO 02VC 02MD 02MO 02MC 09RD 02RO	1	0	1.10200595856	376.0	410.0	374	406	1
2.7	2015_Jun_05_1013	s	s	17	5	SIC	33	ABS	2	2	10VD 02VO 02VC 02MD 02MO 02MC 02RD 02RO	0	1	1.25885987282	None	None	None	None	1
2.7	2015_Jun_05_1013	s	s	17	5	SIC	34	RC	2	2	09VD 02VO 02VC 02MD 02MO 02MC 02RD 02RO	1	0	2.43263792992	-375.0	-410.0	-372	-408	1
2.7	2015_Jun_05_1013	s	s	17	5	SIC	35	RC	2	0	02VD 02VO 09VC 02MD 02MO 02MC 02RD 02RO	1	0	0.653794050217	293.0	88.0	292	91	1
2.7	2015_Jun_05_1013	s	s	17	5	SIC	36	RC	1	1	02VD 02VO 02VC 02MD 09MO 02MC 02RD 02RO	1	0	1.60014605522	349.0	-38.0	349	-31	1
2.7	2015_Jun_05_1013	s	s	17	5	SIC	37	RC	0	2	02VD 02VO 02VC 02MD 02MO 02MC 09RD 02RO	1	0	1.47064709663	-238.0	-394.0	-243	-405	1
2.7	2015_Jun_05_1013	s	s	17	5	SIC	38	ABS	2	0	02VD 02VO 10VC 02MD 02MO 02MC 02RD 02RO	0	1	2.51830983162	None	None	None	None	1
2.7	2015_Jun_05_1013	s	s	17	5	SIC	39	ABS	2	1	02VD 10VO 02VC 02MD 02MO 02MC 02RD 02RO	0	1	2.28269100189	None	None	None	None	1
2.7	2015_Jun_05_1013	s	s	17	5	SIC	40	ABS	0	1	02VD 02VO 02VC 02MD 02MO 02MC 02RD 10RO	0	1	5.10553598404	None	None	None	None	1
2.7	2015_Jun_05_1013	s	s	17	5	SIC	41	RC	0	1	02VD 02VO 02VC 02MD 02MO 02MC 02RD 09RO	1	0	0.634927034378	-277.0	110.0	-271	120	1
2.7	2015_Jun_05_1013	s	s	17	5	SIC	42	RC	1	2	02VD 02VO 02VC 09MD 02MO 02MC 02RD 02RO	1	0	0.609048128128	-72.0	139.0	-66	135	1
2.7	2015_Jun_05_1013	s	s	17	5	SIC	43	ABS	1	0	02VD 02VO 02VC 02MD 02MO 10MC 02RD 02RO	0	1	2.0120139122	None	None	None	None	1
2.7	2015_Jun_05_1013	s	s	17	5	SIC	44	ABS	0	2	02VD 02VO 02VC 02MD 02MO 02MC 10RD 02RO	0	1	2.32664299011	None	None	None	None	1
2.7	2015_Jun_05_1013	s	s	17	5	SIC	45	ABS	1	2	02VD 02VO 02VC 10MD 02MO 02MC 02RD 02RO	0	1	1.95035195351	None	None	None	None	1
2.7	2015_Jun_05_1013	s	s	17	5	SIC	46	RC	2	1	02VD 09VO 02VC 02MD 02MO 02MC 02RD 02RO	1	0	0.964461088181	390.0	-12.0	392	-12	1
2.7	2015_Jun_05_1013	s	s	17	5	SIC	47	RC	1	0	02VD 02VO 02VC 02MD 02MO 09MC 02RD 02RO	1	0	1.09410595894	380.0	-31.0	377	-34	1
2.7	2015_Jun_05_1013	s	s	17	5	SIC	48	ABS	1	1	02VD 02VO 02VC 02MD 10MO 02MC 02RD 02RO	0	1	2.40039396286	None	None	None	None	1
2.7	2015_Jun_05_1013	s	s	17	5	SIC	49	RC	1	2	02VD 02VO 02VC 09MD 02MO 02MC 02RD 02RO	1	0	0.65894317627	-296.0	70.0	-283	74	1
2.7	2015_Jun_05_1013	s	s	17	5	SIC	50	ABS	1	1	02VD 02VO 02VC 02MD 10MO 02MC 02RD 02RO	0	1	2.06693077087	None	None	None	None	1
2.7	2015_Jun_05_1013	s	s	17	5	SIC	51	RC	1	1	02VD 02VO 02VC 02MD 09MO 02MC 02RD 02RO	1	0	0.929244041443	-530.0	-27.0	-532	-23	1
2.7	2015_Jun_05_1013	s	s	17	5	SIC	52	ABS	2	0	02VD 02VO 10VC 02MD 02MO 02MC 02RD 02RO	0	1	3.07138204575	None	None	None	None	1
2.7	2015_Jun_05_1013	s	s	17	5	SIC	53	ABS	1	0	02VD 02VO 02VC 02MD 02MO 10MC 02RD 02RO	0	1	2.50055408478	None	None	None	None	1
2.7	2015_Jun_05_1013	s	s	17	5	SIC	54	RC	0	2	02VD 02VO 02VC 02MD 02MO 02MC 09RD 02RO	1	0	1.14110589027	525.0	-20.0	522	-19	1
2.7	2015_Jun_05_1013	s	s	17	5	SIC	55	ABS	2	2	10VD 02VO 02VC 02MD 02MO 02MC 02RD 02RO	0	1	2.18866205215	None	None	None	None	1
2.7	2015_Jun_05_1013	s	s	17	5	SIC	56	ABS	1	2	02VD 02VO 02VC 10MD 02MO 02MC 02RD 02RO	0	1	2.19710993767	None	None	None	None	1
2.7	2015_Jun_05_1013	s	s	17	5	SIC	57	RC	2	2	09VD 02VO 02VC 02MD 02MO 02MC 02RD 02RO	1	0	0.976273059845	447.0	-152.0	450	-146	1
2.7	2015_Jun_05_1013	s	s	17	5	SIC	58	RC	2	0	02VD 02VO 09VC 02MD 02MO 02MC 02RD 02RO	1	0	1.15272688866	170.0	362.0	173	369	1
2.7	2015_Jun_05_1013	s	s	17	5	SIC	59	RC	1	0	02VD 02VO 02VC 02MD 02MO 09MC 02RD 02RO	1	0	0.806936979294	-10.0	250.0	-16	250	1
2.7	2015_Jun_05_1013	s	s	17	5	SIC	60	ABS	2	1	02VD 10VO 02VC 02MD 02MO 02MC 02RD 02RO	0	1	1.61203789711	None	None	None	None	1
2.7	2015_Jun_05_1013	s	s	17	5	SIC	61	ABS	0	2	02VD 02VO 02VC 02MD 02MO 02MC 10RD 02RO	0	1	2.49489593506	None	None	None	None	1
2.7	2015_Jun_05_1013	s	s	17	5	SIC	62	RC	2	1	02VD 09VO 02VC 02MD 02MO 02MC 02RD 02RO	1	0	1.12409806252	-267.0	-225.0	-268	-220	1
2.7	2015_Jun_05_1013	s	s	17	5	SIC	63	ABS	0	1	02VD 02VO 02VC 02MD 02MO 02MC 02RD 10RO	0	1	3.51871395111	None	None	None	None	1
2.7	2015_Jun_05_1013	s	s	17	5	SIC	64	RC	0	1	02VD 02VO 02VC 02MD 02MO 02MC 02RD 09RO	1	0	2.73952198029	464.0	-383.0	456	-386	1
2.7	2015_Jun_05_1013	s	s	17	5	SIC	65	ABS	1	2	02VD 02VO 02VC 10MD 02MO 02MC 02RD 02RO	0	1	1.68243312836	None	None	None	None	1
2.7	2015_Jun_05_1013	s	s	17	5	SIC	66	ABS	2	2	10VD 02VO 02VC 02MD 02MO 02MC 02RD 02RO	0	1	1.70121121407	None	None	None	None	1
2.7	2015_Jun_05_1013	s	s	17	5	SIC	67	RC	1	0	02VD 02VO 02VC 02MD 02MO 09MC 02RD 02RO	1	0	1.27911901474	-493.0	52.0	-487	46	1
2.7	2015_Jun_05_1013	s	s	17	5	SIC	68	RC	2	1	02VD 09VO 02VC 02MD 02MO 02MC 02RD 02RO	1	0	1.17373108864	117.0	-316.0	118	-313	1
2.7	2015_Jun_05_1013	s	s	17	5	SIC	69	ABS	0	2	02VD 02VO 02VC 02MD 02MO 02MC 10RD 02RO	0	1	3.2951259613	None	None	None	None	1
2.7	2015_Jun_05_1013	s	s	17	5	SIC	70	ABS	0	1	02VD 02VO 02VC 02MD 02MO 02MC 02RD 10RO	0	1	5.28439807892	None	None	None	None	1
2.7	2015_Jun_05_1013	s	s	17	5	SIC	71	ABS	2	1	02VD 10VO 02VC 02MD 02MO 02MC 02RD 02RO	0	1	2.65403103828	None	None	None	None	1
2.7	2015_Jun_05_1013	s	s	17	5	SIC	72	ABS	1	1	02VD 02VO 02VC 02MD 10MO 02MC 02RD 02RO	0	1	3.57765007019	None	None	None	None	1
2.7	2015_Jun_05_1013	s	s	17	5	SIC	73	RC	2	2	09VD 02VO 02VC 02MD 02MO 02MC 02RD 02RO	1	0	1.50050401688	-501.0	-358.0	-496	-352	1
2.7	2015_Jun_05_1013	s	s	17	5	SIC	74	ABS	1	0	02VD 02VO 02VC 02MD 02MO 10MC 02RD 02RO	0	1	2.78103590012	None	None	None	None	1
2.7	2015_Jun_05_1013	s	s	17	5	SIC	75	RC	0	2	02VD 02VO 02VC 02MD 02MO 02MC 09RD 02RO	1	0	1.74144101143	-485.0	-65.0	-477	-66	1
2.7	2015_Jun_05_1013	s	s	17	5	SIC	76	RC	0	1	02VD 02VO 02VC 02MD 02MO 02MC 02RD 09RO	1	0	1.41806697845	278.0	202.0	272	205	1
2.7	2015_Jun_05_1013	s	s	17	5	SIC	77	RC	1	1	02VD 02VO 02VC 02MD 09MO 02MC 02RD 02RO	1	0	1.10337996483	425.0	109.0	431	112	1
2.7	2015_Jun_05_1013	s	s	17	5	SIC	78	RC	1	2	02VD 02VO 02VC 09MD 02MO 02MC 02RD 02RO	1	0	0.693786144257	-212.0	179.0	-213	177	1
2.7	2015_Jun_05_1013	s	s	17	5	SIC	79	RC	2	0	02VD 02VO 09VC 02MD 02MO 02MC 02RD 02RO	1	0	1.53901910782	91.0	-326.0	86	-324	1
2.7	2015_Jun_05_1013	s	s	17	5	SIC	80	ABS	2	0	02VD 02VO 10VC 02MD 02MO 02MC 02RD 02RO	0	1	2.86702084541	None	None	None	None	1
2.7	2015_Jun_05_1013	s	s	17	5	SIC	81	RC	1	0	02VD 02VO 02VC 02MD 02MO 09MC 02RD 02RO	1	0	1.11746120453	486.0	264.0	493	265	1
2.7	2015_Jun_05_1013	s	s	17	5	SIC	82	RC	2	0	02VD 02VO 09VC 02MD 02MO 02MC 02RD 02RO	1	0	0.606441020966	39.0	-2.0	38	-1	1
2.7	2015_Jun_05_1013	s	s	17	5	SIC	83	RC	2	2	09VD 02VO 02VC 02MD 02MO 02MC 02RD 02RO	1	0	1.39429616928	-511.0	227.0	-523	236	1
2.7	2015_Jun_05_1013	s	s	17	5	SIC	84	ABS	0	1	02VD 02VO 02VC 02MD 02MO 02MC 02RD 10RO	0	1	3.09289288521	None	None	None	None	1
2.7	2015_Jun_05_1013	s	s	17	5	SIC	85	RC	1	1	02VD 02VO 02VC 02MD 09MO 02MC 02RD 02RO	1	0	1.24690890312	443.0	30.0	456	33	1
2.7	2015_Jun_05_1013	s	s	17	5	SIC	86	ABS	2	2	10VD 02VO 02VC 02MD 02MO 02MC 02RD 02RO	0	1	2.45944213867	None	None	None	None	1
2.7	2015_Jun_05_1013	s	s	17	5	SIC	87	ABS	1	2	02VD 02VO 02VC 10MD 02MO 02MC 02RD 02RO	0	1	1.61800312996	None	None	None	None	1
2.7	2015_Jun_05_1013	s	s	17	5	SIC	88	ABS	2	0	02VD 02VO 10VC 02MD 02MO 02MC 02RD 02RO	1	0	1.15881705284	None	None	195	-183	0
2.7	2015_Jun_05_1013	s	s	17	5	SIC	89	ABS	1	0	02VD 02VO 02VC 02MD 02MO 10MC 02RD 02RO	0	1	2.27105903625	None	None	None	None	1
2.7	2015_Jun_05_1013	s	s	17	5	SIC	90	ABS	2	1	02VD 10VO 02VC 02MD 02MO 02MC 02RD 02RO	0	1	2.05632209778	None	None	None	None	1
2.7	2015_Jun_05_1013	s	s	17	5	SIC	91	RC	1	2	02VD 02VO 02VC 09MD 02MO 02MC 02RD 02RO	1	0	0.799692869186	75.0	286.0	79	285	1
2.7	2015_Jun_05_1013	s	s	17	5	SIC	92	RC	0	2	02VD 02VO 02VC 02MD 02MO 02MC 09RD 02RO	1	0	0.681922912598	-190.0	195.0	-182	204	1
2.7	2015_Jun_05_1013	s	s	17	5	SIC	93	ABS	1	1	02VD 02VO 02VC 02MD 10MO 02MC 02RD 02RO	0	1	1.92731595039	None	None	None	None	1
2.7	2015_Jun_05_1013	s	s	17	5	SIC	94	RC	0	1	02VD 02VO 02VC 02MD 02MO 02MC 02RD 09RO	1	0	1.4824359417	-371.0	-50.0	-377	-43	1
2.7	2015_Jun_05_1013	s	s	17	5	SIC	95	RC	2	1	02VD 09VO 02VC 02MD 02MO 02MC 02RD 02RO	1	0	1.26533198357	162.0	-286.0	170	-279	1
2.7	2015_Jun_05_1013	s	s	17	5	SIC	96	ABS	0	2	02VD 02VO 02VC 02MD 02MO 02MC 10RD 02RO	0	1	1.87735891342	None	None	None	None	1
2.7	2015_Jun_05_1013	s	s	17	5	SIC	97	ABS	1	1	02VD 02VO 02VC 02MD 10MO 02MC 02RD 02RO	0	1	2.03567194939	None	None	None	None	1
2.7	2015_Jun_05_1013	s	s	17	5	SIC	98	ABS	0	1	02VD 02VO 02VC 02MD 02MO 02MC 02RD 10RO	0	1	3.52261400223	None	None	None	None	1
2.7	2015_Jun_05_1013	s	s	17	5	SIC	99	RC	1	0	02VD 02VO 02VC 02MD 02MO 09MC 02RD 02RO	1	0	1.18821191788	-238.0	-307.0	-244	-298	1
2.7	2015_Jun_05_1013	s	s	17	5	SIC	100	RC	2	1	02VD 09VO 02VC 02MD 02MO 02MC 02RD 02RO	1	0	0.787894010544	-449.0	150.0	-460	154	1
2.7	2015_Jun_05_1013	s	s	17	5	SIC	101	RC	0	2	02VD 02VO 02VC 02MD 02MO 02MC 09RD 02RO	1	0	1.02019906044	-117.0	-124.0	-107	-120	1
2.7	2015_Jun_05_1013	s	s	17	5	SIC	102	RC	0	1	02VD 02VO 02VC 02MD 02MO 02MC 02RD 09RO	1	0	1.74128198624	479.0	-167.0	488	-163	1
2.7	2015_Jun_05_1013	s	s	17	5	SIC	103	ABS	2	0	02VD 02VO 10VC 02MD 02MO 02MC 02RD 02RO	0	1	2.07958292961	None	None	None	None	1
2.7	2015_Jun_05_1013	s	s	17	5	SIC	104	RC	2	2	09VD 02VO 02VC 02MD 02MO 02MC 02RD 02RO	1	0	0.799710988998	205.0	-23.0	201	-18	1
2.7	2015_Jun_05_1013	s	s	17	5	SIC	105	ABS	2	2	10VD 02VO 02VC 02MD 02MO 02MC 02RD 02RO	0	1	3.26640701294	None	None	None	None	1
2.7	2015_Jun_05_1013	s	s	17	5	SIC	106	ABS	1	0	02VD 02VO 02VC 02MD 02MO 10MC 02RD 02RO	0	1	3.32732391357	None	None	None	None	1
2.7	2015_Jun_05_1013	s	s	17	5	SIC	107	ABS	0	2	02VD 02VO 02VC 02MD 02MO 02MC 10RD 02RO	0	1	2.2951169014	None	None	None	None	1
2.7	2015_Jun_05_1013	s	s	17	5	SIC	108	RC	2	0	02VD 02VO 09VC 02MD 02MO 02MC 02RD 02RO	1	0	0.725823879242	-352.0	105.0	-354	103	1
2.7	2015_Jun_05_1013	s	s	17	5	SIC	109	ABS	1	2	02VD 02VO 02VC 10MD 02MO 02MC 02RD 02RO	0	1	1.40692806244	None	None	None	None	1
2.7	2015_Jun_05_1013	s	s	17	5	SIC	110	ABS	2	1	02VD 10VO 02VC 02MD 02MO 02MC 02RD 02RO	0	1	1.81861996651	None	None	None	None	1
2.7	2015_Jun_05_1013	s	s	17	5	SIC	111	RC	1	2	02VD 02VO 02VC 09MD 02MO 02MC 02RD 02RO	1	0	0.891494989395	-150.0	181.0	-153	187	1
2.7	2015_Jun_05_1013	s	s	17	5	SIC	112	RC	1	1	02VD 02VO 02VC 02MD 09MO 02MC 02RD 02RO	1	0	1.03515601158	305.0	193.0	302	198	1
2.7	2015_Jun_05_1013	s	s	17	5	SIC	113	ABS	2	1	02VD 10VO 02VC 02MD 02MO 02MC 02RD 02RO	0	1	2.38408303261	None	None	None	None	1
2.7	2015_Jun_05_1013	s	s	17	5	SIC	114	ABS	0	1	02VD 02VO 02VC 02MD 02MO 02MC 02RD 10RO	0	1	2.73448300362	None	None	None	None	1
2.7	2015_Jun_05_1013	s	s	17	5	SIC	115	ABS	2	2	10VD 02VO 02VC 02MD 02MO 02MC 02RD 02RO	0	1	2.0654399395	None	None	None	None	1
2.7	2015_Jun_05_1013	s	s	17	5	SIC	116	RC	1	2	02VD 02VO 02VC 09MD 02MO 02MC 02RD 02RO	1	0	0.823349952698	-181.0	302.0	-178	303	1
2.7	2015_Jun_05_1013	s	s	17	5	SIC	117	RC	0	2	02VD 02VO 02VC 02MD 02MO 02MC 09RD 02RO	1	0	1.01167297363	-191.0	357.0	-198	358	1
2.7	2015_Jun_05_1013	s	s	17	5	SIC	118	RC	0	1	02VD 02VO 02VC 02MD 02MO 02MC 02RD 09RO	1	0	0.983386993408	285.0	317.0	283	322	1
2.7	2015_Jun_05_1013	s	s	17	5	SIC	119	RC	1	1	02VD 02VO 02VC 02MD 09MO 02MC 02RD 02RO	1	0	0.80585193634	420.0	53.0	410	58	1
2.7	2015_Jun_05_1013	s	s	17	5	SIC	120	ABS	1	1	02VD 02VO 02VC 02MD 10MO 02MC 02RD 02RO	0	1	1.61827611923	None	None	None	None	1
2.7	2015_Jun_05_1013	s	s	17	5	SIC	121	ABS	2	0	02VD 02VO 10VC 02MD 02MO 02MC 02RD 02RO	0	1	1.79795098305	None	None	None	None	1
2.7	2015_Jun_05_1013	s	s	17	5	SIC	122	ABS	1	2	02VD 02VO 02VC 10MD 02MO 02MC 02RD 02RO	0	1	1.74836397171	None	None	None	None	1
2.7	2015_Jun_05_1013	s	s	17	5	SIC	123	ABS	0	2	02VD 02VO 02VC 02MD 02MO 02MC 10RD 02RO	0	1	2.60062098503	None	None	None	None	1
2.7	2015_Jun_05_1013	s	s	17	5	SIC	124	RC	2	2	09VD 02VO 02VC 02MD 02MO 02MC 02RD 02RO	1	0	0.587920188904	81.0	95.0	86	85	1
2.7	2015_Jun_05_1013	s	s	17	5	SIC	125	RC	2	0	02VD 02VO 09VC 02MD 02MO 02MC 02RD 02RO	1	0	1.75314998627	461.0	327.0	462	320	1
2.7	2015_Jun_05_1013	s	s	17	5	SIC	126	ABS	1	0	02VD 02VO 02VC 02MD 02MO 10MC 02RD 02RO	0	1	2.4594399929	None	None	None	None	1
2.7	2015_Jun_05_1013	s	s	17	5	SIC	127	RC	1	0	02VD 02VO 02VC 02MD 02MO 09MC 02RD 02RO	1	0	0.6675760746	271.0	-30.0	271	-39	1
2.7	2015_Jun_05_1013	s	s	17	5	SIC	128	RC	2	1	02VD 09VO 02VC 02MD 02MO 02MC 02RD 02RO	1	0	0.682109832764	53.0	267.0	43	268	1
2.7	2015_Jun_05_1013	s	s	17	5	SIC	129	RC	0	1	02VD 02VO 02VC 02MD 02MO 02MC 02RD 09RO	1	0	1.97677588463	-349.0	14.0	-340	19	1
2.7	2015_Jun_05_1013	s	s	17	5	SIC	130	ABS	1	2	02VD 02VO 02VC 10MD 02MO 02MC 02RD 02RO	0	1	2.12503695488	None	None	None	None	1
2.7	2015_Jun_05_1013	s	s	17	5	SIC	131	RC	2	2	09VD 02VO 02VC 02MD 02MO 02MC 02RD 02RO	1	0	0.868025064468	184.0	-275.0	178	-276	1
2.7	2015_Jun_05_1013	s	s	17	5	SIC	132	RC	2	0	02VD 02VO 09VC 02MD 02MO 02MC 02RD 02RO	1	0	0.9954829216	317.0	-108.0	315	-108	1
2.7	2015_Jun_05_1013	s	s	17	5	SIC	133	ABS	2	1	02VD 10VO 02VC 02MD 02MO 02MC 02RD 02RO	0	1	1.56472921371	None	None	None	None	1
2.7	2015_Jun_05_1013	s	s	17	5	SIC	134	ABS	0	2	02VD 02VO 02VC 02MD 02MO 02MC 10RD 02RO	0	1	1.78335595131	None	None	None	None	1
2.7	2015_Jun_05_1013	s	s	17	5	SIC	135	RC	1	0	02VD 02VO 02VC 02MD 02MO 09MC 02RD 02RO	1	0	2.0239751339	-68.0	-138.0	-68	-147	1
2.7	2015_Jun_05_1013	s	s	17	5	SIC	136	ABS	2	0	02VD 02VO 10VC 02MD 02MO 02MC 02RD 02RO	0	1	2.3248770237	None	None	None	None	1
2.7	2015_Jun_05_1013	s	s	17	5	SIC	137	RC	1	2	02VD 02VO 02VC 09MD 02MO 02MC 02RD 02RO	1	0	0.936079978943	486.0	-61.0	489	-65	1
2.7	2015_Jun_05_1013	s	s	17	5	SIC	138	RC	2	1	02VD 09VO 02VC 02MD 02MO 02MC 02RD 02RO	1	0	1.0703959465	76.0	-260.0	78	-274	1
2.7	2015_Jun_05_1013	s	s	17	5	SIC	139	ABS	2	2	10VD 02VO 02VC 02MD 02MO 02MC 02RD 02RO	0	1	1.77671122551	None	None	None	None	1
2.7	2015_Jun_05_1013	s	s	17	5	SIC	140	RC	0	2	02VD 02VO 02VC 02MD 02MO 02MC 09RD 02RO	1	0	0.702816963196	83.0	202.0	77	208	1
2.7	2015_Jun_05_1013	s	s	17	5	SIC	141	RC	1	1	02VD 02VO 02VC 02MD 09MO 02MC 02RD 02RO	1	0	0.776209115982	445.0	-57.0	441	-62	1
2.7	2015_Jun_05_1013	s	s	17	5	SIC	142	ABS	1	1	02VD 02VO 02VC 02MD 10MO 02MC 02RD 02RO	0	1	1.96269202232	None	None	None	None	1
2.7	2015_Jun_05_1013	s	s	17	5	SIC	143	ABS	0	1	02VD 02VO 02VC 02MD 02MO 02MC 02RD 10RO	0	1	4.6455540657	None	None	None	None	1
2.7	2015_Jun_05_1013	s	s	17	5	SIC	144	ABS	1	0	02VD 02VO 02VC 02MD 02MO 10MC 02RD 02RO	0	1	2.86841416359	None	None	None	None	1
2.7	2015_Jun_05_1013	s	s	17	5	SIC	145	ABS	1	0	02VD 02VO 02VC 02MD 02MO 10MC 02RD 02RO	0	1	3.33900499344	None	None	None	None	1
2.7	2015_Jun_05_1013	s	s	17	5	SIC	146	RC	1	2	02VD 02VO 02VC 09MD 02MO 02MC 02RD 02RO	1	0	1.67125916481	-13.0	-338.0	-15	-334	1
2.7	2015_Jun_05_1013	s	s	17	5	SIC	147	ABS	0	2	02VD 02VO 02VC 02MD 02MO 02MC 10RD 02RO	0	1	2.76289200783	None	None	None	None	1
2.7	2015_Jun_05_1013	s	s	17	5	SIC	148	ABS	2	1	02VD 10VO 02VC 02MD 02MO 02MC 02RD 02RO	0	1	2.78663802147	None	None	None	None	1
2.7	2015_Jun_05_1013	s	s	17	5	SIC	149	RC	2	0	02VD 02VO 09VC 02MD 02MO 02MC 02RD 02RO	1	0	0.744756937027	222.0	-17.0	212	-12	1
2.7	2015_Jun_05_1013	s	s	17	5	SIC	150	RC	1	1	02VD 02VO 02VC 02MD 09MO 02MC 02RD 02RO	1	0	0.638743162155	-33.0	184.0	-31	179	1
2.7	2015_Jun_05_1013	s	s	17	5	SIC	151	RC	2	2	09VD 02VO 02VC 02MD 02MO 02MC 02RD 02RO	1	0	1.10934519768	-107.0	-233.0	-110	-235	1
2.7	2015_Jun_05_1013	s	s	17	5	SIC	152	RC	2	1	02VD 09VO 02VC 02MD 02MO 02MC 02RD 02RO	1	0	1.45639920235	-159.0	392.0	-158	401	1
2.7	2015_Jun_05_1013	s	s	17	5	SIC	153	RC	1	0	02VD 02VO 02VC 02MD 02MO 09MC 02RD 02RO	1	0	1.24697995186	-239.0	-318.0	-230	-309	1
2.7	2015_Jun_05_1013	s	s	17	5	SIC	154	RC	0	2	02VD 02VO 02VC 02MD 02MO 02MC 09RD 02RO	1	0	0.761678934097	369.0	136.0	370	144	1
2.7	2015_Jun_05_1013	s	s	17	5	SIC	155	ABS	0	1	02VD 02VO 02VC 02MD 02MO 02MC 02RD 10RO	0	1	4.62240099907	None	None	None	None	1
2.7	2015_Jun_05_1013	s	s	17	5	SIC	156	ABS	1	1	02VD 02VO 02VC 02MD 10MO 02MC 02RD 02RO	0	1	1.68256306648	None	None	None	None	1
2.7	2015_Jun_05_1013	s	s	17	5	SIC	157	ABS	2	2	10VD 02VO 02VC 02MD 02MO 02MC 02RD 02RO	0	1	2.42793107033	None	None	None	None	1
2.7	2015_Jun_05_1013	s	s	17	5	SIC	158	ABS	2	0	02VD 02VO 10VC 02MD 02MO 02MC 02RD 02RO	0	1	2.82807397842	None	None	None	None	1
2.7	2015_Jun_05_1013	s	s	17	5	SIC	159	ABS	1	2	02VD 02VO 02VC 10MD 02MO 02MC 02RD 02RO	0	1	2.42417693138	None	None	None	None	1
2.7	2015_Jun_05_1013	s	s	17	5	SIC	160	RC	0	1	02VD 02VO 02VC 02MD 02MO 02MC 02RD 09RO	1	0	2.33735084534	359.0	173.0	357	164	1
2.7	2015_Jun_05_1013	s	s	17	5	SIC	161	RC	2	2	09VD 02VO 02VC 02MD 02MO 02MC 02RD 02RO	1	0	0.95276093483	-110.0	367.0	-114	370	1
2.7	2015_Jun_05_1013	s	s	17	5	SIC	162	ABS	1	2	02VD 02VO 02VC 10MD 02MO 02MC 02RD 02RO	0	1	1.8002820015	None	None	None	None	1
2.7	2015_Jun_05_1013	s	s	17	5	SIC	163	ABS	0	1	02VD 02VO 02VC 02MD 02MO 02MC 02RD 10RO	0	1	5.55120611191	None	None	None	None	1
2.7	2015_Jun_05_1013	s	s	17	5	SIC	164	RC	2	0	02VD 02VO 09VC 02MD 02MO 02MC 02RD 02RO	1	0	0.656085014343	-117.0	-16.0	-111	-24	1
2.7	2015_Jun_05_1013	s	s	17	5	SIC	165	RC	1	0	02VD 02VO 02VC 02MD 02MO 09MC 02RD 02RO	1	0	1.14884114265	539.0	-70.0	554	-64	1
2.7	2015_Jun_05_1013	s	s	17	5	SIC	166	ABS	2	1	02VD 10VO 02VC 02MD 02MO 02MC 02RD 02RO	0	1	1.65487313271	None	None	None	None	1
2.7	2015_Jun_05_1013	s	s	17	5	SIC	167	ABS	1	0	02VD 02VO 02VC 02MD 02MO 10MC 02RD 02RO	0	1	1.92445516586	None	None	None	None	1
2.7	2015_Jun_05_1013	s	s	17	5	SIC	168	ABS	0	2	02VD 02VO 02VC 02MD 02MO 02MC 10RD 02RO	0	1	1.84318494797	None	None	None	None	1
2.7	2015_Jun_05_1013	s	s	17	5	SIC	169	RC	2	1	02VD 09VO 02VC 02MD 02MO 02MC 02RD 02RO	1	0	0.854378938675	68.0	84.0	68	83	1
2.7	2015_Jun_05_1013	s	s	17	5	SIC	170	RC	0	1	02VD 02VO 02VC 02MD 02MO 02MC 02RD 09RO	1	0	0.764430999756	273.0	193.0	287	202	1
2.7	2015_Jun_05_1013	s	s	17	5	SIC	171	RC	1	2	02VD 02VO 02VC 09MD 02MO 02MC 02RD 02RO	1	0	2.02046108246	483.0	239.0	478	241	1
2.7	2015_Jun_05_1013	s	s	17	5	SIC	172	RC	1	1	02VD 02VO 02VC 02MD 09MO 02MC 02RD 02RO	1	0	0.701310157776	413.0	204.0	418	204	1
2.7	2015_Jun_05_1013	s	s	17	5	SIC	173	ABS	1	1	02VD 02VO 02VC 02MD 10MO 02MC 02RD 02RO	0	1	2.18533992767	None	None	None	None	1
2.7	2015_Jun_05_1013	s	s	17	5	SIC	174	RC	0	2	02VD 02VO 02VC 02MD 02MO 02MC 09RD 02RO	0	1	3.12606310844	-385.0	-267.0	None	None	0
2.7	2015_Jun_05_1013	s	s	17	5	SIC	175	ABS	2	2	10VD 02VO 02VC 02MD 02MO 02MC 02RD 02RO	0	1	2.75369501114	None	None	None	None	1
2.7	2015_Jun_05_1013	s	s	17	5	SIC	176	ABS	2	0	02VD 02VO 10VC 02MD 02MO 02MC 02RD 02RO	0	1	3.17777299881	None	None	None	None	1
2.7	2015_Jun_05_1013	s	s	17	5	SIC	177	RC	0	2	02VD 02VO 02VC 02MD 02MO 02MC 09RD 02RO	1	0	0.882541894913	311.0	-177.0	318	-176	1
2.7	2015_Jun_05_1013	s	s	17	5	SIC	178	RC	0	1	02VD 02VO 02VC 02MD 02MO 02MC 02RD 09RO	1	0	1.67076897621	462.0	312.0	457	304	1
2.7	2015_Jun_05_1013	s	s	17	5	SIC	179	RC	1	0	02VD 02VO 02VC 02MD 02MO 09MC 02RD 02RO	1	0	0.785758972168	352.0	63.0	352	57	1
2.7	2015_Jun_05_1013	s	s	17	5	SIC	180	RC	2	1	02VD 09VO 02VC 02MD 02MO 02MC 02RD 02RO	1	0	1.51778697968	-483.0	-23.0	-491	-29	1
2.7	2015_Jun_05_1013	s	s	17	5	SIC	181	ABS	1	1	02VD 02VO 02VC 02MD 10MO 02MC 02RD 02RO	0	1	2.19572377205	None	None	None	None	1
2.7	2015_Jun_05_1013	s	s	17	5	SIC	182	RC	2	0	02VD 02VO 09VC 02MD 02MO 02MC 02RD 02RO	1	0	1.11554002762	-465.0	38.0	-458	32	1
2.7	2015_Jun_05_1013	s	s	17	5	SIC	183	ABS	1	0	02VD 02VO 02VC 02MD 02MO 10MC 02RD 02RO	0	1	2.60059595108	None	None	None	None	1
2.7	2015_Jun_05_1013	s	s	17	5	SIC	184	RC	1	1	02VD 02VO 02VC 02MD 09MO 02MC 02RD 02RO	1	0	1.23548388481	-472.0	184.0	-473	185	1
2.7	2015_Jun_05_1013	s	s	17	5	SIC	185	RC	2	2	09VD 02VO 02VC 02MD 02MO 02MC 02RD 02RO	1	0	1.03213691711	395.0	-232.0	401	-241	1
2.7	2015_Jun_05_1013	s	s	17	5	SIC	186	ABS	1	2	02VD 02VO 02VC 10MD 02MO 02MC 02RD 02RO	0	1	2.18538784981	None	None	None	None	1
2.7	2015_Jun_05_1013	s	s	17	5	SIC	187	ABS	2	2	10VD 02VO 02VC 02MD 02MO 02MC 02RD 02RO	0	1	1.27041697502	None	None	None	None	1
2.7	2015_Jun_05_1013	s	s	17	5	SIC	188	ABS	0	1	02VD 02VO 02VC 02MD 02MO 02MC 02RD 10RO	0	1	4.2405230999	None	None	None	None	1
2.7	2015_Jun_05_1013	s	s	17	5	SIC	189	ABS	2	0	02VD 02VO 10VC 02MD 02MO 02MC 02RD 02RO	0	1	3.21886491776	None	None	None	None	1
2.7	2015_Jun_05_1013	s	s	17	5	SIC	190	ABS	0	2	02VD 02VO 02VC 02MD 02MO 02MC 10RD 02RO	0	1	2.14156007767	None	None	None	None	1
2.7	2015_Jun_05_1013	s	s	17	5	SIC	191	RC	1	2	02VD 02VO 02VC 09MD 02MO 02MC 02RD 02RO	1	0	1.10155296326	-460.0	348.0	-449	348	1
2.7	2015_Jun_05_1013	s	s	17	5	SIC	192	ABS	2	1	02VD 10VO 02VC 02MD 02MO 02MC 02RD 02RO	0	1	2.75053501129	None	None	None	None	1
2.7	2015_Jun_05_1013	s	s	17	5	SIC	193	ABS	1	2	02VD 02VO 02VC 10MD 02MO 02MC 02RD 02RO	0	1	1.62038588524	None	None	None	None	1
2.7	2015_Jun_05_1013	s	s	17	5	SIC	194	ABS	2	0	02VD 02VO 10VC 02MD 02MO 02MC 02RD 02RO	0	1	1.85239911079	None	None	None	None	1
2.7	2015_Jun_05_1013	s	s	17	5	SIC	195	RC	0	2	02VD 02VO 02VC 02MD 02MO 02MC 09RD 02RO	1	0	1.22349309921	-197.0	409.0	-203	400	1
2.7	2015_Jun_05_1013	s	s	17	5	SIC	196	RC	2	1	02VD 09VO 02VC 02MD 02MO 02MC 02RD 02RO	1	0	1.45343995094	521.0	329.0	529	326	1
2.7	2015_Jun_05_1013	s	s	17	5	SIC	197	RC	2	0	02VD 02VO 09VC 02MD 02MO 02MC 02RD 02RO	1	0	1.0648958683	101.0	-71.0	98	-68	1
2.7	2015_Jun_05_1013	s	s	17	5	SIC	198	ABS	0	1	02VD 02VO 02VC 02MD 02MO 02MC 02RD 10RO	0	1	3.25974702835	None	None	None	None	1
2.7	2015_Jun_05_1013	s	s	17	5	SIC	199	ABS	2	2	10VD 02VO 02VC 02MD 02MO 02MC 02RD 02RO	0	1	1.92736101151	None	None	None	None	1
2.7	2015_Jun_05_1013	s	s	17	5	SIC	200	RC	1	0	02VD 02VO 02VC 02MD 02MO 09MC 02RD 02RO	1	0	1.09166502953	119.0	353.0	124	361	1
2.7	2015_Jun_05_1013	s	s	17	5	SIC	201	ABS	2	1	02VD 10VO 02VC 02MD 02MO 02MC 02RD 02RO	0	1	2.47960877419	None	None	None	None	1
2.7	2015_Jun_05_1013	s	s	17	5	SIC	202	RC	1	1	02VD 02VO 02VC 02MD 09MO 02MC 02RD 02RO	1	0	1.62992596626	173.0	-187.0	175	-187	1
2.7	2015_Jun_05_1013	s	s	17	5	SIC	203	RC	0	1	02VD 02VO 02VC 02MD 02MO 02MC 02RD 09RO	1	0	1.68254995346	419.0	284.0	426	284	1
2.7	2015_Jun_05_1013	s	s	17	5	SIC	204	ABS	1	1	02VD 02VO 02VC 02MD 10MO 02MC 02RD 02RO	0	1	1.98622989655	None	None	None	None	1
2.7	2015_Jun_05_1013	s	s	17	5	SIC	205	ABS	1	0	02VD 02VO 02VC 02MD 02MO 10MC 02RD 02RO	0	1	1.56486487389	None	None	None	None	1
2.7	2015_Jun_05_1013	s	s	17	5	SIC	206	RC	2	2	09VD 02VO 02VC 02MD 02MO 02MC 02RD 02RO	1	0	1.08223390579	-438.0	377.0	-441	384	1
2.7	2015_Jun_05_1013	s	s	17	5	SIC	207	RC	1	2	02VD 02VO 02VC 09MD 02MO 02MC 02RD 02RO	1	0	1.36460995674	-345.0	-121.0	-346	-125	1
2.7	2015_Jun_05_1013	s	s	17	5	SIC	208	ABS	0	2	02VD 02VO 02VC 02MD 02MO 02MC 10RD 02RO	0	1	3.02443313599	None	None	None	None	1
2.7	2015_Jun_05_1013	s	s	17	5	SIC	209	RC	0	2	02VD 02VO 02VC 02MD 02MO 02MC 09RD 02RO	1	0	1.18802189827	398.0	-163.0	401	-165	1
2.7	2015_Jun_05_1013	s	s	17	5	SIC	210	RC	1	0	02VD 02VO 02VC 02MD 02MO 09MC 02RD 02RO	1	0	1.00893497467	50.0	183.0	60	183	1
2.7	2015_Jun_05_1013	s	s	17	5	SIC	211	ABS	2	1	02VD 10VO 02VC 02MD 02MO 02MC 02RD 02RO	0	1	1.79664611816	None	None	None	None	1
2.7	2015_Jun_05_1013	s	s	17	5	SIC	212	RC	1	1	02VD 02VO 02VC 02MD 09MO 02MC 02RD 02RO	1	0	1.00026106834	495.0	33.0	487	27	1
2.7	2015_Jun_05_1013	s	s	17	5	SIC	213	RC	2	2	09VD 02VO 02VC 02MD 02MO 02MC 02RD 02RO	1	0	0.870412111282	330.0	351.0	328	353	1
2.7	2015_Jun_05_1013	s	s	17	5	SIC	214	ABS	0	2	02VD 02VO 02VC 02MD 02MO 02MC 10RD 02RO	0	1	3.33826708794	None	None	None	None	1
2.7	2015_Jun_05_1013	s	s	17	5	SIC	215	ABS	2	0	02VD 02VO 10VC 02MD 02MO 02MC 02RD 02RO	0	1	2.75372695923	None	None	None	None	1
2.7	2015_Jun_05_1013	s	s	17	5	SIC	216	ABS	1	2	02VD 02VO 02VC 10MD 02MO 02MC 02RD 02RO	0	1	2.21212887764	None	None	None	None	1
2.7	2015_Jun_05_1013	s	s	17	5	SIC	217	RC	1	2	02VD 02VO 02VC 09MD 02MO 02MC 02RD 02RO	1	0	0.750373125076	90.0	219.0	91	221	1
2.7	2015_Jun_05_1013	s	s	17	5	SIC	218	RC	0	1	02VD 02VO 02VC 02MD 02MO 02MC 02RD 09RO	1	0	1.29408502579	-212.0	-174.0	-202	-169	1
2.7	2015_Jun_05_1013	s	s	17	5	SIC	219	ABS	0	1	02VD 02VO 02VC 02MD 02MO 02MC 02RD 10RO	0	1	3.2010371685	None	None	None	None	1
2.7	2015_Jun_05_1013	s	s	17	5	SIC	220	ABS	1	1	02VD 02VO 02VC 02MD 10MO 02MC 02RD 02RO	0	1	1.84764909744	None	None	None	None	1
2.7	2015_Jun_05_1013	s	s	17	5	SIC	221	ABS	2	2	10VD 02VO 02VC 02MD 02MO 02MC 02RD 02RO	0	1	1.4785399437	None	None	None	None	1
2.7	2015_Jun_05_1013	s	s	17	5	SIC	222	ABS	1	0	02VD 02VO 02VC 02MD 02MO 10MC 02RD 02RO	0	1	1.89439201355	None	None	None	None	1
2.7	2015_Jun_05_1013	s	s	17	5	SIC	223	RC	2	0	02VD 02VO 09VC 02MD 02MO 02MC 02RD 02RO	1	0	0.650533914566	-116.0	-54.0	-124	-59	1
2.7	2015_Jun_05_1013	s	s	17	5	SIC	224	RC	2	1	02VD 09VO 02VC 02MD 02MO 02MC 02RD 02RO	1	0	1.18580198288	152.0	-56.0	149	-50	1
2.7	2015_Jun_05_1013	s	s	17	5	SIC	225	ABS	2	1	02VD 10VO 02VC 02MD 02MO 02MC 02RD 02RO	0	1	2.32725811005	None	None	None	None	1
2.7	2015_Jun_05_1013	s	s	17	5	SIC	226	ABS	1	1	02VD 02VO 02VC 02MD 10MO 02MC 02RD 02RO	0	1	2.10234093666	None	None	None	None	1
2.7	2015_Jun_05_1013	s	s	17	5	SIC	227	RC	1	0	02VD 02VO 02VC 02MD 02MO 09MC 02RD 02RO	1	0	0.995851039886	478.0	263.0	467	266	1
2.7	2015_Jun_05_1013	s	s	17	5	SIC	228	RC	1	2	02VD 02VO 02VC 09MD 02MO 02MC 02RD 02RO	1	0	0.846810102463	327.0	399.0	332	407	1
2.7	2015_Jun_05_1013	s	s	17	5	SIC	229	ABS	1	0	02VD 02VO 02VC 02MD 02MO 10MC 02RD 02RO	0	1	3.17260599136	None	None	None	None	1
2.7	2015_Jun_05_1013	s	s	17	5	SIC	230	RC	0	1	02VD 02VO 02VC 02MD 02MO 02MC 02RD 09RO	1	0	1.40618491173	329.0	-47.0	322	-52	1
2.7	2015_Jun_05_1013	s	s	17	5	SIC	231	RC	0	2	02VD 02VO 02VC 02MD 02MO 02MC 09RD 02RO	1	0	0.827529907227	-107.0	311.0	-105	306	1
2.7	2015_Jun_05_1013	s	s	17	5	SIC	232	ABS	0	2	02VD 02VO 02VC 02MD 02MO 02MC 10RD 02RO	0	1	2.53614807129	None	None	None	None	1
2.7	2015_Jun_05_1013	s	s	17	5	SIC	233	RC	1	1	02VD 02VO 02VC 02MD 09MO 02MC 02RD 02RO	1	0	1.29408812523	-124.0	-240.0	-130	-239	1
2.7	2015_Jun_05_1013	s	s	17	5	SIC	234	ABS	2	0	02VD 02VO 10VC 02MD 02MO 02MC 02RD 02RO	0	1	2.12473797798	None	None	None	None	1
2.7	2015_Jun_05_1013	s	s	17	5	SIC	235	RC	2	1	02VD 09VO 02VC 02MD 02MO 02MC 02RD 02RO	1	0	1.71232509613	-373.0	-359.0	-370	-364	1
2.7	2015_Jun_05_1013	s	s	17	5	SIC	236	ABS	0	1	02VD 02VO 02VC 02MD 02MO 02MC 02RD 10RO	0	1	3.99863600731	None	None	None	None	1
2.7	2015_Jun_05_1013	s	s	17	5	SIC	237	RC	2	0	02VD 02VO 09VC 02MD 02MO 02MC 02RD 02RO	1	0	1.32709717751	-236.0	-339.0	-232	-333	1
2.7	2015_Jun_05_1013	s	s	17	5	SIC	238	ABS	1	2	02VD 02VO 02VC 10MD 02MO 02MC 02RD 02RO	0	1	2.26677012444	None	None	None	None	1
2.7	2015_Jun_05_1013	s	s	17	5	SIC	239	RC	2	2	09VD 02VO 02VC 02MD 02MO 02MC 02RD 02RO	1	0	0.635005950928	-94.0	14.0	-95	23	1
2.7	2015_Jun_05_1013	s	s	17	5	SIC	240	ABS	2	2	10VD 02VO 02VC 02MD 02MO 02MC 02RD 02RO	0	1	2.8712720871	None	None	None	None	1
2.7	2015_Jun_05_1013	s	s	17	5	SIC	241	RC	0	1	02VD 02VO 02VC 02MD 02MO 02MC 02RD 09RO	1	0	3.13414382935	527.0	180.0	526	178	1
2.7	2015_Jun_05_1013	s	s	17	5	SIC	242	RC	1	0	02VD 02VO 02VC 02MD 02MO 09MC 02RD 02RO	1	0	0.776053905487	226.0	-27.0	235	-28	1
2.7	2015_Jun_05_1013	s	s	17	5	SIC	243	ABS	2	1	02VD 10VO 02VC 02MD 02MO 02MC 02RD 02RO	0	1	1.78338599205	None	None	None	None	1
2.7	2015_Jun_05_1013	s	s	17	5	SIC	244	ABS	0	1	02VD 02VO 02VC 02MD 02MO 02MC 02RD 10RO	0	1	2.74185299873	None	None	None	None	1
2.7	2015_Jun_05_1013	s	s	17	5	SIC	245	ABS	2	2	10VD 02VO 02VC 02MD 02MO 02MC 02RD 02RO	0	1	1.49419379234	None	None	None	None	1
2.7	2015_Jun_05_1013	s	s	17	5	SIC	246	RC	2	1	02VD 09VO 02VC 02MD 02MO 02MC 02RD 02RO	1	0	2.08962011337	-151.0	-339.0	-157	-344	1
2.7	2015_Jun_05_1013	s	s	17	5	SIC	247	RC	1	2	02VD 02VO 02VC 09MD 02MO 02MC 02RD 02RO	1	0	0.670097827911	81.0	76.0	86	84	1
2.7	2015_Jun_05_1013	s	s	17	5	SIC	248	RC	2	0	02VD 02VO 09VC 02MD 02MO 02MC 02RD 02RO	1	0	0.959832906723	-311.0	401.0	-305	405	1
2.7	2015_Jun_05_1013	s	s	17	5	SIC	249	RC	1	1	02VD 02VO 02VC 02MD 09MO 02MC 02RD 02RO	1	0	0.750183105469	-475.0	172.0	-479	171	1
2.7	2015_Jun_05_1013	s	s	17	5	SIC	250	ABS	1	2	02VD 02VO 02VC 10MD 02MO 02MC 02RD 02RO	0	1	1.54137396812	None	None	None	None	1
2.7	2015_Jun_05_1013	s	s	17	5	SIC	251	ABS	2	0	02VD 02VO 10VC 02MD 02MO 02MC 02RD 02RO	0	1	2.35983300209	None	None	None	None	1
2.7	2015_Jun_05_1013	s	s	17	5	SIC	252	ABS	1	1	02VD 02VO 02VC 02MD 10MO 02MC 02RD 02RO	0	1	2.77735209465	None	None	None	None	1
2.7	2015_Jun_05_1013	s	s	17	5	SIC	253	ABS	0	2	02VD 02VO 02VC 02MD 02MO 02MC 10RD 02RO	0	1	2.18869996071	None	None	None	None	1
2.7	2015_Jun_05_1013	s	s	17	5	SIC	254	RC	0	2	02VD 02VO 02VC 02MD 02MO 02MC 09RD 02RO	1	0	3.35405898094	-4.0	109.0	2	100	1
2.7	2015_Jun_05_1013	s	s	17	5	SIC	255	RC	2	2	09VD 02VO 02VC 02MD 02MO 02MC 02RD 02RO	1	0	1.32295203209	397.0	306.0	396	311	1
2.7	2015_Jun_05_1013	s	s	17	5	SIC	256	ABS	1	0	02VD 02VO 02VC 02MD 02MO 10MC 02RD 02RO	0	1	2.66605496407	None	None	None	None	1
2.7	2015_Jun_05_1013	s	s	17	5	SIC	257	ABS	1	0	02VD 02VO 02VC 02MD 02MO 10MC 02RD 02RO	0	1	2.42794108391	None	None	None	None	1
2.7	2015_Jun_05_1013	s	s	17	5	SIC	258	RC	0	1	02VD 02VO 02VC 02MD 02MO 02MC 02RD 09RO	1	0	1.28216004372	455.0	396.0	449	402	1
2.7	2015_Jun_05_1013	s	s	17	5	SIC	259	ABS	0	2	02VD 02VO 02VC 02MD 02MO 02MC 10RD 02RO	0	1	2.16498303413	None	None	None	None	1
2.7	2015_Jun_05_1013	s	s	17	5	SIC	260	RC	2	1	02VD 09VO 02VC 02MD 02MO 02MC 02RD 02RO	1	0	0.97637796402	-71.0	-331.0	-60	-331	1
2.7	2015_Jun_05_1013	s	s	17	5	SIC	261	ABS	1	2	02VD 02VO 02VC 10MD 02MO 02MC 02RD 02RO	0	1	1.52951788902	None	None	None	None	1
2.7	2015_Jun_05_1013	s	s	17	5	SIC	262	RC	1	0	02VD 02VO 02VC 02MD 02MO 09MC 02RD 02RO	1	0	1.91789293289	-362.0	204.0	-370	206	1
2.7	2015_Jun_05_1013	s	s	17	5	SIC	263	ABS	2	2	10VD 02VO 02VC 02MD 02MO 02MC 02RD 02RO	0	1	1.43914198875	None	None	None	None	1
2.7	2015_Jun_05_1013	s	s	17	5	SIC	264	ABS	1	1	02VD 02VO 02VC 02MD 10MO 02MC 02RD 02RO	0	1	3.83642888069	None	None	None	None	1
2.7	2015_Jun_05_1013	s	s	17	5	SIC	265	ABS	2	1	02VD 10VO 02VC 02MD 02MO 02MC 02RD 02RO	0	1	2.24522519112	None	None	None	None	1
2.7	2015_Jun_05_1013	s	s	17	5	SIC	266	RC	2	2	09VD 02VO 02VC 02MD 02MO 02MC 02RD 02RO	1	0	1.79779911041	-444.0	75.0	-442	82	1
2.7	2015_Jun_05_1013	s	s	17	5	SIC	267	ABS	0	1	02VD 02VO 02VC 02MD 02MO 02MC 02RD 10RO	0	1	4.14717507362	None	None	None	None	1
2.7	2015_Jun_05_1013	s	s	17	5	SIC	268	RC	2	0	02VD 02VO 09VC 02MD 02MO 02MC 02RD 02RO	1	0	1.43246889114	-318.0	50.0	-325	55	1
2.7	2015_Jun_05_1013	s	s	17	5	SIC	269	ABS	2	0	02VD 02VO 10VC 02MD 02MO 02MC 02RD 02RO	0	1	2.30640506744	None	None	None	None	1
2.7	2015_Jun_05_1013	s	s	17	5	SIC	270	RC	0	2	02VD 02VO 02VC 02MD 02MO 02MC 09RD 02RO	1	0	0.806145906448	-260.0	-101.0	-254	-97	1
2.7	2015_Jun_05_1013	s	s	17	5	SIC	271	RC	1	1	02VD 02VO 02VC 02MD 09MO 02MC 02RD 02RO	1	0	0.662388086319	229.0	71.0	227	78	1
2.7	2015_Jun_05_1013	s	s	17	5	SIC	272	RC	1	2	02VD 02VO 02VC 09MD 02MO 02MC 02RD 02RO	1	0	2.0538880825	437.0	-53.0	421	-45	1
2.7	2015_Jun_05_1013	s	s	17	5	SIC	273	RC	0	2	02VD 02VO 02VC 02MD 02MO 02MC 09RD 02RO	1	0	0.829379081726	239.0	-62.0	246	-69	1
2.7	2015_Jun_05_1013	s	s	17	5	SIC	274	ABS	0	1	02VD 02VO 02VC 02MD 02MO 02MC 02RD 10RO	0	1	4.17499279976	None	None	None	None	1
2.7	2015_Jun_05_1013	s	s	17	5	SIC	275	ABS	2	0	02VD 02VO 10VC 02MD 02MO 02MC 02RD 02RO	0	1	2.75018787384	None	None	None	None	1
2.7	2015_Jun_05_1013	s	s	17	5	SIC	276	RC	1	1	02VD 02VO 02VC 02MD 09MO 02MC 02RD 02RO	1	0	1.91802406311	234.0	-400.0	239	-395	1
2.7	2015_Jun_05_1013	s	s	17	5	SIC	277	ABS	1	2	02VD 02VO 02VC 10MD 02MO 02MC 02RD 02RO	0	1	2.17308616638	None	None	None	None	1
2.7	2015_Jun_05_1013	s	s	17	5	SIC	278	RC	2	2	09VD 02VO 02VC 02MD 02MO 02MC 02RD 02RO	1	0	1.5475859642	-401.0	-148.0	-392	-150	1
2.7	2015_Jun_05_1013	s	s	17	5	SIC	279	ABS	1	0	02VD 02VO 02VC 02MD 02MO 10MC 02RD 02RO	0	1	1.90082502365	None	None	None	None	1
2.7	2015_Jun_05_1013	s	s	17	5	SIC	280	RC	0	1	02VD 02VO 02VC 02MD 02MO 02MC 02RD 09RO	1	0	2.18398618698	517.0	66.0	515	66	1
2.7	2015_Jun_05_1013	s	s	17	5	SIC	281	RC	1	0	02VD 02VO 02VC 02MD 02MO 09MC 02RD 02RO	1	0	1.40984511375	-451.0	328.0	-462	328	1
2.7	2015_Jun_05_1013	s	s	17	5	SIC	282	ABS	2	2	10VD 02VO 02VC 02MD 02MO 02MC 02RD 02RO	0	1	1.21982693672	None	None	None	None	1
2.7	2015_Jun_05_1013	s	s	17	5	SIC	283	ABS	2	1	02VD 10VO 02VC 02MD 02MO 02MC 02RD 02RO	0	1	2.97185206413	None	None	None	None	1
2.7	2015_Jun_05_1013	s	s	17	5	SIC	284	ABS	1	1	02VD 02VO 02VC 02MD 10MO 02MC 02RD 02RO	0	1	2.4240629673	None	None	None	None	1
2.7	2015_Jun_05_1013	s	s	17	5	SIC	285	RC	2	1	02VD 09VO 02VC 02MD 02MO 02MC 02RD 02RO	1	0	1.3863120079	307.0	-321.0	300	-328	1
2.7	2015_Jun_05_1013	s	s	17	5	SIC	286	ABS	0	2	02VD 02VO 02VC 02MD 02MO 02MC 10RD 02RO	0	1	1.94138979912	None	None	None	None	1
2.7	2015_Jun_05_1013	s	s	17	5	SIC	287	RC	1	2	02VD 02VO 02VC 09MD 02MO 02MC 02RD 02RO	1	0	0.750164985657	80.0	87.0	72	82	1
2.7	2015_Jun_05_1013	s	s	17	5	SIC	288	RC	2	0	02VD 02VO 09VC 02MD 02MO 02MC 02RD 02RO	1	0	1.63179922104	340.0	-292.0	345	-290	1
2.7	2015_Jun_05_1013	s	s	17	5	SIC	289	RC	1	0	02VD 02VO 02VC 02MD 02MO 09MC 02RD 02RO	1	0	0.655375957489	45.0	168.0	55	166	1
2.7	2015_Jun_05_1013	s	s	17	5	SIC	290	RC	2	2	09VD 02VO 02VC 02MD 02MO 02MC 02RD 02RO	1	0	1.02075195312	323.0	216.0	321	222	1
2.7	2015_Jun_05_1013	s	s	17	5	SIC	291	ABS	1	1	02VD 02VO 02VC 02MD 10MO 02MC 02RD 02RO	0	1	1.97075605392	None	None	None	None	1
2.7	2015_Jun_05_1013	s	s	17	5	SIC	292	ABS	2	0	02VD 02VO 10VC 02MD 02MO 02MC 02RD 02RO	0	1	2.65728807449	None	None	None	None	1
2.7	2015_Jun_05_1013	s	s	17	5	SIC	293	ABS	0	1	02VD 02VO 02VC 02MD 02MO 02MC 02RD 10RO	0	1	3.16544103622	None	None	None	None	1
2.7	2015_Jun_05_1013	s	s	17	5	SIC	294	ABS	1	2	02VD 02VO 02VC 10MD 02MO 02MC 02RD 02RO	0	1	2.30625796318	None	None	None	None	1
2.7	2015_Jun_05_1013	s	s	17	5	SIC	295	ABS	1	0	02VD 02VO 02VC 02MD 02MO 10MC 02RD 02RO	0	1	2.70652699471	None	None	None	None	1
2.7	2015_Jun_05_1013	s	s	17	5	SIC	296	ABS	2	2	10VD 02VO 02VC 02MD 02MO 02MC 02RD 02RO	0	1	2.42842698097	None	None	None	None	1
2.7	2015_Jun_05_1013	s	s	17	5	SIC	297	RC	0	2	02VD 02VO 02VC 02MD 02MO 02MC 09RD 02RO	1	0	1.70018792152	502.0	39.0	510	35	1
2.7	2015_Jun_05_1013	s	s	17	5	SIC	298	ABS	2	1	02VD 10VO 02VC 02MD 02MO 02MC 02RD 02RO	0	1	1.63210511208	None	None	None	None	1
2.7	2015_Jun_05_1013	s	s	17	5	SIC	299	RC	2	1	02VD 09VO 02VC 02MD 02MO 02MC 02RD 02RO	1	0	1.00803017616	-482.0	168.0	-489	172	1
2.7	2015_Jun_05_1013	s	s	17	5	SIC	300	RC	1	2	02VD 02VO 02VC 09MD 02MO 02MC 02RD 02RO	1	0	0.796097040176	-169.0	186.0	-167	189	1
2.7	2015_Jun_05_1013	s	s	17	5	SIC	301	ABS	0	2	02VD 02VO 02VC 02MD 02MO 02MC 10RD 02RO	0	1	2.07752299309	None	None	None	None	1
2.7	2015_Jun_05_1013	s	s	17	5	SIC	302	RC	2	0	02VD 02VO 09VC 02MD 02MO 02MC 02RD 02RO	1	0	1.42347407341	54.0	-277.0	46	-280	1
2.7	2015_Jun_05_1013	s	s	17	5	SIC	303	RC	1	1	02VD 02VO 02VC 02MD 09MO 02MC 02RD 02RO	1	0	0.835077047348	241.0	139.0	242	142	1
2.7	2015_Jun_05_1013	s	s	17	5	SIC	304	RC	0	1	02VD 02VO 02VC 02MD 02MO 02MC 02RD 09RO	1	0	1.68934988976	-385.0	-85.0	-388	-81	1
2.7	2015_Jun_05_1013	s	s	17	5	SIC	305	RC	1	2	02VD 02VO 02VC 09MD 02MO 02MC 02RD 02RO	1	0	1.24719190598	-208.0	-338.0	-209	-333	1
2.7	2015_Jun_05_1013	s	s	17	5	SIC	306	RC	0	2	02VD 02VO 02VC 02MD 02MO 02MC 09RD 02RO	1	0	2.27104687691	374.0	405.0	367	410	1
2.7	2015_Jun_05_1013	s	s	17	5	SIC	307	RC	2	0	02VD 02VO 09VC 02MD 02MO 02MC 02RD 02RO	1	0	0.750267982483	-273.0	304.0	-273	293	1
2.7	2015_Jun_05_1013	s	s	17	5	SIC	308	RC	0	1	02VD 02VO 02VC 02MD 02MO 02MC 02RD 09RO	1	0	1.20688080788	-94.0	-224.0	-94	-225	1
2.7	2015_Jun_05_1013	s	s	17	5	SIC	309	ABS	1	1	02VD 02VO 02VC 02MD 10MO 02MC 02RD 02RO	0	1	3.3423230648	None	None	None	None	1
2.7	2015_Jun_05_1013	s	s	17	5	SIC	310	ABS	1	2	02VD 02VO 02VC 10MD 02MO 02MC 02RD 02RO	0	1	2.98900794983	None	None	None	None	1
2.7	2015_Jun_05_1013	s	s	17	5	SIC	311	ABS	0	2	02VD 02VO 02VC 02MD 02MO 02MC 10RD 02RO	0	1	3.19473004341	None	None	None	None	1
2.7	2015_Jun_05_1013	s	s	17	5	SIC	312	RC	2	2	09VD 02VO 02VC 02MD 02MO 02MC 02RD 02RO	0	1	2.46850204468	225.0	-35.0	None	None	0
2.7	2015_Jun_05_1013	s	s	17	5	SIC	313	RC	1	1	02VD 02VO 02VC 02MD 09MO 02MC 02RD 02RO	1	0	1.08830785751	159.0	375.0	161	375	1
2.7	2015_Jun_05_1013	s	s	17	5	SIC	314	ABS	0	1	02VD 02VO 02VC 02MD 02MO 02MC 02RD 10RO	0	1	3.8365380764	None	None	None	None	1
2.7	2015_Jun_05_1013	s	s	17	5	SIC	315	ABS	2	1	02VD 10VO 02VC 02MD 02MO 02MC 02RD 02RO	0	1	2.39675498009	None	None	None	None	1
2.7	2015_Jun_05_1013	s	s	17	5	SIC	316	ABS	1	0	02VD 02VO 02VC 02MD 02MO 10MC 02RD 02RO	0	1	2.83989787102	None	None	None	None	1
2.7	2015_Jun_05_1013	s	s	17	5	SIC	317	ABS	2	0	02VD 02VO 10VC 02MD 02MO 02MC 02RD 02RO	0	1	2.28049588203	None	None	None	None	1
2.7	2015_Jun_05_1013	s	s	17	5	SIC	318	RC	1	0	02VD 02VO 02VC 02MD 02MO 09MC 02RD 02RO	1	0	0.72633600235	293.0	227.0	292	228	1
2.7	2015_Jun_05_1013	s	s	17	5	SIC	319	ABS	2	2	10VD 02VO 02VC 02MD 02MO 02MC 02RD 02RO	0	1	2.53628897667	None	None	None	None	1
2.7	2015_Jun_05_1013	s	s	17	5	SIC	320	RC	2	1	02VD 09VO 02VC 02MD 02MO 02MC 02RD 02RO	1	0	1.07814002037	-38.0	-21.0	-29	-22	1
2.7	2015_Jun_05_1013	s	s	17	5	SIC	321	ABS	2	2	10VD 02VO 02VC 02MD 02MO 02MC 02RD 02RO	0	1	2.04751396179	None	None	None	None	1
2.7	2015_Jun_05_1013	s	s	17	5	SIC	322	ABS	1	0	02VD 02VO 02VC 02MD 02MO 10MC 02RD 02RO	0	1	3.0596871376	None	None	None	None	1
2.7	2015_Jun_05_1013	s	s	17	5	SIC	323	RC	2	1	02VD 09VO 02VC 02MD 02MO 02MC 02RD 02RO	1	0	1.81196594238	-384.0	-345.0	-379	-337	1
2.7	2015_Jun_05_1013	s	s	17	5	SIC	324	RC	0	1	02VD 02VO 02VC 02MD 02MO 02MC 02RD 09RO	1	0	2.62004804611	355.0	-392.0	364	-393	1
2.7	2015_Jun_05_1013	s	s	17	5	SIC	325	ABS	1	1	02VD 02VO 02VC 02MD 10MO 02MC 02RD 02RO	0	1	2.60946297646	None	None	None	None	1
2.7	2015_Jun_05_1013	s	s	17	5	SIC	326	ABS	0	1	02VD 02VO 02VC 02MD 02MO 02MC 02RD 10RO	0	1	3.76283502579	None	None	None	None	1
2.7	2015_Jun_05_1013	s	s	17	5	SIC	327	RC	1	0	02VD 02VO 02VC 02MD 02MO 09MC 02RD 02RO	1	0	2.33045005798	-413.0	-134.0	-414	-127	1
2.7	2015_Jun_05_1013	s	s	17	5	SIC	328	RC	2	0	02VD 02VO 09VC 02MD 02MO 02MC 02RD 02RO	1	0	0.658566951752	-95.0	69.0	-106	70	1
2.7	2015_Jun_05_1013	s	s	17	5	SIC	329	ABS	0	2	02VD 02VO 02VC 02MD 02MO 02MC 10RD 02RO	0	1	4.07203006744	None	None	None	None	1
2.7	2015_Jun_05_1013	s	s	17	5	SIC	330	ABS	2	1	02VD 10VO 02VC 02MD 02MO 02MC 02RD 02RO	0	1	2.88991689682	None	None	None	None	1
2.7	2015_Jun_05_1013	s	s	17	5	SIC	331	RC	0	2	02VD 02VO 02VC 02MD 02MO 02MC 09RD 02RO	1	0	2.33676505089	-493.0	-365.0	-493	-382	1
2.7	2015_Jun_05_1013	s	s	17	5	SIC	332	ABS	2	0	02VD 02VO 10VC 02MD 02MO 02MC 02RD 02RO	0	1	2.9615380764	None	None	None	None	1
2.7	2015_Jun_05_1013	s	s	17	5	SIC	333	RC	2	2	09VD 02VO 02VC 02MD 02MO 02MC 02RD 02RO	1	0	1.82154607773	-136.0	-148.0	-132	-143	1
2.7	2015_Jun_05_1013	s	s	17	5	SIC	334	ABS	1	2	02VD 02VO 02VC 10MD 02MO 02MC 02RD 02RO	0	1	1.37163305283	None	None	None	None	1
2.7	2015_Jun_05_1013	s	s	17	5	SIC	335	RC	1	2	02VD 02VO 02VC 09MD 02MO 02MC 02RD 02RO	1	0	0.835262060165	-293.0	-224.0	-306	-221	1
2.7	2015_Jun_05_1013	s	s	17	5	SIC	336	RC	1	1	02VD 02VO 02VC 02MD 09MO 02MC 02RD 02RO	1	0	1.77176308632	470.0	-287.0	480	-287	1
2.7	2015_Jun_05_1013	s	s	17	5	SIC	337	ABS	1	2	02VD 02VO 02VC 10MD 02MO 02MC 02RD 02RO	0	1	1.76050281525	None	None	None	None	1
2.7	2015_Jun_05_1013	s	s	17	5	SIC	338	ABS	2	2	10VD 02VO 02VC 02MD 02MO 02MC 02RD 02RO	0	1	1.65908503532	None	None	None	None	1
2.7	2015_Jun_05_1013	s	s	17	5	SIC	339	ABS	2	0	02VD 02VO 10VC 02MD 02MO 02MC 02RD 02RO	0	1	2.10628294945	None	None	None	None	1
2.7	2015_Jun_05_1013	s	s	17	5	SIC	340	RC	0	2	02VD 02VO 02VC 02MD 02MO 02MC 09RD 02RO	1	0	1.01887202263	-483.0	262.0	-483	258	1
2.7	2015_Jun_05_1013	s	s	17	5	SIC	341	ABS	0	1	02VD 02VO 02VC 02MD 02MO 02MC 02RD 10RO	0	1	3.67181491852	None	None	None	None	1
2.7	2015_Jun_05_1013	s	s	17	5	SIC	342	RC	1	0	02VD 02VO 02VC 02MD 02MO 09MC 02RD 02RO	1	0	2.54872488976	-487.0	179.0	-484	188	1
2.7	2015_Jun_05_1013	s	s	17	5	SIC	343	RC	2	2	09VD 02VO 02VC 02MD 02MO 02MC 02RD 02RO	1	0	1.63539910316	48.0	80.0	54	72	1
2.7	2015_Jun_05_1013	s	s	17	5	SIC	344	ABS	1	0	02VD 02VO 02VC 02MD 02MO 10MC 02RD 02RO	0	1	2.76097202301	None	None	None	None	1
2.7	2015_Jun_05_1013	s	s	17	5	SIC	345	RC	0	1	02VD 02VO 02VC 02MD 02MO 02MC 02RD 09RO	1	0	1.61196208	231.0	295.0	231	290	1
2.7	2015_Jun_05_1013	s	s	17	5	SIC	346	RC	1	2	02VD 02VO 02VC 09MD 02MO 02MC 02RD 02RO	1	0	1.18308806419	444.0	-217.0	434	-214	1
2.7	2015_Jun_05_1013	s	s	17	5	SIC	347	RC	1	1	02VD 02VO 02VC 02MD 09MO 02MC 02RD 02RO	1	0	0.877190113068	-223.0	-124.0	-222	-117	1
2.7	2015_Jun_05_1013	s	s	17	5	SIC	348	ABS	0	2	02VD 02VO 02VC 02MD 02MO 02MC 10RD 02RO	0	1	2.67838311195	None	None	None	None	1
2.7	2015_Jun_05_1013	s	s	17	5	SIC	349	ABS	2	1	02VD 10VO 02VC 02MD 02MO 02MC 02RD 02RO	0	1	1.8709321022	None	None	None	None	1
2.7	2015_Jun_05_1013	s	s	17	5	SIC	350	RC	2	0	02VD 02VO 09VC 02MD 02MO 02MC 02RD 02RO	1	0	1.01547813416	85.0	-230.0	81	-225	1
2.7	2015_Jun_05_1013	s	s	17	5	SIC	351	ABS	1	1	02VD 02VO 02VC 02MD 10MO 02MC 02RD 02RO	0	1	2.5847401619	None	None	None	None	1
2.7	2015_Jun_05_1013	s	s	17	5	SIC	352	RC	2	1	02VD 09VO 02VC 02MD 02MO 02MC 02RD 02RO	1	0	0.940929889679	-179.0	-149.0	-187	-140	1
2.7	2015_Jun_05_1013	s	s	17	5	SIC	353	ABS	2	1	02VD 10VO 02VC 02MD 02MO 02MC 02RD 02RO	0	1	2.00658202171	None	None	None	None	1
2.7	2015_Jun_05_1013	s	s	17	5	SIC	354	RC	0	2	02VD 02VO 02VC 02MD 02MO 02MC 09RD 02RO	1	0	1.22342896461	538.0	-26.0	539	-27	1
2.7	2015_Jun_05_1013	s	s	17	5	SIC	355	RC	1	0	02VD 02VO 02VC 02MD 02MO 09MC 02RD 02RO	1	0	0.644544839859	66.0	2.0	78	7	1
2.7	2015_Jun_05_1013	s	s	17	5	SIC	356	RC	0	1	02VD 02VO 02VC 02MD 02MO 02MC 02RD 09RO	1	0	1.89443182945	389.0	-236.0	385	-237	1
2.7	2015_Jun_05_1013	s	s	17	5	SIC	357	ABS	2	0	02VD 02VO 10VC 02MD 02MO 02MC 02RD 02RO	0	1	2.46858501434	None	None	None	None	1
2.7	2015_Jun_05_1013	s	s	17	5	SIC	358	RC	1	1	02VD 02VO 02VC 02MD 09MO 02MC 02RD 02RO	1	0	1.7296090126	374.0	-405.0	377	-406	1
2.7	2015_Jun_05_1013	s	s	17	5	SIC	359	RC	2	0	02VD 02VO 09VC 02MD 02MO 02MC 02RD 02RO	1	0	0.69389295578	-332.0	29.0	-337	23	1
2.7	2015_Jun_05_1013	s	s	17	5	SIC	360	ABS	2	2	10VD 02VO 02VC 02MD 02MO 02MC 02RD 02RO	0	1	1.56489300728	None	None	None	None	1
2.7	2015_Jun_05_1013	s	s	17	5	SIC	361	RC	1	2	02VD 02VO 02VC 09MD 02MO 02MC 02RD 02RO	1	0	1.14721393585	308.0	-360.0	311	-362	1
2.7	2015_Jun_05_1013	s	s	17	5	SIC	362	ABS	1	0	02VD 02VO 02VC 02MD 02MO 10MC 02RD 02RO	0	1	2.91631579399	None	None	None	None	1
2.7	2015_Jun_05_1013	s	s	17	5	SIC	363	ABS	1	1	02VD 02VO 02VC 02MD 10MO 02MC 02RD 02RO	0	1	2.17740106583	None	None	None	None	1
2.7	2015_Jun_05_1013	s	s	17	5	SIC	364	RC	2	2	09VD 02VO 02VC 02MD 02MO 02MC 02RD 02RO	1	0	1.55974507332	514.0	395.0	516	404	1
2.7	2015_Jun_05_1013	s	s	17	5	SIC	365	ABS	1	2	02VD 02VO 02VC 10MD 02MO 02MC 02RD 02RO	0	1	2.03568196297	None	None	None	None	1
2.7	2015_Jun_05_1013	s	s	17	5	SIC	366	RC	2	1	02VD 09VO 02VC 02MD 02MO 02MC 02RD 02RO	1	0	1.68256115913	-427.0	-347.0	-435	-351	1
2.7	2015_Jun_05_1013	s	s	17	5	SIC	367	ABS	0	2	02VD 02VO 02VC 02MD 02MO 02MC 10RD 02RO	0	1	2.91361093521	None	None	None	None	1
2.7	2015_Jun_05_1013	s	s	17	5	SIC	368	ABS	0	1	02VD 02VO 02VC 02MD 02MO 02MC 02RD 10RO	0	1	3.21936893463	None	None	None	None	1
2.7	2015_Jun_05_1013	s	s	17	5	SIC	369	ABS	2	1	02VD 10VO 02VC 02MD 02MO 02MC 02RD 02RO	0	1	1.72481298447	None	None	None	None	1
2.7	2015_Jun_05_1013	s	s	17	5	SIC	370	ABS	0	1	02VD 02VO 02VC 02MD 02MO 02MC 02RD 10RO	0	1	4.93978691101	None	None	None	None	1
2.7	2015_Jun_05_1013	s	s	17	5	SIC	371	RC	1	2	02VD 02VO 02VC 09MD 02MO 02MC 02RD 02RO	1	0	0.776209115982	-236.0	240.0	-231	241	1
2.7	2015_Jun_05_1013	s	s	17	5	SIC	372	ABS	1	0	02VD 02VO 02VC 02MD 02MO 10MC 02RD 02RO	0	1	2.86686182022	None	None	None	None	1
2.7	2015_Jun_05_1013	s	s	17	5	SIC	373	ABS	2	2	10VD 02VO 02VC 02MD 02MO 02MC 02RD 02RO	0	1	1.90006613731	None	None	None	None	1
2.7	2015_Jun_05_1013	s	s	17	5	SIC	374	RC	2	0	02VD 02VO 09VC 02MD 02MO 02MC 02RD 02RO	1	0	2.06751012802	-200.0	-253.0	-205	-263	1
2.7	2015_Jun_05_1013	s	s	17	5	SIC	375	RC	2	1	02VD 09VO 02VC 02MD 02MO 02MC 02RD 02RO	1	0	1.12939691544	455.0	345.0	449	345	1
2.7	2015_Jun_05_1013	s	s	17	5	SIC	376	ABS	1	1	02VD 02VO 02VC 02MD 10MO 02MC 02RD 02RO	0	1	2.51573300362	None	None	None	None	1
2.7	2015_Jun_05_1013	s	s	17	5	SIC	377	ABS	2	0	02VD 02VO 10VC 02MD 02MO 02MC 02RD 02RO	0	1	2.17699790001	None	None	None	None	1
2.7	2015_Jun_05_1013	s	s	17	5	SIC	378	RC	0	1	02VD 02VO 02VC 02MD 02MO 02MC 02RD 09RO	1	0	1.05622720718	-177.0	309.0	-169	311	1
2.7	2015_Jun_05_1013	s	s	17	5	SIC	379	RC	2	2	09VD 02VO 02VC 02MD 02MO 02MC 02RD 02RO	1	0	1.44382500648	306.0	237.0	315	234	1
2.7	2015_Jun_05_1013	s	s	17	5	SIC	380	ABS	0	2	02VD 02VO 02VC 02MD 02MO 02MC 10RD 02RO	0	1	2.05908799171	None	None	None	None	1
2.7	2015_Jun_05_1013	s	s	17	5	SIC	381	ABS	1	2	02VD 02VO 02VC 10MD 02MO 02MC 02RD 02RO	0	1	1.7273080349	None	None	None	None	1
2.7	2015_Jun_05_1013	s	s	17	5	SIC	382	RC	0	2	02VD 02VO 02VC 02MD 02MO 02MC 09RD 02RO	1	0	0.948858976364	-86.0	-244.0	-94	-246	1
2.7	2015_Jun_05_1013	s	s	17	5	SIC	383	RC	1	0	02VD 02VO 02VC 02MD 02MO 09MC 02RD 02RO	1	0	1.85419392586	-440.0	-183.0	-435	-182	1
2.7	2015_Jun_05_1013	s	s	17	5	SIC	384	RC	1	1	02VD 02VO 02VC 02MD 09MO 02MC 02RD 02RO	1	0	0.953299999237	314.0	376.0	312	381	1
2.7	2015_Jun_05_1013	s	s	17	5	SIC	385	RC	1	0	02VD 02VO 02VC 02MD 02MO 09MC 02RD 02RO	1	0	1.23911499977	410.0	-46.0	404	-53	1
2.7	2015_Jun_05_1013	s	s	17	5	SIC	386	RC	1	2	02VD 02VO 02VC 09MD 02MO 02MC 02RD 02RO	1	0	1.05876684189	-450.0	-231.0	-443	-234	1
2.7	2015_Jun_05_1013	s	s	17	5	SIC	387	ABS	1	1	02VD 02VO 02VC 02MD 10MO 02MC 02RD 02RO	0	1	1.93545007706	None	None	None	None	1
2.7	2015_Jun_05_1013	s	s	17	5	SIC	388	RC	2	2	09VD 02VO 02VC 02MD 02MO 02MC 02RD 02RO	1	0	1.12427902222	-377.0	322.0	-379	331	1
2.7	2015_Jun_05_1013	s	s	17	5	SIC	389	RC	1	1	02VD 02VO 02VC 02MD 09MO 02MC 02RD 02RO	1	0	0.8115670681	209.0	339.0	200	347	1
2.7	2015_Jun_05_1013	s	s	17	5	SIC	390	ABS	1	2	02VD 02VO 02VC 10MD 02MO 02MC 02RD 02RO	0	1	1.65884709358	None	None	None	None	1
2.7	2015_Jun_05_1013	s	s	17	5	SIC	391	ABS	0	1	02VD 02VO 02VC 02MD 02MO 02MC 02RD 10RO	0	1	3.51607513428	None	None	None	None	1
2.7	2015_Jun_05_1013	s	s	17	5	SIC	392	RC	0	2	02VD 02VO 02VC 02MD 02MO 02MC 09RD 02RO	1	0	1.42991900444	-435.0	-79.0	-440	-88	1
2.7	2015_Jun_05_1013	s	s	17	5	SIC	393	RC	2	1	02VD 09VO 02VC 02MD 02MO 02MC 02RD 02RO	1	0	2.41832184792	-520.0	-52.0	-527	-54	1
2.7	2015_Jun_05_1013	s	s	17	5	SIC	394	RC	0	1	02VD 02VO 02VC 02MD 02MO 02MC 02RD 09RO	1	0	1.25552415848	471.0	221.0	462	228	1
2.7	2015_Jun_05_1013	s	s	17	5	SIC	395	ABS	1	0	02VD 02VO 02VC 02MD 02MO 10MC 02RD 02RO	0	1	3.45991897583	None	None	None	None	1
2.7	2015_Jun_05_1013	s	s	17	5	SIC	396	RC	2	0	02VD 02VO 09VC 02MD 02MO 02MC 02RD 02RO	1	0	1.22978401184	302.0	-366.0	311	-369	1
2.7	2015_Jun_05_1013	s	s	17	5	SIC	397	ABS	2	0	02VD 02VO 10VC 02MD 02MO 02MC 02RD 02RO	0	1	1.58348083496	None	None	None	None	1
2.7	2015_Jun_05_1013	s	s	17	5	SIC	398	ABS	2	2	10VD 02VO 02VC 02MD 02MO 02MC 02RD 02RO	0	1	3.01884007454	None	None	None	None	1
2.7	2015_Jun_05_1013	s	s	17	5	SIC	399	ABS	0	2	02VD 02VO 02VC 02MD 02MO 02MC 10RD 02RO	0	1	2.2773911953	None	None	None	None	1
2.7	2015_Jun_05_1013	s	s	17	5	SIC	400	ABS	2	1	02VD 10VO 02VC 02MD 02MO 02MC 02RD 02RO	0	1	2.37150502205	None	None	None	None	1
2.7	2015_Jun_05_1013	s	s	17	5	SIC	401	ABS	2	2	10VD 02VO 02VC 02MD 02MO 02MC 02RD 02RO	0	1	3.00762605667	None	None	None	None	1
2.7	2015_Jun_05_1013	s	s	17	5	SIC	402	RC	1	2	02VD 02VO 02VC 09MD 02MO 02MC 02RD 02RO	1	0	0.843588113785	137.0	-98.0	121	-88	1
2.7	2015_Jun_05_1013	s	s	17	5	SIC	403	ABS	1	2	02VD 02VO 02VC 10MD 02MO 02MC 02RD 02RO	0	1	2.34182786942	None	None	None	None	1
2.7	2015_Jun_05_1013	s	s	17	5	SIC	404	RC	2	1	02VD 09VO 02VC 02MD 02MO 02MC 02RD 02RO	1	0	1.23535490036	-482.0	382.0	-472	380	1
2.7	2015_Jun_05_1013	s	s	17	5	SIC	405	ABS	1	1	02VD 02VO 02VC 02MD 10MO 02MC 02RD 02RO	0	1	3.50327301025	None	None	None	None	1
2.7	2015_Jun_05_1013	s	s	17	5	SIC	406	ABS	2	1	02VD 10VO 02VC 02MD 02MO 02MC 02RD 02RO	0	1	2.55045390129	None	None	None	None	1
2.7	2015_Jun_05_1013	s	s	17	5	SIC	407	ABS	1	0	02VD 02VO 02VC 02MD 02MO 10MC 02RD 02RO	0	1	3.63638496399	None	None	None	None	1
2.7	2015_Jun_05_1013	s	s	17	5	SIC	408	ABS	0	2	02VD 02VO 02VC 02MD 02MO 02MC 10RD 02RO	0	1	1.92965221405	None	None	None	None	1
2.7	2015_Jun_05_1013	s	s	17	5	SIC	409	ABS	2	0	02VD 02VO 10VC 02MD 02MO 02MC 02RD 02RO	0	1	2.02384209633	None	None	None	None	1
2.7	2015_Jun_05_1013	s	s	17	5	SIC	410	RC	1	0	02VD 02VO 02VC 02MD 02MO 09MC 02RD 02RO	0	1	5.58552408218	-484.0	-212.0	None	None	0
2.7	2015_Jun_05_1013	s	s	17	5	SIC	411	RC	0	2	02VD 02VO 02VC 02MD 02MO 02MC 09RD 02RO	1	0	1.13427591324	255.0	143.0	249	148	1
2.7	2015_Jun_05_1013	s	s	17	5	SIC	412	RC	2	2	09VD 02VO 02VC 02MD 02MO 02MC 02RD 02RO	1	0	1.52959012985	-67.0	-347.0	-61	-350	1
2.7	2015_Jun_05_1013	s	s	17	5	SIC	413	RC	0	1	02VD 02VO 02VC 02MD 02MO 02MC 02RD 09RO	1	0	1.5884180069	-491.0	-407.0	-477	-400	1
2.7	2015_Jun_05_1013	s	s	17	5	SIC	414	RC	2	0	02VD 02VO 09VC 02MD 02MO 02MC 02RD 02RO	1	0	0.900321960449	-520.0	264.0	-528	259	1
2.7	2015_Jun_05_1013	s	s	17	5	SIC	415	ABS	0	1	02VD 02VO 02VC 02MD 02MO 02MC 02RD 10RO	0	1	3.28096008301	None	None	None	None	1
2.7	2015_Jun_05_1013	s	s	17	5	SIC	416	RC	1	1	02VD 02VO 02VC 02MD 09MO 02MC 02RD 02RO	1	0	0.738137960434	162.0	-115.0	162	-118	1
2.7	2015_Jun_05_1013	s	s	17	5	SIC	417	RC	2	2	09VD 02VO 02VC 02MD 02MO 02MC 02RD 02RO	1	0	1.3767619133	-390.0	-226.0	-384	-228	1
2.7	2015_Jun_05_1013	s	s	17	5	SIC	418	ABS	0	2	02VD 02VO 02VC 02MD 02MO 02MC 10RD 02RO	0	1	2.01211309433	None	None	None	None	1
2.7	2015_Jun_05_1013	s	s	17	5	SIC	419	RC	0	2	02VD 02VO 02VC 02MD 02MO 02MC 09RD 02RO	1	0	1.78295707703	225.0	-397.0	218	-397	1
2.7	2015_Jun_05_1013	s	s	17	5	SIC	420	ABS	2	2	10VD 02VO 02VC 02MD 02MO 02MC 02RD 02RO	0	1	2.08929610252	None	None	None	None	1
2.7	2015_Jun_05_1013	s	s	17	5	SIC	421	RC	1	1	02VD 02VO 02VC 02MD 09MO 02MC 02RD 02RO	1	0	1.43540501595	-503.0	398.0	-492	406	1
2.7	2015_Jun_05_1013	s	s	17	5	SIC	422	ABS	2	0	02VD 02VO 10VC 02MD 02MO 02MC 02RD 02RO	0	1	2.14889502525	None	None	None	None	1
2.7	2015_Jun_05_1013	s	s	17	5	SIC	423	RC	2	1	02VD 09VO 02VC 02MD 02MO 02MC 02RD 02RO	1	0	0.596223831177	107.0	28.0	95	36	1
2.7	2015_Jun_05_1013	s	s	17	5	SIC	424	RC	2	0	02VD 02VO 09VC 02MD 02MO 02MC 02RD 02RO	1	0	1.2188270092	70.0	-394.0	77	-396	1
2.7	2015_Jun_05_1013	s	s	17	5	SIC	425	ABS	2	1	02VD 10VO 02VC 02MD 02MO 02MC 02RD 02RO	0	1	1.84732818604	None	None	None	None	1
2.7	2015_Jun_05_1013	s	s	17	5	SIC	426	ABS	1	2	02VD 02VO 02VC 10MD 02MO 02MC 02RD 02RO	0	1	2.27846884727	None	None	None	None	1
2.7	2015_Jun_05_1013	s	s	17	5	SIC	427	ABS	1	1	02VD 02VO 02VC 02MD 10MO 02MC 02RD 02RO	0	1	3.61282396317	None	None	None	None	1
2.7	2015_Jun_05_1013	s	s	17	5	SIC	428	RC	0	1	02VD 02VO 02VC 02MD 02MO 02MC 02RD 09RO	1	0	1.10579204559	451.0	317.0	448	313	1
2.7	2015_Jun_05_1013	s	s	17	5	SIC	429	RC	1	2	02VD 02VO 02VC 09MD 02MO 02MC 02RD 02RO	1	0	2.21851682663	-146.0	-397.0	-147	-388	1
2.7	2015_Jun_05_1013	s	s	17	5	SIC	430	RC	1	0	02VD 02VO 02VC 02MD 02MO 09MC 02RD 02RO	1	0	1.17311215401	204.0	-47.0	212	-46	1
2.7	2015_Jun_05_1013	s	s	17	5	SIC	431	ABS	0	1	02VD 02VO 02VC 02MD 02MO 02MC 02RD 10RO	0	1	2.7771999836	None	None	None	None	1
2.7	2015_Jun_05_1013	s	s	17	5	SIC	432	ABS	1	0	02VD 02VO 02VC 02MD 02MO 10MC 02RD 02RO	0	1	3.99649119377	None	None	None	None	1
2.7	2015_Jun_05_1013	s	s	17	5	SIC	433	RC	0	2	02VD 02VO 02VC 02MD 02MO 02MC 09RD 02RO	1	0	1.48245501518	-356.0	51.0	-361	59	1
2.7	2015_Jun_05_1013	s	s	17	5	SIC	434	ABS	0	1	02VD 02VO 02VC 02MD 02MO 02MC 02RD 10RO	0	1	3.68332314491	None	None	None	None	1
2.7	2015_Jun_05_1013	s	s	17	5	SIC	435	RC	2	2	09VD 02VO 02VC 02MD 02MO 02MC 02RD 02RO	1	0	1.13814520836	391.0	-116.0	385	-113	1
2.7	2015_Jun_05_1013	s	s	17	5	SIC	436	RC	2	1	02VD 09VO 02VC 02MD 02MO 02MC 02RD 02RO	1	0	1.54125285149	-231.0	-116.0	-238	-120	1
2.7	2015_Jun_05_1013	s	s	17	5	SIC	437	ABS	1	2	02VD 02VO 02VC 10MD 02MO 02MC 02RD 02RO	0	1	3.04497385025	None	None	None	None	1
2.7	2015_Jun_05_1013	s	s	17	5	SIC	438	RC	1	0	02VD 02VO 02VC 02MD 02MO 09MC 02RD 02RO	1	0	0.917306900024	160.0	257.0	155	251	1
2.7	2015_Jun_05_1013	s	s	17	5	SIC	439	RC	2	0	02VD 02VO 09VC 02MD 02MO 02MC 02RD 02RO	1	0	0.882077932358	-21.0	317.0	-19	316	1
2.7	2015_Jun_05_1013	s	s	17	5	SIC	440	ABS	2	0	02VD 02VO 10VC 02MD 02MO 02MC 02RD 02RO	0	1	4.18414115906	None	None	None	None	1
2.7	2015_Jun_05_1013	s	s	17	5	SIC	441	RC	0	1	02VD 02VO 02VC 02MD 02MO 02MC 02RD 09RO	1	0	2.76355814934	344.0	14.0	334	13	1
2.7	2015_Jun_05_1013	s	s	17	5	SIC	442	ABS	2	2	10VD 02VO 02VC 02MD 02MO 02MC 02RD 02RO	0	1	2.865858078	None	None	None	None	1
2.7	2015_Jun_05_1013	s	s	17	5	SIC	443	ABS	1	0	02VD 02VO 02VC 02MD 02MO 10MC 02RD 02RO	0	1	1.81909799576	None	None	None	None	1
2.7	2015_Jun_05_1013	s	s	17	5	SIC	444	ABS	2	1	02VD 10VO 02VC 02MD 02MO 02MC 02RD 02RO	0	1	2.35349011421	None	None	None	None	1
2.7	2015_Jun_05_1013	s	s	17	5	SIC	445	RC	1	1	02VD 02VO 02VC 02MD 09MO 02MC 02RD 02RO	1	0	1.43141102791	480.0	293.0	474	300	1
2.7	2015_Jun_05_1013	s	s	17	5	SIC	446	ABS	1	1	02VD 02VO 02VC 02MD 10MO 02MC 02RD 02RO	0	1	2.33848118782	None	None	None	None	1
2.7	2015_Jun_05_1013	s	s	17	5	SIC	447	RC	1	2	02VD 02VO 02VC 09MD 02MO 02MC 02RD 02RO	1	0	0.576132059097	-6.0	60.0	-4	49	1
2.7	2015_Jun_05_1013	s	s	17	5	SIC	448	ABS	0	2	02VD 02VO 02VC 02MD 02MO 02MC 10RD 02RO	0	1	1.78867816925	None	None	None	None	1
2.7	2015_Jun_05_1013	s	s	17	5	SIC	449	ABS	2	1	02VD 10VO 02VC 02MD 02MO 02MC 02RD 02RO	0	1	2.15330505371	None	None	None	None	1
2.7	2015_Jun_05_1013	s	s	17	5	SIC	450	ABS	0	2	02VD 02VO 02VC 02MD 02MO 02MC 10RD 02RO	0	1	1.76214599609	None	None	None	None	1
2.7	2015_Jun_05_1013	s	s	17	5	SIC	451	RC	2	2	09VD 02VO 02VC 02MD 02MO 02MC 02RD 02RO	1	0	0.629472970963	32.0	27.0	33	25	1
2.7	2015_Jun_05_1013	s	s	17	5	SIC	452	RC	1	0	02VD 02VO 02VC 02MD 02MO 09MC 02RD 02RO	1	0	1.25871992111	91.0	-317.0	102	-316	1
2.7	2015_Jun_05_1013	s	s	17	5	SIC	453	ABS	1	2	02VD 02VO 02VC 10MD 02MO 02MC 02RD 02RO	0	1	1.62374711037	None	None	None	None	1
2.7	2015_Jun_05_1013	s	s	17	5	SIC	454	ABS	2	2	10VD 02VO 02VC 02MD 02MO 02MC 02RD 02RO	0	1	1.94841718674	None	None	None	None	1
2.7	2015_Jun_05_1013	s	s	17	5	SIC	455	RC	1	1	02VD 02VO 02VC 02MD 09MO 02MC 02RD 02RO	1	0	1.25390005112	-241.0	-118.0	-232	-113	1
2.7	2015_Jun_05_1013	s	s	17	5	SIC	456	RC	2	1	02VD 09VO 02VC 02MD 02MO 02MC 02RD 02RO	1	0	0.903481960297	-365.0	188.0	-362	190	1
2.7	2015_Jun_05_1013	s	s	17	5	SIC	457	ABS	2	0	02VD 02VO 10VC 02MD 02MO 02MC 02RD 02RO	0	1	2.46657204628	None	None	None	None	1
2.7	2015_Jun_05_1013	s	s	17	5	SIC	458	RC	2	0	02VD 02VO 09VC 02MD 02MO 02MC 02RD 02RO	1	0	0.866041898727	-78.0	-173.0	-71	-164	1
2.7	2015_Jun_05_1013	s	s	17	5	SIC	459	RC	0	1	02VD 02VO 02VC 02MD 02MO 02MC 02RD 09RO	1	0	2.73966908455	487.0	-12.0	474	-9	1
2.7	2015_Jun_05_1013	s	s	17	5	SIC	460	RC	0	2	02VD 02VO 02VC 02MD 02MO 02MC 09RD 02RO	1	0	0.905673980713	353.0	131.0	344	133	1
2.7	2015_Jun_05_1013	s	s	17	5	SIC	461	ABS	0	1	02VD 02VO 02VC 02MD 02MO 02MC 02RD 10RO	0	1	3.18687820435	None	None	None	None	1
2.7	2015_Jun_05_1013	s	s	17	5	SIC	462	ABS	1	0	02VD 02VO 02VC 02MD 02MO 10MC 02RD 02RO	0	1	1.9604511261	None	None	None	None	1
2.7	2015_Jun_05_1013	s	s	17	5	SIC	463	ABS	1	1	02VD 02VO 02VC 02MD 10MO 02MC 02RD 02RO	1	0	1.05855417252	None	None	493	-345	0
2.7	2015_Jun_05_1013	s	s	17	5	SIC	464	RC	1	2	02VD 02VO 02VC 09MD 02MO 02MC 02RD 02RO	1	0	1.08686089516	-46.0	199.0	-48	204	1
2.7	2015_Jun_05_1013	s	s	17	5	SIC	465	ABS	1	2	02VD 02VO 02VC 10MD 02MO 02MC 02RD 02RO	0	1	1.51767897606	None	None	None	None	1
2.7	2015_Jun_05_1013	s	s	17	5	SIC	466	ABS	2	2	10VD 02VO 02VC 02MD 02MO 02MC 02RD 02RO	0	1	1.60006594658	None	None	None	None	1
2.7	2015_Jun_05_1013	s	s	17	5	SIC	467	RC	1	1	02VD 02VO 02VC 02MD 09MO 02MC 02RD 02RO	1	0	1.23047304153	-272.0	124.0	-273	115	1
2.7	2015_Jun_05_1013	s	s	17	5	SIC	468	RC	2	1	02VD 09VO 02VC 02MD 02MO 02MC 02RD 02RO	1	0	1.0181889534	537.0	35.0	539	35	1
2.7	2015_Jun_05_1013	s	s	17	5	SIC	469	RC	0	2	02VD 02VO 02VC 02MD 02MO 02MC 09RD 02RO	1	0	0.84127497673	431.0	158.0	433	146	1
2.7	2015_Jun_05_1013	s	s	17	5	SIC	470	RC	2	0	02VD 02VO 09VC 02MD 02MO 02MC 02RD 02RO	1	0	0.628679990768	-265.0	227.0	-258	232	1
2.7	2015_Jun_05_1013	s	s	17	5	SIC	471	RC	0	1	02VD 02VO 02VC 02MD 02MO 02MC 02RD 09RO	1	0	0.893919944763	159.0	375.0	158	372	1
2.7	2015_Jun_05_1013	s	s	17	5	SIC	472	RC	2	2	09VD 02VO 02VC 02MD 02MO 02MC 02RD 02RO	1	0	0.60653090477	-111.0	190.0	-116	189	1
2.7	2015_Jun_05_1013	s	s	17	5	SIC	473	ABS	2	1	02VD 10VO 02VC 02MD 02MO 02MC 02RD 02RO	0	1	2.68294215202	None	None	None	None	1
2.7	2015_Jun_05_1013	s	s	17	5	SIC	474	ABS	0	2	02VD 02VO 02VC 02MD 02MO 02MC 10RD 02RO	0	1	2.05955886841	None	None	None	None	1
2.7	2015_Jun_05_1013	s	s	17	5	SIC	475	ABS	2	0	02VD 02VO 10VC 02MD 02MO 02MC 02RD 02RO	0	1	1.95332384109	None	None	None	None	1
2.7	2015_Jun_05_1013	s	s	17	5	SIC	476	ABS	1	0	02VD 02VO 02VC 02MD 02MO 10MC 02RD 02RO	0	1	3.60821413994	None	None	None	None	1
2.7	2015_Jun_05_1013	s	s	17	5	SIC	477	RC	1	0	02VD 02VO 02VC 02MD 02MO 09MC 02RD 02RO	1	0	2.42793107033	112.0	-376.0	112	-373	1
2.7	2015_Jun_05_1013	s	s	17	5	SIC	478	ABS	0	1	02VD 02VO 02VC 02MD 02MO 02MC 02RD 10RO	0	1	3.42468881607	None	None	None	None	1
2.7	2015_Jun_05_1013	s	s	17	5	SIC	479	RC	1	2	02VD 02VO 02VC 09MD 02MO 02MC 02RD 02RO	1	0	1.38328480721	-458.0	184.0	-462	176	1
2.7	2015_Jun_05_1013	s	s	17	5	SIC	480	ABS	1	1	02VD 02VO 02VC 02MD 10MO 02MC 02RD 02RO	0	1	3.05462598801	None	None	None	None	1
