Version	Date	Stimuli	Method	Subject	Session	Condition	Trial	Target	Channel1	Channel2	Distractors	LMouseButton	RMouseButton	RT	TargetX	TargetY	ResponseX	ResponseY	Correct
2.7	2015_Jun_04_1446	s	s	20	4	Capacity	1	ABS	2	0	16VC 08MC	0	1	2.27799892426	None	None	None	None	1
2.7	2015_Jun_04_1446	s	s	20	4	Capacity	2	RC	2	0	15VC 08MC	1	0	1.54814100266	136.0	110.0	135	105	1
2.7	2015_Jun_04_1446	s	s	20	4	Capacity	3	ABS	1	0	08VC 16MC	0	1	2.54216814041	None	None	None	None	1
2.7	2015_Jun_04_1446	s	s	20	4	Capacity	4	RC	1	0	08VC 15MC	1	0	1.16464304924	299.0	210.0	307	213	1
2.7	2015_Jun_04_1446	s	s	20	4	Capacity	5	RC	1	0	08VC 15MC	1	0	1.87783408165	348.0	75.0	351	72	1
2.7	2015_Jun_04_1446	s	s	20	4	Capacity	6	ABS	1	0	08VC 16MC	0	1	3.82038092613	None	None	None	None	1
2.7	2015_Jun_04_1446	s	s	20	4	Capacity	7	RC	2	0	15VC 08MC	1	0	0.787971019745	-326.0	-275.0	-326	-273	1
2.7	2015_Jun_04_1446	s	s	20	4	Capacity	8	ABS	2	0	16VC 08MC	1	0	2.50653100014	None	None	-285	340	0
2.7	2015_Jun_04_1446	s	s	20	4	Capacity	9	ABS	1	0	08VC 16MC	0	1	3.8954269886	None	None	None	None	1
2.7	2015_Jun_04_1446	s	s	20	4	Capacity	10	RC	1	0	08VC 15MC	1	0	0.489016771317	-162.0	-30.0	-159	-36	1
2.7	2015_Jun_04_1446	s	s	20	4	Capacity	11	ABS	2	0	16VC 08MC	0	1	2.04739117622	None	None	None	None	1
2.7	2015_Jun_04_1446	s	s	20	4	Capacity	12	RC	2	0	15VC 08MC	1	0	0.736989974976	34.0	-287.0	39	-281	1
2.7	2015_Jun_04_1446	s	s	20	4	Capacity	13	RC	1	0	08VC 15MC	1	0	1.10134100914	218.0	140.0	211	147	1
2.7	2015_Jun_04_1446	s	s	20	4	Capacity	14	RC	2	0	15VC 08MC	1	0	1.47739601135	-238.0	-78.0	-232	-76	1
2.7	2015_Jun_04_1446	s	s	20	4	Capacity	15	ABS	1	0	08VC 16MC	0	1	3.44810819626	None	None	None	None	1
2.7	2015_Jun_04_1446	s	s	20	4	Capacity	16	ABS	2	0	16VC 08MC	0	1	2.31814098358	None	None	None	None	1
2.7	2015_Jun_04_1446	s	s	20	4	Capacity	17	RC	2	0	15VC 08MC	1	0	0.759552955627	163.0	-145.0	169	-146	1
2.7	2015_Jun_04_1446	s	s	20	4	Capacity	18	ABS	2	0	16VC 08MC	0	1	3.21280217171	None	None	None	None	1
2.7	2015_Jun_04_1446	s	s	20	4	Capacity	19	ABS	1	0	08VC 16MC	0	1	3.59631705284	None	None	None	None	1
2.7	2015_Jun_04_1446	s	s	20	4	Capacity	20	RC	1	0	08VC 15MC	1	0	0.705528020859	484.0	289.0	484	291	1
2.7	2015_Jun_04_1446	s	s	20	4	Capacity	21	ABS	1	0	08VC 16MC	0	1	3.18445897102	None	None	None	None	1
2.7	2015_Jun_04_1446	s	s	20	4	Capacity	22	RC	1	0	08VC 15MC	1	0	0.71203494072	-92.0	290.0	-90	295	1
2.7	2015_Jun_04_1446	s	s	20	4	Capacity	23	ABS	2	0	16VC 08MC	0	1	3.38923883438	None	None	None	None	1
2.7	2015_Jun_04_1446	s	s	20	4	Capacity	24	RC	2	0	15VC 08MC	1	0	0.723315000534	-259.0	-177.0	-253	-184	1
2.7	2015_Jun_04_1446	s	s	20	4	Capacity	25	RC	2	0	15VC 08MC	1	0	0.772011995316	-74.0	-335.0	-70	-330	1
2.7	2015_Jun_04_1446	s	s	20	4	Capacity	26	RC	1	0	08VC 15MC	0	1	2.51832199097	-211.0	394.0	None	None	0
2.7	2015_Jun_04_1446	s	s	20	4	Capacity	27	ABS	1	0	08VC 16MC	0	1	3.04794597626	None	None	None	None	1
2.7	2015_Jun_04_1446	s	s	20	4	Capacity	28	ABS	2	0	16VC 08MC	0	1	2.57204890251	None	None	None	None	1
2.7	2015_Jun_04_1446	s	s	20	4	Capacity	29	ABS	2	0	16VC 08MC	0	1	2.39364981651	None	None	None	None	1
2.7	2015_Jun_04_1446	s	s	20	4	Capacity	30	RC	2	0	15VC 08MC	1	0	0.535778999329	-203.0	345.0	-214	345	1
2.7	2015_Jun_04_1446	s	s	20	4	Capacity	31	ABS	1	0	08VC 16MC	0	1	2.51827502251	None	None	None	None	1
2.7	2015_Jun_04_1446	s	s	20	4	Capacity	32	RC	1	0	08VC 15MC	1	0	0.594683885574	143.0	239.0	136	237	1
2.7	2015_Jun_04_1446	s	s	20	4	Capacity	33	RC	2	0	15VC 08MC	1	0	0.5408411026	-228.0	-331.0	-230	-335	1
2.7	2015_Jun_04_1446	s	s	20	4	Capacity	34	ABS	2	0	16VC 08MC	0	1	2.62423992157	None	None	None	None	1
2.7	2015_Jun_04_1446	s	s	20	4	Capacity	35	ABS	1	0	08VC 16MC	0	1	2.44319701195	None	None	None	None	1
2.7	2015_Jun_04_1446	s	s	20	4	Capacity	36	RC	1	0	08VC 15MC	1	0	0.679589986801	77.0	74.0	83	73	1
2.7	2015_Jun_04_1446	s	s	20	4	Capacity	37	ABS	2	0	16VC 08MC	0	1	2.07793307304	None	None	None	None	1
2.7	2015_Jun_04_1446	s	s	20	4	Capacity	38	RC	1	0	08VC 15MC	1	0	0.653392076492	-74.0	-306.0	-71	-306	1
2.7	2015_Jun_04_1446	s	s	20	4	Capacity	39	RC	2	0	15VC 08MC	1	0	0.771423101425	283.0	141.0	277	144	1
2.7	2015_Jun_04_1446	s	s	20	4	Capacity	40	ABS	1	0	08VC 16MC	0	1	4.36629700661	None	None	None	None	1
2.7	2015_Jun_04_1446	s	s	20	4	Capacity	41	ABS	1	0	08VC 16MC	0	1	2.37698197365	None	None	None	None	1
2.7	2015_Jun_04_1446	s	s	20	4	Capacity	42	ABS	2	0	16VC 08MC	0	1	3.13972306252	None	None	None	None	1
2.7	2015_Jun_04_1446	s	s	20	4	Capacity	43	RC	2	0	15VC 08MC	1	0	1.61195516586	-85.0	240.0	-85	246	1
2.7	2015_Jun_04_1446	s	s	20	4	Capacity	44	RC	1	0	08VC 15MC	1	0	1.28239798546	464.0	336.0	469	344	1
2.7	2015_Jun_04_1446	s	s	20	4	Capacity	45	ABS	1	0	08VC 16MC	0	1	3.60119199753	None	None	None	None	1
2.7	2015_Jun_04_1446	s	s	20	4	Capacity	46	ABS	2	0	16VC 08MC	0	1	1.64208197594	None	None	None	None	1
2.7	2015_Jun_04_1446	s	s	20	4	Capacity	47	RC	1	0	08VC 15MC	0	1	3.37798690796	394.0	405.0	None	None	0
2.7	2015_Jun_04_1446	s	s	20	4	Capacity	48	RC	2	0	15VC 08MC	1	0	0.67781496048	187.0	-66.0	193	-68	1
2.7	2015_Jun_04_1446	s	s	20	4	Capacity	49	RC	1	0	08VC 15MC	1	0	0.712291002274	512.0	285.0	507	280	1
2.7	2015_Jun_04_1446	s	s	20	4	Capacity	50	RC	2	0	15VC 08MC	1	0	0.505488872528	457.0	336.0	458	343	1
2.7	2015_Jun_04_1446	s	s	20	4	Capacity	51	ABS	2	0	16VC 08MC	0	1	1.6773519516	None	None	None	None	1
2.7	2015_Jun_04_1446	s	s	20	4	Capacity	52	ABS	1	0	08VC 16MC	0	1	2.04744410515	None	None	None	None	1
2.7	2015_Jun_04_1446	s	s	20	4	Capacity	53	RC	1	0	08VC 15MC	1	0	0.629930019379	-434.0	-101.0	-429	-99	1
2.7	2015_Jun_04_1446	s	s	20	4	Capacity	54	ABS	1	0	08VC 16MC	0	1	2.51836705208	None	None	None	None	1
2.7	2015_Jun_04_1446	s	s	20	4	Capacity	55	RC	2	0	15VC 08MC	1	0	0.540767908096	268.0	161.0	271	156	1
2.7	2015_Jun_04_1446	s	s	20	4	Capacity	56	ABS	2	0	16VC 08MC	0	1	0.976279973984	None	None	None	None	1
2.7	2015_Jun_04_1446	s	s	20	4	Capacity	57	ABS	2	0	16VC 08MC	0	1	1.97123098373	None	None	None	None	1
2.7	2015_Jun_04_1446	s	s	20	4	Capacity	58	RC	2	0	15VC 08MC	1	0	0.594240903854	114.0	215.0	115	210	1
2.7	2015_Jun_04_1446	s	s	20	4	Capacity	59	RC	1	0	08VC 15MC	1	0	1.71790504456	465.0	360.0	466	363	1
2.7	2015_Jun_04_1446	s	s	20	4	Capacity	60	ABS	1	0	08VC 16MC	0	1	3.97780203819	None	None	None	None	1
2.7	2015_Jun_04_1446	s	s	20	4	Capacity	61	ABS	1	0	08VC 16MC	0	1	3.95429706573	None	None	None	None	1
2.7	2015_Jun_04_1446	s	s	20	4	Capacity	62	RC	1	0	08VC 15MC	1	0	0.653645992279	148.0	-343.0	146	-353	1
2.7	2015_Jun_04_1446	s	s	20	4	Capacity	63	ABS	2	0	16VC 08MC	0	1	2.17205286026	None	None	None	None	1
2.7	2015_Jun_04_1446	s	s	20	4	Capacity	64	RC	2	0	15VC 08MC	1	0	13.4359579086	334.0	-405.0	331	-403	1
2.7	2015_Jun_04_1446	s	s	20	4	Capacity	1	RC	0	2	15RD 08RO	1	0	1.06551098824	98.0	94.0	97	99	1
2.7	2015_Jun_04_1446	s	s	20	4	Capacity	2	RC	0	1	08RD 15RO	1	0	1.45381999016	478.0	-381.0	475	-388	1
2.7	2015_Jun_04_1446	s	s	20	4	Capacity	3	ABS	0	1	08RD 16RO	0	1	3.88102507591	None	None	None	None	1
2.7	2015_Jun_04_1446	s	s	20	4	Capacity	4	ABS	0	2	16RD 08RO	0	1	2.67847108841	None	None	None	None	1
2.7	2015_Jun_04_1446	s	s	20	4	Capacity	5	RC	0	1	08RD 15RO	1	0	2.47103905678	9.0	294.0	3	300	1
2.7	2015_Jun_04_1446	s	s	20	4	Capacity	6	ABS	0	1	08RD 16RO	0	1	4.26696014404	None	None	None	None	1
2.7	2015_Jun_04_1446	s	s	20	4	Capacity	7	RC	0	2	15RD 08RO	1	0	0.806298971176	-153.0	-157.0	-141	-148	1
2.7	2015_Jun_04_1446	s	s	20	4	Capacity	8	ABS	0	2	16RD 08RO	0	1	2.82097101212	None	None	None	None	1
2.7	2015_Jun_04_1446	s	s	20	4	Capacity	9	ABS	0	2	16RD 08RO	0	1	2.31304907799	None	None	None	None	1
2.7	2015_Jun_04_1446	s	s	20	4	Capacity	10	ABS	0	1	08RD 16RO	0	1	5.67276096344	None	None	None	None	1
2.7	2015_Jun_04_1446	s	s	20	4	Capacity	11	RC	0	1	08RD 15RO	1	0	1.13600182533	-349.0	129.0	-345	138	1
2.7	2015_Jun_04_1446	s	s	20	4	Capacity	12	RC	0	2	15RD 08RO	1	0	0.976356983185	194.0	-295.0	200	-299	1
2.7	2015_Jun_04_1446	s	s	20	4	Capacity	13	ABS	0	1	08RD 16RO	0	1	6.61096906662	None	None	None	None	1
2.7	2015_Jun_04_1446	s	s	20	4	Capacity	14	RC	0	1	08RD 15RO	1	0	2.86785006523	-109.0	284.0	-112	288	1
2.7	2015_Jun_04_1446	s	s	20	4	Capacity	15	ABS	0	2	16RD 08RO	0	1	2.43097710609	None	None	None	None	1
2.7	2015_Jun_04_1446	s	s	20	4	Capacity	16	RC	0	2	15RD 08RO	1	0	1.02341389656	-222.0	396.0	-222	405	1
2.7	2015_Jun_04_1446	s	s	20	4	Capacity	17	ABS	0	2	16RD 08RO	0	1	3.37775802612	None	None	None	None	1
2.7	2015_Jun_04_1446	s	s	20	4	Capacity	18	ABS	0	1	08RD 16RO	0	1	5.06764602661	None	None	None	None	1
2.7	2015_Jun_04_1446	s	s	20	4	Capacity	19	RC	0	2	15RD 08RO	1	0	1.95928382874	-501.0	48.0	-492	44	1
2.7	2015_Jun_04_1446	s	s	20	4	Capacity	20	RC	0	1	08RD 15RO	1	0	4.27208614349	-93.0	-321.0	-98	-330	1
2.7	2015_Jun_04_1446	s	s	20	4	Capacity	21	RC	0	1	08RD 15RO	1	0	3.11354207993	-72.0	345.0	-73	342	1
2.7	2015_Jun_04_1446	s	s	20	4	Capacity	22	RC	0	2	15RD 08RO	1	0	2.25928592682	-511.0	-22.0	-513	-24	1
2.7	2015_Jun_04_1446	s	s	20	4	Capacity	23	ABS	0	1	08RD 16RO	0	1	6.0494389534	None	None	None	None	1
2.7	2015_Jun_04_1446	s	s	20	4	Capacity	24	ABS	0	2	16RD 08RO	0	1	3.71392798424	None	None	None	None	1
2.7	2015_Jun_04_1446	s	s	20	4	Capacity	25	ABS	0	2	16RD 08RO	0	1	3.32778501511	None	None	None	None	1
2.7	2015_Jun_04_1446	s	s	20	4	Capacity	26	ABS	0	1	08RD 16RO	0	1	7.1508769989	None	None	None	None	1
2.7	2015_Jun_04_1446	s	s	20	4	Capacity	27	RC	0	2	15RD 08RO	1	0	1.12444996834	-411.0	-321.0	-408	-326	1
2.7	2015_Jun_04_1446	s	s	20	4	Capacity	28	RC	0	1	08RD 15RO	1	0	1.16461014748	409.0	168.0	417	163	1
2.7	2015_Jun_04_1446	s	s	20	4	Capacity	29	ABS	0	2	16RD 08RO	0	1	2.88049292564	None	None	None	None	1
2.7	2015_Jun_04_1446	s	s	20	4	Capacity	30	RC	0	2	15RD 08RO	1	0	1.11260294914	-18.0	-112.0	-14	-112	1
2.7	2015_Jun_04_1446	s	s	20	4	Capacity	31	RC	0	1	08RD 15RO	1	0	2.17105197906	243.0	252.0	237	256	1
2.7	2015_Jun_04_1446	s	s	20	4	Capacity	32	ABS	0	1	08RD 16RO	0	1	6.37387490273	None	None	None	None	1
2.7	2015_Jun_04_1446	s	s	20	4	Capacity	33	ABS	0	1	08RD 16RO	0	1	6.4736020565	None	None	None	None	1
2.7	2015_Jun_04_1446	s	s	20	4	Capacity	34	RC	0	1	08RD 15RO	1	0	4.869546175	108.0	-29.0	113	-29	1
2.7	2015_Jun_04_1446	s	s	20	4	Capacity	35	ABS	0	2	16RD 08RO	0	1	3.53695678711	None	None	None	None	1
2.7	2015_Jun_04_1446	s	s	20	4	Capacity	36	RC	0	2	15RD 08RO	1	0	3.60122799873	-193.0	304.0	-189	300	1
2.7	2015_Jun_04_1446	s	s	20	4	Capacity	37	ABS	0	1	08RD 16RO	0	1	9.49814796448	None	None	None	None	1
2.7	2015_Jun_04_1446	s	s	20	4	Capacity	38	ABS	0	2	16RD 08RO	0	1	3.70710706711	None	None	None	None	1
2.7	2015_Jun_04_1446	s	s	20	4	Capacity	39	RC	0	1	08RD 15RO	1	0	2.42951607704	-75.0	377.0	-79	385	1
2.7	2015_Jun_04_1446	s	s	20	4	Capacity	40	RC	0	2	15RD 08RO	1	0	0.682092905045	-184.0	16.0	-187	15	1
2.7	2015_Jun_04_1446	s	s	20	4	Capacity	41	RC	0	1	08RD 15RO	1	0	2.42411184311	-364.0	356.0	-370	362	1
2.7	2015_Jun_04_1446	s	s	20	4	Capacity	42	ABS	0	2	16RD 08RO	0	1	2.14883995056	None	None	None	None	1
2.7	2015_Jun_04_1446	s	s	20	4	Capacity	43	RC	0	2	15RD 08RO	1	0	0.587926149368	104.0	24.0	106	16	1
2.7	2015_Jun_04_1446	s	s	20	4	Capacity	44	ABS	0	1	08RD 16RO	0	1	6.06765699387	None	None	None	None	1
2.7	2015_Jun_04_1446	s	s	20	4	Capacity	45	ABS	0	1	08RD 16RO	0	1	5.7621679306	None	None	None	None	1
2.7	2015_Jun_04_1446	s	s	20	4	Capacity	46	RC	0	1	08RD 15RO	1	0	3.78363800049	-401.0	-283.0	-401	-288	1
2.7	2015_Jun_04_1446	s	s	20	4	Capacity	47	ABS	0	2	16RD 08RO	0	1	3.47170591354	None	None	None	None	1
2.7	2015_Jun_04_1446	s	s	20	4	Capacity	48	RC	0	2	15RD 08RO	1	0	0.890724182129	127.0	-66.0	132	-70	1
2.7	2015_Jun_04_1446	s	s	20	4	Capacity	49	RC	0	1	08RD 15RO	1	0	0.88217997551	-119.0	-180.0	-129	-172	1
2.7	2015_Jun_04_1446	s	s	20	4	Capacity	50	ABS	0	2	16RD 08RO	0	1	3.43682098389	None	None	None	None	1
2.7	2015_Jun_04_1446	s	s	20	4	Capacity	51	ABS	0	1	08RD 16RO	0	1	5.49167895317	None	None	None	None	1
2.7	2015_Jun_04_1446	s	s	20	4	Capacity	52	RC	0	2	15RD 08RO	1	0	0.97308588028	-67.0	-124.0	-67	-120	1
2.7	2015_Jun_04_1446	s	s	20	4	Capacity	53	ABS	0	2	16RD 08RO	0	1	5.76698303223	None	None	None	None	1
2.7	2015_Jun_04_1446	s	s	20	4	Capacity	54	ABS	0	1	08RD 16RO	0	1	8.27410101891	None	None	None	None	1
2.7	2015_Jun_04_1446	s	s	20	4	Capacity	55	RC	0	1	08RD 15RO	1	0	0.794772148132	-340.0	87.0	-341	91	1
2.7	2015_Jun_04_1446	s	s	20	4	Capacity	56	RC	0	2	15RD 08RO	1	0	1.21761107445	-529.0	-253.0	-516	-250	1
2.7	2015_Jun_04_1446	s	s	20	4	Capacity	57	ABS	0	1	08RD 16RO	0	1	8.15077996254	None	None	None	None	1
2.7	2015_Jun_04_1446	s	s	20	4	Capacity	58	ABS	0	2	16RD 08RO	0	1	6.02600002289	None	None	None	None	1
2.7	2015_Jun_04_1446	s	s	20	4	Capacity	59	RC	0	2	15RD 08RO	1	0	2.56541013718	505.0	-111.0	511	-117	1
2.7	2015_Jun_04_1446	s	s	20	4	Capacity	60	RC	0	1	08RD 15RO	1	0	2.2474629879	-26.0	-159.0	-29	-159	1
2.7	2015_Jun_04_1446	s	s	20	4	Capacity	61	ABS	0	1	08RD 16RO	0	1	9.62766194344	None	None	None	None	1
2.7	2015_Jun_04_1446	s	s	20	4	Capacity	62	RC	0	2	15RD 08RO	1	0	0.611457109451	32.0	80.0	40	83	1
2.7	2015_Jun_04_1446	s	s	20	4	Capacity	63	ABS	0	2	16RD 08RO	0	1	4.84892892838	None	None	None	None	1
2.7	2015_Jun_04_1446	s	s	20	4	Capacity	64	RC	0	1	08RD 15RO	1	0	1.4795460701	-338.0	252.0	-336	246	1
2.7	2015_Jun_04_1446	s	s	20	4	SIC	1	ABS	2	0	02VD 02VO 10VC 02MD 02MO 02MC 02RD 02RO	0	1	2.5182518959	None	None	None	None	1
2.7	2015_Jun_04_1446	s	s	20	4	SIC	2	RC	0	1	02VD 02VO 02VC 02MD 02MO 02MC 02RD 09RO	1	0	1.69034290314	466.0	102.0	467	103	1
2.7	2015_Jun_04_1446	s	s	20	4	SIC	3	ABS	0	1	02VD 02VO 02VC 02MD 02MO 02MC 02RD 10RO	0	1	7.93019795418	None	None	None	None	1
2.7	2015_Jun_04_1446	s	s	20	4	SIC	4	ABS	0	2	02VD 02VO 02VC 02MD 02MO 02MC 10RD 02RO	0	1	5.02177286148	None	None	None	None	1
2.7	2015_Jun_04_1446	s	s	20	4	SIC	5	RC	0	2	02VD 02VO 02VC 02MD 02MO 02MC 09RD 02RO	1	0	4.03677892685	328.0	-353.0	332	-364	1
2.7	2015_Jun_04_1446	s	s	20	4	SIC	6	RC	2	2	09VD 02VO 02VC 02MD 02MO 02MC 02RD 02RO	1	0	3.11366200447	-181.0	-248.0	-183	-254	1
2.7	2015_Jun_04_1446	s	s	20	4	SIC	7	RC	1	0	02VD 02VO 02VC 02MD 02MO 09MC 02RD 02RO	1	0	4.84565520287	-112.0	-158.0	-109	-162	1
2.7	2015_Jun_04_1446	s	s	20	4	SIC	8	RC	2	1	02VD 09VO 02VC 02MD 02MO 02MC 02RD 02RO	1	0	4.05696511269	267.0	-226.0	271	-224	1
2.7	2015_Jun_04_1446	s	s	20	4	SIC	9	ABS	1	1	02VD 02VO 02VC 02MD 10MO 02MC 02RD 02RO	0	0	-1	None	None	None	None	-1
2.7	2015_Jun_04_1446	s	s	20	4	SIC	10	ABS	1	2	02VD 02VO 02VC 10MD 02MO 02MC 02RD 02RO	0	1	3.21268200874	None	None	None	None	1
2.7	2015_Jun_04_1446	s	s	20	4	SIC	11	ABS	1	0	02VD 02VO 02VC 02MD 02MO 10MC 02RD 02RO	0	1	3.01929807663	None	None	None	None	1
2.7	2015_Jun_04_1446	s	s	20	4	SIC	12	ABS	2	1	02VD 10VO 02VC 02MD 02MO 02MC 02RD 02RO	0	1	3.60839080811	None	None	None	None	1
2.7	2015_Jun_04_1446	s	s	20	4	SIC	13	RC	2	0	02VD 02VO 09VC 02MD 02MO 02MC 02RD 02RO	1	0	2.09221506119	268.0	-371.0	262	-368	1
2.7	2015_Jun_04_1446	s	s	20	4	SIC	14	RC	1	1	02VD 02VO 02VC 02MD 09MO 02MC 02RD 02RO	1	0	2.49219202995	332.0	225.0	327	226	1
2.7	2015_Jun_04_1446	s	s	20	4	SIC	15	ABS	2	2	10VD 02VO 02VC 02MD 02MO 02MC 02RD 02RO	0	1	3.63130998611	None	None	None	None	1
2.7	2015_Jun_04_1446	s	s	20	4	SIC	16	RC	1	2	02VD 02VO 02VC 09MD 02MO 02MC 02RD 02RO	1	0	2.23086214066	-331.0	116.0	-330	106	1
2.7	2015_Jun_04_1446	s	s	20	4	SIC	17	RC	2	0	02VD 02VO 09VC 02MD 02MO 02MC 02RD 02RO	1	0	2.02391910553	81.0	261.0	91	264	1
2.7	2015_Jun_04_1446	s	s	20	4	SIC	18	ABS	2	2	10VD 02VO 02VC 02MD 02MO 02MC 02RD 02RO	0	1	3.8012650013	None	None	None	None	1
2.7	2015_Jun_04_1446	s	s	20	4	SIC	19	ABS	2	0	02VD 02VO 10VC 02MD 02MO 02MC 02RD 02RO	0	1	2.94935107231	None	None	None	None	1
2.7	2015_Jun_04_1446	s	s	20	4	SIC	20	RC	2	1	02VD 09VO 02VC 02MD 02MO 02MC 02RD 02RO	1	0	1.41865706444	403.0	-151.0	401	-154	1
2.7	2015_Jun_04_1446	s	s	20	4	SIC	21	RC	1	1	02VD 02VO 02VC 02MD 09MO 02MC 02RD 02RO	1	0	1.38825416565	170.0	-290.0	169	-302	1
2.7	2015_Jun_04_1446	s	s	20	4	SIC	22	ABS	0	1	02VD 02VO 02VC 02MD 02MO 02MC 02RD 10RO	0	1	5.35036492348	None	None	None	None	1
2.7	2015_Jun_04_1446	s	s	20	4	SIC	23	ABS	0	2	02VD 02VO 02VC 02MD 02MO 02MC 10RD 02RO	0	1	3.51419401169	None	None	None	None	1
2.7	2015_Jun_04_1446	s	s	20	4	SIC	24	ABS	1	1	02VD 02VO 02VC 02MD 10MO 02MC 02RD 02RO	0	1	4.0070040226	None	None	None	None	1
2.7	2015_Jun_04_1446	s	s	20	4	SIC	25	RC	0	2	02VD 02VO 02VC 02MD 02MO 02MC 09RD 02RO	1	0	1.1411459446	64.0	128.0	61	118	1
2.7	2015_Jun_04_1446	s	s	20	4	SIC	26	RC	1	0	02VD 02VO 02VC 02MD 02MO 09MC 02RD 02RO	1	0	2.78411197662	-24.0	-306.0	-31	-299	1
2.7	2015_Jun_04_1446	s	s	20	4	SIC	27	ABS	2	1	02VD 10VO 02VC 02MD 02MO 02MC 02RD 02RO	0	1	5.01363611221	None	None	None	None	1
2.7	2015_Jun_04_1446	s	s	20	4	SIC	28	RC	1	2	02VD 02VO 02VC 09MD 02MO 02MC 02RD 02RO	1	0	2.03567886353	420.0	-278.0	416	-274	1
2.7	2015_Jun_04_1446	s	s	20	4	SIC	29	RC	0	1	02VD 02VO 02VC 02MD 02MO 02MC 02RD 09RO	1	0	1.67083883286	-19.0	-66.0	-30	-56	1
2.7	2015_Jun_04_1446	s	s	20	4	SIC	30	ABS	1	2	02VD 02VO 02VC 10MD 02MO 02MC 02RD 02RO	0	1	3.60120487213	None	None	None	None	1
2.7	2015_Jun_04_1446	s	s	20	4	SIC	31	ABS	1	0	02VD 02VO 02VC 02MD 02MO 10MC 02RD 02RO	0	1	9.6983590126	None	None	None	None	1
2.7	2015_Jun_04_1446	s	s	20	4	SIC	32	RC	2	2	09VD 02VO 02VC 02MD 02MO 02MC 02RD 02RO	1	0	1.24235391617	484.0	-288.0	480	-295	1
2.7	2015_Jun_04_1446	s	s	20	4	SIC	33	RC	2	0	02VD 02VO 09VC 02MD 02MO 02MC 02RD 02RO	1	0	1.06562495232	474.0	-118.0	469	-117	1
2.7	2015_Jun_04_1446	s	s	20	4	SIC	34	ABS	0	2	02VD 02VO 02VC 02MD 02MO 02MC 10RD 02RO	0	1	3.07188391685	None	None	None	None	1
2.7	2015_Jun_04_1446	s	s	20	4	SIC	35	RC	1	1	02VD 02VO 02VC 02MD 09MO 02MC 02RD 02RO	1	0	1.70605802536	286.0	179.0	285	185	1
2.7	2015_Jun_04_1446	s	s	20	4	SIC	36	ABS	1	2	02VD 02VO 02VC 10MD 02MO 02MC 02RD 02RO	0	1	4.60168290138	None	None	None	None	1
2.7	2015_Jun_04_1446	s	s	20	4	SIC	37	RC	2	1	02VD 09VO 02VC 02MD 02MO 02MC 02RD 02RO	1	0	2.34173297882	-114.0	-300.0	-117	-308	1
2.7	2015_Jun_04_1446	s	s	20	4	SIC	38	ABS	2	2	10VD 02VO 02VC 02MD 02MO 02MC 02RD 02RO	0	1	4.02487921715	None	None	None	None	1
2.7	2015_Jun_04_1446	s	s	20	4	SIC	39	ABS	2	0	02VD 02VO 10VC 02MD 02MO 02MC 02RD 02RO	0	1	9.52182888985	None	None	None	None	1
2.7	2015_Jun_04_1446	s	s	20	4	SIC	40	ABS	2	1	02VD 10VO 02VC 02MD 02MO 02MC 02RD 02RO	0	1	4.42026615143	None	None	None	None	1
2.7	2015_Jun_04_1446	s	s	20	4	SIC	41	RC	1	2	02VD 02VO 02VC 09MD 02MO 02MC 02RD 02RO	1	0	3.93774390221	400.0	-351.0	399	-364	1
2.7	2015_Jun_04_1446	s	s	20	4	SIC	42	ABS	1	0	02VD 02VO 02VC 02MD 02MO 10MC 02RD 02RO	0	1	6.16715502739	None	None	None	None	1
2.7	2015_Jun_04_1446	s	s	20	4	SIC	43	ABS	1	1	02VD 02VO 02VC 02MD 10MO 02MC 02RD 02RO	0	1	6.47354197502	None	None	None	None	1
2.7	2015_Jun_04_1446	s	s	20	4	SIC	44	ABS	0	1	02VD 02VO 02VC 02MD 02MO 02MC 02RD 10RO	0	1	7.19123506546	None	None	None	None	1
2.7	2015_Jun_04_1446	s	s	20	4	SIC	45	RC	2	2	09VD 02VO 02VC 02MD 02MO 02MC 02RD 02RO	1	0	1.61197209358	514.0	-380.0	516	-385	1
2.7	2015_Jun_04_1446	s	s	20	4	SIC	46	RC	0	1	02VD 02VO 02VC 02MD 02MO 02MC 02RD 09RO	1	0	0.787974119186	84.0	61.0	85	51	1
2.7	2015_Jun_04_1446	s	s	20	4	SIC	47	RC	1	0	02VD 02VO 02VC 02MD 02MO 09MC 02RD 02RO	1	0	0.960453033447	286.0	321.0	293	314	1
2.7	2015_Jun_04_1446	s	s	20	4	SIC	48	RC	0	2	02VD 02VO 02VC 02MD 02MO 02MC 09RD 02RO	1	0	0.693822860718	-254.0	49.0	-253	39	1
2.7	2015_Jun_04_1446	s	s	20	4	SIC	49	RC	2	1	02VD 09VO 02VC 02MD 02MO 02MC 02RD 02RO	1	0	2.09116292	-368.0	351.0	-370	350	1
2.7	2015_Jun_04_1446	s	s	20	4	SIC	50	RC	0	2	02VD 02VO 02VC 02MD 02MO 02MC 09RD 02RO	1	0	2.93720889091	-509.0	-349.0	-514	-360	1
2.7	2015_Jun_04_1446	s	s	20	4	SIC	51	ABS	1	0	02VD 02VO 02VC 02MD 02MO 10MC 02RD 02RO	0	1	3.77763319016	None	None	None	None	1
2.7	2015_Jun_04_1446	s	s	20	4	SIC	52	RC	1	1	02VD 02VO 02VC 02MD 09MO 02MC 02RD 02RO	1	0	1.2186191082	-337.0	34.0	-329	30	1
2.7	2015_Jun_04_1446	s	s	20	4	SIC	53	ABS	1	1	02VD 02VO 02VC 02MD 10MO 02MC 02RD 02RO	0	1	5.36674809456	None	None	None	None	1
2.7	2015_Jun_04_1446	s	s	20	4	SIC	54	RC	0	1	02VD 02VO 02VC 02MD 02MO 02MC 02RD 09RO	1	0	3.37252020836	487.0	-105.0	483	-118	1
2.7	2015_Jun_04_1446	s	s	20	4	SIC	55	ABS	2	1	02VD 10VO 02VC 02MD 02MO 02MC 02RD 02RO	0	1	8.88618302345	None	None	None	None	1
2.7	2015_Jun_04_1446	s	s	20	4	SIC	56	ABS	1	2	02VD 02VO 02VC 10MD 02MO 02MC 02RD 02RO	0	1	3.97785615921	None	None	None	None	1
2.7	2015_Jun_04_1446	s	s	20	4	SIC	57	RC	1	0	02VD 02VO 02VC 02MD 02MO 09MC 02RD 02RO	1	0	1.2706079483	19.0	-76.0	29	-68	1
2.7	2015_Jun_04_1446	s	s	20	4	SIC	58	ABS	2	0	02VD 02VO 10VC 02MD 02MO 02MC 02RD 02RO	0	1	2.45932912827	None	None	None	None	1
2.7	2015_Jun_04_1446	s	s	20	4	SIC	59	RC	2	2	09VD 02VO 02VC 02MD 02MO 02MC 02RD 02RO	1	0	0.654233932495	-194.0	-82.0	-198	-77	1
2.7	2015_Jun_04_1446	s	s	20	4	SIC	60	ABS	2	2	10VD 02VO 02VC 02MD 02MO 02MC 02RD 02RO	0	1	2.33532810211	None	None	None	None	1
2.7	2015_Jun_04_1446	s	s	20	4	SIC	61	RC	2	0	02VD 02VO 09VC 02MD 02MO 02MC 02RD 02RO	1	0	1.0469391346	66.0	167.0	70	163	1
2.7	2015_Jun_04_1446	s	s	20	4	SIC	62	RC	1	2	02VD 02VO 02VC 09MD 02MO 02MC 02RD 02RO	1	0	0.517136096954	-16.0	89.0	-15	78	1
2.7	2015_Jun_04_1446	s	s	20	4	SIC	63	ABS	0	1	02VD 02VO 02VC 02MD 02MO 02MC 02RD 10RO	0	1	4.05539894104	None	None	None	None	1
2.7	2015_Jun_04_1446	s	s	20	4	SIC	64	ABS	0	2	02VD 02VO 02VC 02MD 02MO 02MC 10RD 02RO	0	1	2.40907597542	None	None	None	None	1
2.7	2015_Jun_04_1446	s	s	20	4	SIC	65	RC	1	1	02VD 02VO 02VC 02MD 09MO 02MC 02RD 02RO	1	0	1.5495300293	513.0	-237.0	518	-232	1
2.7	2015_Jun_04_1446	s	s	20	4	SIC	66	ABS	2	2	10VD 02VO 02VC 02MD 02MO 02MC 02RD 02RO	0	1	3.54981803894	None	None	None	None	1
2.7	2015_Jun_04_1446	s	s	20	4	SIC	67	RC	2	2	09VD 02VO 02VC 02MD 02MO 02MC 02RD 02RO	1	0	0.893979072571	175.0	-27.0	183	-18	1
2.7	2015_Jun_04_1446	s	s	20	4	SIC	68	RC	0	1	02VD 02VO 02VC 02MD 02MO 02MC 02RD 09RO	1	0	0.762158155441	-8.0	-302.0	-1	-299	1
2.7	2015_Jun_04_1446	s	s	20	4	SIC	69	ABS	1	1	02VD 02VO 02VC 02MD 10MO 02MC 02RD 02RO	0	1	5.46766710281	None	None	None	None	1
2.7	2015_Jun_04_1446	s	s	20	4	SIC	70	ABS	2	0	02VD 02VO 10VC 02MD 02MO 02MC 02RD 02RO	0	1	2.16005992889	None	None	None	None	1
2.7	2015_Jun_04_1446	s	s	20	4	SIC	71	RC	2	0	02VD 02VO 09VC 02MD 02MO 02MC 02RD 02RO	1	0	1.20701408386	411.0	-193.0	408	-187	1
2.7	2015_Jun_04_1446	s	s	20	4	SIC	72	ABS	2	1	02VD 10VO 02VC 02MD 02MO 02MC 02RD 02RO	0	1	2.48297715187	None	None	None	None	1
2.7	2015_Jun_04_1446	s	s	20	4	SIC	73	RC	1	2	02VD 02VO 02VC 09MD 02MO 02MC 02RD 02RO	1	0	1.43294095993	343.0	140.0	338	133	1
2.7	2015_Jun_04_1446	s	s	20	4	SIC	74	ABS	1	2	02VD 02VO 02VC 10MD 02MO 02MC 02RD 02RO	0	1	3.35419511795	None	None	None	None	1
2.7	2015_Jun_04_1446	s	s	20	4	SIC	75	RC	0	2	02VD 02VO 02VC 02MD 02MO 02MC 09RD 02RO	1	0	0.867233037949	-46.0	-240.0	-46	-235	1
2.7	2015_Jun_04_1446	s	s	20	4	SIC	76	ABS	0	2	02VD 02VO 02VC 02MD 02MO 02MC 10RD 02RO	0	1	3.60794615746	None	None	None	None	1
2.7	2015_Jun_04_1446	s	s	20	4	SIC	77	ABS	1	0	02VD 02VO 02VC 02MD 02MO 10MC 02RD 02RO	0	1	11.5547060966	None	None	None	None	1
2.7	2015_Jun_04_1446	s	s	20	4	SIC	78	RC	2	1	02VD 09VO 02VC 02MD 02MO 02MC 02RD 02RO	1	0	1.44313693047	155.0	354.0	160	347	1
2.7	2015_Jun_04_1446	s	s	20	4	SIC	79	ABS	0	1	02VD 02VO 02VC 02MD 02MO 02MC 02RD 10RO	0	1	8.8624560833	None	None	None	None	1
2.7	2015_Jun_04_1446	s	s	20	4	SIC	80	RC	1	0	02VD 02VO 02VC 02MD 02MO 09MC 02RD 02RO	1	0	1.71491503716	284.0	180.0	283	176	1
2.7	2015_Jun_04_1446	s	s	20	4	SIC	81	RC	1	1	02VD 02VO 02VC 02MD 09MO 02MC 02RD 02RO	1	0	1.03543591499	223.0	-32.0	222	-35	1
2.7	2015_Jun_04_1446	s	s	20	4	SIC	82	ABS	2	0	02VD 02VO 10VC 02MD 02MO 02MC 02RD 02RO	0	1	2.47702002525	None	None	None	None	1
2.7	2015_Jun_04_1446	s	s	20	4	SIC	83	ABS	1	2	02VD 02VO 02VC 10MD 02MO 02MC 02RD 02RO	0	1	2.42406582832	None	None	None	None	1
2.7	2015_Jun_04_1446	s	s	20	4	SIC	84	ABS	0	2	02VD 02VO 02VC 02MD 02MO 02MC 10RD 02RO	0	1	2.30124187469	None	None	None	None	1
2.7	2015_Jun_04_1446	s	s	20	4	SIC	85	RC	2	2	09VD 02VO 02VC 02MD 02MO 02MC 02RD 02RO	1	0	1.08228492737	-407.0	204.0	-404	207	1
2.7	2015_Jun_04_1446	s	s	20	4	SIC	86	RC	1	0	02VD 02VO 02VC 02MD 02MO 09MC 02RD 02RO	1	0	0.722749233246	-239.0	82.0	-243	89	1
2.7	2015_Jun_04_1446	s	s	20	4	SIC	87	RC	0	1	02VD 02VO 02VC 02MD 02MO 02MC 02RD 09RO	1	0	1.02337288857	297.0	-351.0	310	-346	1
2.7	2015_Jun_04_1446	s	s	20	4	SIC	88	ABS	1	0	02VD 02VO 02VC 02MD 02MO 10MC 02RD 02RO	0	1	2.60949492455	None	None	None	None	1
2.7	2015_Jun_04_1446	s	s	20	4	SIC	89	ABS	0	1	02VD 02VO 02VC 02MD 02MO 02MC 02RD 10RO	0	1	4.41376399994	None	None	None	None	1
2.7	2015_Jun_04_1446	s	s	20	4	SIC	90	ABS	1	1	02VD 02VO 02VC 02MD 10MO 02MC 02RD 02RO	0	1	3.24306702614	None	None	None	None	1
2.7	2015_Jun_04_1446	s	s	20	4	SIC	91	ABS	2	2	10VD 02VO 02VC 02MD 02MO 02MC 02RD 02RO	0	1	1.92496585846	None	None	None	None	1
2.7	2015_Jun_04_1446	s	s	20	4	SIC	92	ABS	2	1	02VD 10VO 02VC 02MD 02MO 02MC 02RD 02RO	0	1	2.35972905159	None	None	None	None	1
2.7	2015_Jun_04_1446	s	s	20	4	SIC	93	RC	1	2	02VD 02VO 02VC 09MD 02MO 02MC 02RD 02RO	1	0	1.70102190971	-75.0	308.0	-72	299	1
2.7	2015_Jun_04_1446	s	s	20	4	SIC	94	RC	0	2	02VD 02VO 02VC 02MD 02MO 02MC 09RD 02RO	1	0	1.03080606461	234.0	355.0	234	348	1
2.7	2015_Jun_04_1446	s	s	20	4	SIC	95	RC	2	1	02VD 09VO 02VC 02MD 02MO 02MC 02RD 02RO	1	0	1.50101280212	-134.0	-122.0	-139	-129	1
2.7	2015_Jun_04_1446	s	s	20	4	SIC	96	RC	2	0	02VD 02VO 09VC 02MD 02MO 02MC 02RD 02RO	1	0	1.32437396049	-65.0	276.0	-64	270	1
2.7	2015_Jun_04_1446	s	s	20	4	SIC	97	ABS	0	2	02VD 02VO 02VC 02MD 02MO 02MC 10RD 02RO	0	1	4.28390288353	None	None	None	None	1
2.7	2015_Jun_04_1446	s	s	20	4	SIC	98	RC	0	2	02VD 02VO 02VC 02MD 02MO 02MC 09RD 02RO	1	0	2.79823493958	297.0	149.0	303	145	1
2.7	2015_Jun_04_1446	s	s	20	4	SIC	99	RC	1	2	02VD 02VO 02VC 09MD 02MO 02MC 02RD 02RO	1	0	2.04741716385	-456.0	199.0	-458	192	1
2.7	2015_Jun_04_1446	s	s	20	4	SIC	100	RC	0	1	02VD 02VO 02VC 02MD 02MO 02MC 02RD 09RO	1	0	0.890683174133	-337.0	34.0	-339	36	1
2.7	2015_Jun_04_1446	s	s	20	4	SIC	101	RC	1	0	02VD 02VO 02VC 02MD 02MO 09MC 02RD 02RO	1	0	1.88266301155	-313.0	-200.0	-305	-197	1
2.7	2015_Jun_04_1446	s	s	20	4	SIC	102	RC	1	1	02VD 02VO 02VC 02MD 09MO 02MC 02RD 02RO	1	0	2.32190585136	-518.0	-237.0	-533	-231	1
2.7	2015_Jun_04_1446	s	s	20	4	SIC	103	ABS	2	1	02VD 10VO 02VC 02MD 02MO 02MC 02RD 02RO	0	1	2.18064689636	None	None	None	None	1
2.7	2015_Jun_04_1446	s	s	20	4	SIC	104	RC	2	2	09VD 02VO 02VC 02MD 02MO 02MC 02RD 02RO	1	0	0.658501148224	-92.0	132.0	-96	140	1
2.7	2015_Jun_04_1446	s	s	20	4	SIC	105	ABS	2	0	02VD 02VO 10VC 02MD 02MO 02MC 02RD 02RO	0	1	1.67077708244	None	None	None	None	1
2.7	2015_Jun_04_1446	s	s	20	4	SIC	106	RC	2	0	02VD 02VO 09VC 02MD 02MO 02MC 02RD 02RO	1	0	1.18349099159	-468.0	264.0	-465	253	1
2.7	2015_Jun_04_1446	s	s	20	4	SIC	107	ABS	2	2	10VD 02VO 02VC 02MD 02MO 02MC 02RD 02RO	1	0	1.52956199646	None	None	501	39	0
2.7	2015_Jun_04_1446	s	s	20	4	SIC	108	ABS	1	1	02VD 02VO 02VC 02MD 10MO 02MC 02RD 02RO	0	1	1.90623092651	None	None	None	None	1
2.7	2015_Jun_04_1446	s	s	20	4	SIC	109	ABS	1	2	02VD 02VO 02VC 10MD 02MO 02MC 02RD 02RO	0	1	2.212236166	None	None	None	None	1
2.7	2015_Jun_04_1446	s	s	20	4	SIC	110	ABS	0	1	02VD 02VO 02VC 02MD 02MO 02MC 02RD 10RO	0	1	3.50705695152	None	None	None	None	1
2.7	2015_Jun_04_1446	s	s	20	4	SIC	111	ABS	1	0	02VD 02VO 02VC 02MD 02MO 10MC 02RD 02RO	0	1	2.42453193665	None	None	None	None	1
2.7	2015_Jun_04_1446	s	s	20	4	SIC	112	RC	2	1	02VD 09VO 02VC 02MD 02MO 02MC 02RD 02RO	1	0	1.1361758709	434.0	331.0	433	335	1
2.7	2015_Jun_04_1446	s	s	20	4	SIC	113	RC	2	1	02VD 09VO 02VC 02MD 02MO 02MC 02RD 02RO	1	0	1.30262899399	463.0	-67.0	455	-61	1
2.7	2015_Jun_04_1446	s	s	20	4	SIC	114	ABS	1	2	02VD 02VO 02VC 10MD 02MO 02MC 02RD 02RO	0	1	1.5008699894	None	None	None	None	1
2.7	2015_Jun_04_1446	s	s	20	4	SIC	115	RC	2	0	02VD 02VO 09VC 02MD 02MO 02MC 02RD 02RO	1	0	0.853775978088	-257.0	-16.0	-263	-13	1
2.7	2015_Jun_04_1446	s	s	20	4	SIC	116	RC	1	1	02VD 02VO 02VC 02MD 09MO 02MC 02RD 02RO	1	0	1.72960186005	-457.0	178.0	-461	180	1
2.7	2015_Jun_04_1446	s	s	20	4	SIC	117	ABS	2	2	10VD 02VO 02VC 02MD 02MO 02MC 02RD 02RO	0	1	1.19994091988	None	None	None	None	1
2.7	2015_Jun_04_1446	s	s	20	4	SIC	118	RC	0	2	02VD 02VO 02VC 02MD 02MO 02MC 09RD 02RO	1	0	0.737415075302	-20.0	70.0	-16	76	1
2.7	2015_Jun_04_1446	s	s	20	4	SIC	119	RC	1	2	02VD 02VO 02VC 09MD 02MO 02MC 02RD 02RO	0	1	1.68251204491	-328.0	369.0	None	None	0
2.7	2015_Jun_04_1446	s	s	20	4	SIC	120	ABS	2	1	02VD 10VO 02VC 02MD 02MO 02MC 02RD 02RO	0	1	2.40724301338	None	None	None	None	1
2.7	2015_Jun_04_1446	s	s	20	4	SIC	121	ABS	1	1	02VD 02VO 02VC 02MD 10MO 02MC 02RD 02RO	0	1	3.14878296852	None	None	None	None	1
2.7	2015_Jun_04_1446	s	s	20	4	SIC	122	RC	0	1	02VD 02VO 02VC 02MD 02MO 02MC 02RD 09RO	1	0	1.98365807533	414.0	316.0	406	314	1
2.7	2015_Jun_04_1446	s	s	20	4	SIC	123	ABS	1	0	02VD 02VO 02VC 02MD 02MO 10MC 02RD 02RO	0	1	3.94250893593	None	None	None	None	1
2.7	2015_Jun_04_1446	s	s	20	4	SIC	124	RC	2	2	09VD 02VO 02VC 02MD 02MO 02MC 02RD 02RO	1	0	0.594691038132	-269.0	-128.0	-268	-127	1
2.7	2015_Jun_04_1446	s	s	20	4	SIC	125	ABS	0	2	02VD 02VO 02VC 02MD 02MO 02MC 10RD 02RO	0	1	2.30169487	None	None	None	None	1
2.7	2015_Jun_04_1446	s	s	20	4	SIC	126	ABS	0	1	02VD 02VO 02VC 02MD 02MO 02MC 02RD 10RO	0	1	5.50800514221	None	None	None	None	1
2.7	2015_Jun_04_1446	s	s	20	4	SIC	127	RC	1	0	02VD 02VO 02VC 02MD 02MO 09MC 02RD 02RO	1	0	1.11759901047	123.0	338.0	115	337	1
2.7	2015_Jun_04_1446	s	s	20	4	SIC	128	ABS	2	0	02VD 02VO 10VC 02MD 02MO 02MC 02RD 02RO	0	1	1.81200909615	None	None	None	None	1
2.7	2015_Jun_04_1446	s	s	20	4	SIC	129	RC	1	0	02VD 02VO 02VC 02MD 02MO 09MC 02RD 02RO	1	0	1.26570987701	237.0	-9.0	245	-8	1
2.7	2015_Jun_04_1446	s	s	20	4	SIC	130	ABS	1	2	02VD 02VO 02VC 10MD 02MO 02MC 02RD 02RO	0	1	2.12469887733	None	None	None	None	1
2.7	2015_Jun_04_1446	s	s	20	4	SIC	131	RC	0	1	02VD 02VO 02VC 02MD 02MO 02MC 02RD 09RO	1	0	1.15291500092	515.0	-15.0	507	-10	1
2.7	2015_Jun_04_1446	s	s	20	4	SIC	132	ABS	2	1	02VD 10VO 02VC 02MD 02MO 02MC 02RD 02RO	0	1	2.91481804848	None	None	None	None	1
2.7	2015_Jun_04_1446	s	s	20	4	SIC	133	RC	1	2	02VD 02VO 02VC 09MD 02MO 02MC 02RD 02RO	1	0	2.04742288589	515.0	-348.0	505	-342	1
2.7	2015_Jun_04_1446	s	s	20	4	SIC	134	ABS	2	2	10VD 02VO 02VC 02MD 02MO 02MC 02RD 02RO	0	1	2.28955483437	None	None	None	None	1
2.7	2015_Jun_04_1446	s	s	20	4	SIC	135	ABS	1	0	02VD 02VO 02VC 02MD 02MO 10MC 02RD 02RO	0	1	3.913189888	None	None	None	None	1
2.7	2015_Jun_04_1446	s	s	20	4	SIC	136	ABS	0	2	02VD 02VO 02VC 02MD 02MO 02MC 10RD 02RO	0	1	2.21228289604	None	None	None	None	1
2.7	2015_Jun_04_1446	s	s	20	4	SIC	137	RC	0	2	02VD 02VO 02VC 02MD 02MO 02MC 09RD 02RO	1	0	2.30160498619	-435.0	-400.0	-426	-401	1
2.7	2015_Jun_04_1446	s	s	20	4	SIC	138	RC	2	1	02VD 09VO 02VC 02MD 02MO 02MC 02RD 02RO	1	0	0.846801996231	230.0	-208.0	229	-209	1
2.7	2015_Jun_04_1446	s	s	20	4	SIC	139	ABS	1	1	02VD 02VO 02VC 02MD 10MO 02MC 02RD 02RO	0	1	3.69042897224	None	None	None	None	1
2.7	2015_Jun_04_1446	s	s	20	4	SIC	140	RC	1	1	02VD 02VO 02VC 02MD 09MO 02MC 02RD 02RO	1	0	1.17133021355	88.0	-396.0	86	-395	1
2.7	2015_Jun_04_1446	s	s	20	4	SIC	141	ABS	0	1	02VD 02VO 02VC 02MD 02MO 02MC 02RD 10RO	0	1	4.04845690727	None	None	None	None	1
2.7	2015_Jun_04_1446	s	s	20	4	SIC	142	ABS	2	0	02VD 02VO 10VC 02MD 02MO 02MC 02RD 02RO	0	1	1.92520213127	None	None	None	None	1
2.7	2015_Jun_04_1446	s	s	20	4	SIC	143	RC	2	2	09VD 02VO 02VC 02MD 02MO 02MC 02RD 02RO	1	0	1.24708008766	328.0	287.0	322	283	1
2.7	2015_Jun_04_1446	s	s	20	4	SIC	144	RC	2	0	02VD 02VO 09VC 02MD 02MO 02MC 02RD 02RO	1	0	1.65902495384	333.0	104.0	332	114	1
2.7	2015_Jun_04_1446	s	s	20	4	SIC	145	RC	2	0	02VD 02VO 09VC 02MD 02MO 02MC 02RD 02RO	1	0	0.481966972351	311.0	87.0	314	90	1
2.7	2015_Jun_04_1446	s	s	20	4	SIC	146	RC	0	2	02VD 02VO 02VC 02MD 02MO 02MC 09RD 02RO	1	0	1.10583996773	428.0	-33.0	433	-40	1
2.7	2015_Jun_04_1446	s	s	20	4	SIC	147	ABS	2	0	02VD 02VO 10VC 02MD 02MO 02MC 02RD 02RO	0	1	2.31812596321	None	None	None	None	1
2.7	2015_Jun_04_1446	s	s	20	4	SIC	148	ABS	2	2	10VD 02VO 02VC 02MD 02MO 02MC 02RD 02RO	0	1	1.84745597839	None	None	None	None	1
2.7	2015_Jun_04_1446	s	s	20	4	SIC	149	RC	2	2	09VD 02VO 02VC 02MD 02MO 02MC 02RD 02RO	1	0	1.51763892174	-528.0	-242.0	-526	-243	1
2.7	2015_Jun_04_1446	s	s	20	4	SIC	150	RC	1	1	02VD 02VO 02VC 02MD 09MO 02MC 02RD 02RO	1	0	0.764516115189	-334.0	363.0	-346	365	1
2.7	2015_Jun_04_1446	s	s	20	4	SIC	151	RC	2	1	02VD 09VO 02VC 02MD 02MO 02MC 02RD 02RO	1	0	2.12659502029	-190.0	-334.0	-184	-328	1
2.7	2015_Jun_04_1446	s	s	20	4	SIC	152	RC	0	1	02VD 02VO 02VC 02MD 02MO 02MC 02RD 09RO	1	0	0.994856834412	125.0	273.0	126	278	1
2.7	2015_Jun_04_1446	s	s	20	4	SIC	153	ABS	2	1	02VD 10VO 02VC 02MD 02MO 02MC 02RD 02RO	0	1	2.16513395309	None	None	None	None	1
2.7	2015_Jun_04_1446	s	s	20	4	SIC	154	RC	1	0	02VD 02VO 02VC 02MD 02MO 09MC 02RD 02RO	1	0	0.576164960861	-101.0	-47.0	-106	-40	1
2.7	2015_Jun_04_1446	s	s	20	4	SIC	155	ABS	0	1	02VD 02VO 02VC 02MD 02MO 02MC 02RD 10RO	0	1	4.64385104179	None	None	None	None	1
2.7	2015_Jun_04_1446	s	s	20	4	SIC	156	RC	1	2	02VD 02VO 02VC 09MD 02MO 02MC 02RD 02RO	1	0	1.2588300705	389.0	272.0	378	279	1
2.7	2015_Jun_04_1446	s	s	20	4	SIC	157	ABS	1	0	02VD 02VO 02VC 02MD 02MO 10MC 02RD 02RO	0	1	3.24313902855	None	None	None	None	1
2.7	2015_Jun_04_1446	s	s	20	4	SIC	158	ABS	1	2	02VD 02VO 02VC 10MD 02MO 02MC 02RD 02RO	0	1	2.79813885689	None	None	None	None	1
2.7	2015_Jun_04_1446	s	s	20	4	SIC	159	ABS	1	1	02VD 02VO 02VC 02MD 10MO 02MC 02RD 02RO	0	1	2.62423396111	None	None	None	None	1
2.7	2015_Jun_04_1446	s	s	20	4	SIC	160	ABS	0	2	02VD 02VO 02VC 02MD 02MO 02MC 10RD 02RO	0	1	2.23572397232	None	None	None	None	1
2.7	2015_Jun_04_1446	s	s	20	4	SIC	161	RC	2	1	02VD 09VO 02VC 02MD 02MO 02MC 02RD 02RO	1	0	0.655604124069	157.0	-228.0	162	-232	1
2.7	2015_Jun_04_1446	s	s	20	4	SIC	162	RC	2	0	02VD 02VO 09VC 02MD 02MO 02MC 02RD 02RO	1	0	0.803477048874	-247.0	238.0	-254	244	1
2.7	2015_Jun_04_1446	s	s	20	4	SIC	163	RC	0	2	02VD 02VO 02VC 02MD 02MO 02MC 09RD 02RO	1	0	1.48913693428	470.0	169.0	472	173	1
2.7	2015_Jun_04_1446	s	s	20	4	SIC	164	ABS	2	0	02VD 02VO 10VC 02MD 02MO 02MC 02RD 02RO	0	1	1.84245109558	None	None	None	None	1
2.7	2015_Jun_04_1446	s	s	20	4	SIC	165	ABS	0	1	02VD 02VO 02VC 02MD 02MO 02MC 02RD 10RO	0	1	5.04917311668	None	None	None	None	1
2.7	2015_Jun_04_1446	s	s	20	4	SIC	166	ABS	1	0	02VD 02VO 02VC 02MD 02MO 10MC 02RD 02RO	0	1	6.13932585716	None	None	None	None	1
2.7	2015_Jun_04_1446	s	s	20	4	SIC	167	RC	1	1	02VD 02VO 02VC 02MD 09MO 02MC 02RD 02RO	1	0	1.08231306076	-430.0	209.0	-436	216	1
2.7	2015_Jun_04_1446	s	s	20	4	SIC	168	RC	0	1	02VD 02VO 02VC 02MD 02MO 02MC 02RD 09RO	1	0	1.14113497734	-537.0	-191.0	-538	-191	1
2.7	2015_Jun_04_1446	s	s	20	4	SIC	169	ABS	1	1	02VD 02VO 02VC 02MD 10MO 02MC 02RD 02RO	0	1	4.35477995872	None	None	None	None	1
2.7	2015_Jun_04_1446	s	s	20	4	SIC	170	RC	2	2	09VD 02VO 02VC 02MD 02MO 02MC 02RD 02RO	1	0	1.15958690643	-463.0	-14.0	-461	-10	1
2.7	2015_Jun_04_1446	s	s	20	4	SIC	171	RC	1	2	02VD 02VO 02VC 09MD 02MO 02MC 02RD 02RO	1	0	2.17209601402	353.0	225.0	358	217	1
2.7	2015_Jun_04_1446	s	s	20	4	SIC	172	ABS	0	2	02VD 02VO 02VC 02MD 02MO 02MC 10RD 02RO	0	1	2.6712808609	None	None	None	None	1
2.7	2015_Jun_04_1446	s	s	20	4	SIC	173	ABS	2	1	02VD 10VO 02VC 02MD 02MO 02MC 02RD 02RO	0	1	3.01265597343	None	None	None	None	1
2.7	2015_Jun_04_1446	s	s	20	4	SIC	174	RC	1	0	02VD 02VO 02VC 02MD 02MO 09MC 02RD 02RO	1	0	1.61858797073	319.0	-226.0	310	-222	1
2.7	2015_Jun_04_1446	s	s	20	4	SIC	175	ABS	1	2	02VD 02VO 02VC 10MD 02MO 02MC 02RD 02RO	0	1	2.00785088539	None	None	None	None	1
2.7	2015_Jun_04_1446	s	s	20	4	SIC	176	ABS	2	2	10VD 02VO 02VC 02MD 02MO 02MC 02RD 02RO	0	1	2.3536939621	None	None	None	None	1
2.7	2015_Jun_04_1446	s	s	20	4	SIC	177	RC	2	0	02VD 02VO 09VC 02MD 02MO 02MC 02RD 02RO	1	0	2.07097005844	-433.0	-399.0	-428	-404	1
2.7	2015_Jun_04_1446	s	s	20	4	SIC	178	RC	1	0	02VD 02VO 02VC 02MD 02MO 09MC 02RD 02RO	1	0	1.33607196808	349.0	-343.0	343	-335	1
2.7	2015_Jun_04_1446	s	s	20	4	SIC	179	RC	2	2	09VD 02VO 02VC 02MD 02MO 02MC 02RD 02RO	1	0	1.08225011826	-368.0	-406.0	-360	-398	1
2.7	2015_Jun_04_1446	s	s	20	4	SIC	180	ABS	1	1	02VD 02VO 02VC 02MD 10MO 02MC 02RD 02RO	0	1	3.81300497055	None	None	None	None	1
2.7	2015_Jun_04_1446	s	s	20	4	SIC	181	RC	0	2	02VD 02VO 02VC 02MD 02MO 02MC 09RD 02RO	1	0	1.41184306145	-504.0	344.0	-497	345	1
2.7	2015_Jun_04_1446	s	s	20	4	SIC	182	RC	2	1	02VD 09VO 02VC 02MD 02MO 02MC 02RD 02RO	1	0	1.04331302643	-477.0	-94.0	-471	-87	1
2.7	2015_Jun_04_1446	s	s	20	4	SIC	183	ABS	1	0	02VD 02VO 02VC 02MD 02MO 10MC 02RD 02RO	0	1	5.16180896759	None	None	None	None	1
2.7	2015_Jun_04_1446	s	s	20	4	SIC	184	ABS	1	2	02VD 02VO 02VC 10MD 02MO 02MC 02RD 02RO	0	1	1.56099319458	None	None	None	None	1
2.7	2015_Jun_04_1446	s	s	20	4	SIC	185	ABS	0	2	02VD 02VO 02VC 02MD 02MO 02MC 10RD 02RO	0	1	2.40092396736	None	None	None	None	1
2.7	2015_Jun_04_1446	s	s	20	4	SIC	186	ABS	0	1	02VD 02VO 02VC 02MD 02MO 02MC 02RD 10RO	0	1	3.52623009682	None	None	None	None	1
2.7	2015_Jun_04_1446	s	s	20	4	SIC	187	ABS	2	1	02VD 10VO 02VC 02MD 02MO 02MC 02RD 02RO	0	1	1.59506797791	None	None	None	None	1
2.7	2015_Jun_04_1446	s	s	20	4	SIC	188	RC	1	1	02VD 02VO 02VC 02MD 09MO 02MC 02RD 02RO	1	0	2.3534860611	330.0	-352.0	328	-358	1
2.7	2015_Jun_04_1446	s	s	20	4	SIC	189	RC	0	1	02VD 02VO 02VC 02MD 02MO 02MC 02RD 09RO	1	0	1.96518707275	73.0	-346.0	80	-346	1
2.7	2015_Jun_04_1446	s	s	20	4	SIC	190	ABS	2	0	02VD 02VO 10VC 02MD 02MO 02MC 02RD 02RO	0	1	2.24266004562	None	None	None	None	1
2.7	2015_Jun_04_1446	s	s	20	4	SIC	191	RC	1	2	02VD 02VO 02VC 09MD 02MO 02MC 02RD 02RO	1	0	0.889568805695	-449.0	363.0	-453	369	1
2.7	2015_Jun_04_1446	s	s	20	4	SIC	192	ABS	2	2	10VD 02VO 02VC 02MD 02MO 02MC 02RD 02RO	0	1	1.88965415955	None	None	None	None	1
2.7	2015_Jun_04_1446	s	s	20	4	SIC	193	RC	2	2	09VD 02VO 02VC 02MD 02MO 02MC 02RD 02RO	1	0	0.952831983566	-47.0	383.0	-50	383	1
2.7	2015_Jun_04_1446	s	s	20	4	SIC	194	RC	2	0	02VD 02VO 09VC 02MD 02MO 02MC 02RD 02RO	1	0	0.665531158447	-375.0	282.0	-379	281	1
2.7	2015_Jun_04_1446	s	s	20	4	SIC	195	ABS	1	2	02VD 02VO 02VC 10MD 02MO 02MC 02RD 02RO	0	1	1.58349990845	None	None	None	None	1
2.7	2015_Jun_04_1446	s	s	20	4	SIC	196	ABS	1	0	02VD 02VO 02VC 02MD 02MO 10MC 02RD 02RO	0	1	1.74151492119	None	None	None	None	1
2.7	2015_Jun_04_1446	s	s	20	4	SIC	197	RC	1	0	02VD 02VO 02VC 02MD 02MO 09MC 02RD 02RO	1	0	0.962446928024	-429.0	-174.0	-426	-182	1
2.7	2015_Jun_04_1446	s	s	20	4	SIC	198	ABS	0	2	02VD 02VO 02VC 02MD 02MO 02MC 10RD 02RO	0	1	1.88257908821	None	None	None	None	1
2.7	2015_Jun_04_1446	s	s	20	4	SIC	199	RC	1	2	02VD 02VO 02VC 09MD 02MO 02MC 02RD 02RO	1	0	0.900864124298	-435.0	-93.0	-282	321	0
2.7	2015_Jun_04_1446	s	s	20	4	SIC	200	ABS	2	2	10VD 02VO 02VC 02MD 02MO 02MC 02RD 02RO	0	1	1.91281700134	None	None	None	None	1
2.7	2015_Jun_04_1446	s	s	20	4	SIC	201	RC	1	1	02VD 02VO 02VC 02MD 09MO 02MC 02RD 02RO	1	0	2.00411295891	508.0	-156.0	499	-157	1
2.7	2015_Jun_04_1446	s	s	20	4	SIC	202	ABS	1	1	02VD 02VO 02VC 02MD 10MO 02MC 02RD 02RO	0	1	1.90623903275	None	None	None	None	1
2.7	2015_Jun_04_1446	s	s	20	4	SIC	203	RC	0	2	02VD 02VO 02VC 02MD 02MO 02MC 09RD 02RO	1	0	1.83557915688	404.0	269.0	412	265	1
2.7	2015_Jun_04_1446	s	s	20	4	SIC	204	RC	2	1	02VD 09VO 02VC 02MD 02MO 02MC 02RD 02RO	1	0	0.512367963791	8.0	221.0	1	219	1
2.7	2015_Jun_04_1446	s	s	20	4	SIC	205	ABS	2	0	02VD 02VO 10VC 02MD 02MO 02MC 02RD 02RO	0	1	1.37655210495	None	None	None	None	1
2.7	2015_Jun_04_1446	s	s	20	4	SIC	206	RC	0	1	02VD 02VO 02VC 02MD 02MO 02MC 02RD 09RO	1	0	1.24213886261	109.0	352.0	113	360	1
2.7	2015_Jun_04_1446	s	s	20	4	SIC	207	ABS	0	1	02VD 02VO 02VC 02MD 02MO 02MC 02RD 10RO	0	1	3.94248914719	None	None	None	None	1
2.7	2015_Jun_04_1446	s	s	20	4	SIC	208	ABS	2	1	02VD 10VO 02VC 02MD 02MO 02MC 02RD 02RO	0	1	2.07836103439	None	None	None	None	1
2.7	2015_Jun_04_1446	s	s	20	4	SIC	209	RC	2	2	09VD 02VO 02VC 02MD 02MO 02MC 02RD 02RO	1	0	1.49424505234	532.0	291.0	536	299	1
2.7	2015_Jun_04_1446	s	s	20	4	SIC	210	RC	0	1	02VD 02VO 02VC 02MD 02MO 02MC 02RD 09RO	1	0	1.50597500801	485.0	-98.0	486	-96	1
2.7	2015_Jun_04_1446	s	s	20	4	SIC	211	ABS	2	0	02VD 02VO 10VC 02MD 02MO 02MC 02RD 02RO	0	1	2.00723600388	None	None	None	None	1
2.7	2015_Jun_04_1446	s	s	20	4	SIC	212	ABS	2	2	10VD 02VO 02VC 02MD 02MO 02MC 02RD 02RO	0	1	2.24749803543	None	None	None	None	1
2.7	2015_Jun_04_1446	s	s	20	4	SIC	213	RC	1	0	02VD 02VO 02VC 02MD 02MO 09MC 02RD 02RO	1	0	0.877407073975	422.0	17.0	420	21	1
2.7	2015_Jun_04_1446	s	s	20	4	SIC	214	RC	2	0	02VD 02VO 09VC 02MD 02MO 02MC 02RD 02RO	1	0	0.811568975449	-375.0	324.0	-374	325	1
2.7	2015_Jun_04_1446	s	s	20	4	SIC	215	RC	1	2	02VD 02VO 02VC 09MD 02MO 02MC 02RD 02RO	1	0	0.941030025482	-319.0	-140.0	-316	-142	1
2.7	2015_Jun_04_1446	s	s	20	4	SIC	216	ABS	2	1	02VD 10VO 02VC 02MD 02MO 02MC 02RD 02RO	0	1	2.44205498695	None	None	None	None	1
2.7	2015_Jun_04_1446	s	s	20	4	SIC	217	ABS	1	1	02VD 02VO 02VC 02MD 10MO 02MC 02RD 02RO	0	1	2.12985491753	None	None	None	None	1
2.7	2015_Jun_04_1446	s	s	20	4	SIC	218	ABS	1	2	02VD 02VO 02VC 10MD 02MO 02MC 02RD 02RO	0	1	2.34853601456	None	None	None	None	1
2.7	2015_Jun_04_1446	s	s	20	4	SIC	219	RC	2	1	02VD 09VO 02VC 02MD 02MO 02MC 02RD 02RO	1	0	1.88640880585	27.0	198.0	16	198	1
2.7	2015_Jun_04_1446	s	s	20	4	SIC	220	RC	1	1	02VD 02VO 02VC 02MD 09MO 02MC 02RD 02RO	1	0	1.84502100945	417.0	221.0	424	221	1
2.7	2015_Jun_04_1446	s	s	20	4	SIC	221	ABS	0	2	02VD 02VO 02VC 02MD 02MO 02MC 10RD 02RO	0	1	1.83562302589	None	None	None	None	1
2.7	2015_Jun_04_1446	s	s	20	4	SIC	222	ABS	0	1	02VD 02VO 02VC 02MD 02MO 02MC 02RD 10RO	0	1	6.16701006889	None	None	None	None	1
2.7	2015_Jun_04_1446	s	s	20	4	SIC	223	ABS	1	0	02VD 02VO 02VC 02MD 02MO 10MC 02RD 02RO	0	1	4.20786499977	None	None	None	None	1
2.7	2015_Jun_04_1446	s	s	20	4	SIC	224	RC	0	2	02VD 02VO 02VC 02MD 02MO 02MC 09RD 02RO	1	0	2.07772183418	288.0	380.0	289	374	1
2.7	2015_Jun_04_1446	s	s	20	4	SIC	225	RC	1	2	02VD 02VO 02VC 09MD 02MO 02MC 02RD 02RO	1	0	1.27053999901	363.0	97.0	371	101	1
2.7	2015_Jun_04_1446	s	s	20	4	SIC	226	RC	0	2	02VD 02VO 02VC 02MD 02MO 02MC 09RD 02RO	1	0	0.827003002167	-437.0	-38.0	-435	-41	1
2.7	2015_Jun_04_1446	s	s	20	4	SIC	227	RC	2	2	09VD 02VO 02VC 02MD 02MO 02MC 02RD 02RO	1	0	0.681999206543	-182.0	-140.0	-175	-136	1
2.7	2015_Jun_04_1446	s	s	20	4	SIC	228	ABS	2	1	02VD 10VO 02VC 02MD 02MO 02MC 02RD 02RO	1	0	0.870408058167	None	None	358	-174	0
2.7	2015_Jun_04_1446	s	s	20	4	SIC	229	RC	2	0	02VD 02VO 09VC 02MD 02MO 02MC 02RD 02RO	1	0	0.77365899086	180.0	322.0	193	325	1
2.7	2015_Jun_04_1446	s	s	20	4	SIC	230	ABS	1	1	02VD 02VO 02VC 02MD 10MO 02MC 02RD 02RO	0	1	4.06383013725	None	None	None	None	1
2.7	2015_Jun_04_1446	s	s	20	4	SIC	231	ABS	0	2	02VD 02VO 02VC 02MD 02MO 02MC 10RD 02RO	0	1	2.04249501228	None	None	None	None	1
2.7	2015_Jun_04_1446	s	s	20	4	SIC	232	RC	1	0	02VD 02VO 02VC 02MD 02MO 09MC 02RD 02RO	1	0	0.702594995499	-493.0	101.0	-502	111	1
2.7	2015_Jun_04_1446	s	s	20	4	SIC	233	ABS	0	1	02VD 02VO 02VC 02MD 02MO 02MC 02RD 10RO	0	1	3.8365688324	None	None	None	None	1
2.7	2015_Jun_04_1446	s	s	20	4	SIC	234	RC	2	1	02VD 09VO 02VC 02MD 02MO 02MC 02RD 02RO	1	0	1.54163002968	37.0	-389.0	45	-389	1
2.7	2015_Jun_04_1446	s	s	20	4	SIC	235	ABS	2	2	10VD 02VO 02VC 02MD 02MO 02MC 02RD 02RO	0	1	2.30158305168	None	None	None	None	1
2.7	2015_Jun_04_1446	s	s	20	4	SIC	236	ABS	2	0	02VD 02VO 10VC 02MD 02MO 02MC 02RD 02RO	0	1	1.83046793938	None	None	None	None	1
2.7	2015_Jun_04_1446	s	s	20	4	SIC	237	RC	1	1	02VD 02VO 02VC 02MD 09MO 02MC 02RD 02RO	1	0	1.25899505615	181.0	-332.0	189	-327	1
2.7	2015_Jun_04_1446	s	s	20	4	SIC	238	ABS	1	2	02VD 02VO 02VC 10MD 02MO 02MC 02RD 02RO	0	1	1.8355679512	None	None	None	None	1
2.7	2015_Jun_04_1446	s	s	20	4	SIC	239	ABS	1	0	02VD 02VO 02VC 02MD 02MO 10MC 02RD 02RO	0	1	3.18587994576	None	None	None	None	1
2.7	2015_Jun_04_1446	s	s	20	4	SIC	240	RC	0	1	02VD 02VO 02VC 02MD 02MO 02MC 02RD 09RO	1	0	3.24298405647	-281.0	-213.0	-277	-209	1
2.7	2015_Jun_04_1446	s	s	20	4	SIC	241	RC	2	1	02VD 09VO 02VC 02MD 02MO 02MC 02RD 02RO	1	0	1.04256415367	-49.0	-272.0	-58	-276	1
2.7	2015_Jun_04_1446	s	s	20	4	SIC	242	RC	1	1	02VD 02VO 02VC 02MD 09MO 02MC 02RD 02RO	1	0	1.04698204994	428.0	-233.0	421	-238	1
2.7	2015_Jun_04_1446	s	s	20	4	SIC	243	RC	1	2	02VD 02VO 02VC 09MD 02MO 02MC 02RD 02RO	1	0	1.20668101311	535.0	-275.0	533	-273	1
2.7	2015_Jun_04_1446	s	s	20	4	SIC	244	RC	2	0	02VD 02VO 09VC 02MD 02MO 02MC 02RD 02RO	1	0	1.14726805687	418.0	-367.0	420	-358	1
2.7	2015_Jun_04_1446	s	s	20	4	SIC	245	ABS	2	2	10VD 02VO 02VC 02MD 02MO 02MC 02RD 02RO	0	1	2.72502207756	None	None	None	None	1
2.7	2015_Jun_04_1446	s	s	20	4	SIC	246	RC	1	0	02VD 02VO 02VC 02MD 02MO 09MC 02RD 02RO	1	0	0.605846166611	1.0	52.0	9	49	1
2.7	2015_Jun_04_1446	s	s	20	4	SIC	247	ABS	2	0	02VD 02VO 10VC 02MD 02MO 02MC 02RD 02RO	0	1	2.36046791077	None	None	None	None	1
2.7	2015_Jun_04_1446	s	s	20	4	SIC	248	ABS	1	2	02VD 02VO 02VC 10MD 02MO 02MC 02RD 02RO	0	1	2.06601119041	None	None	None	None	1
2.7	2015_Jun_04_1446	s	s	20	4	SIC	249	ABS	0	2	02VD 02VO 02VC 02MD 02MO 02MC 10RD 02RO	0	1	2.16159486771	None	None	None	None	1
2.7	2015_Jun_04_1446	s	s	20	4	SIC	250	RC	0	1	02VD 02VO 02VC 02MD 02MO 02MC 02RD 09RO	1	0	1.56064295769	164.0	-316.0	153	-316	1
2.7	2015_Jun_04_1446	s	s	20	4	SIC	251	ABS	0	1	02VD 02VO 02VC 02MD 02MO 02MC 02RD 10RO	0	1	4.54002213478	None	None	None	None	1
2.7	2015_Jun_04_1446	s	s	20	4	SIC	252	ABS	1	0	02VD 02VO 02VC 02MD 02MO 10MC 02RD 02RO	0	1	2.75773215294	None	None	None	None	1
2.7	2015_Jun_04_1446	s	s	20	4	SIC	253	ABS	1	1	02VD 02VO 02VC 02MD 10MO 02MC 02RD 02RO	0	1	3.32692909241	None	None	None	None	1
2.7	2015_Jun_04_1446	s	s	20	4	SIC	254	RC	2	2	09VD 02VO 02VC 02MD 02MO 02MC 02RD 02RO	1	0	0.665188074112	-104.0	251.0	-111	253	1
2.7	2015_Jun_04_1446	s	s	20	4	SIC	255	ABS	2	1	02VD 10VO 02VC 02MD 02MO 02MC 02RD 02RO	0	1	2.29463100433	None	None	None	None	1
2.7	2015_Jun_04_1446	s	s	20	4	SIC	256	RC	0	2	02VD 02VO 02VC 02MD 02MO 02MC 09RD 02RO	1	0	0.709300041199	-130.0	156.0	-130	151	1
2.7	2015_Jun_04_1446	s	s	20	4	SIC	257	RC	2	2	09VD 02VO 02VC 02MD 02MO 02MC 02RD 02RO	1	0	0.771532058716	-101.0	225.0	-96	225	1
2.7	2015_Jun_04_1446	s	s	20	4	SIC	258	ABS	1	2	02VD 02VO 02VC 10MD 02MO 02MC 02RD 02RO	0	1	1.88957214355	None	None	None	None	1
2.7	2015_Jun_04_1446	s	s	20	4	SIC	259	RC	0	2	02VD 02VO 02VC 02MD 02MO 02MC 09RD 02RO	1	0	2.48978090286	108.0	-383.0	103	-387	1
2.7	2015_Jun_04_1446	s	s	20	4	SIC	260	RC	1	2	02VD 02VO 02VC 09MD 02MO 02MC 02RD 02RO	1	0	1.89449620247	-465.0	-288.0	-467	-284	1
2.7	2015_Jun_04_1446	s	s	20	4	SIC	261	ABS	2	1	02VD 10VO 02VC 02MD 02MO 02MC 02RD 02RO	0	1	2.48290300369	None	None	None	None	1
2.7	2015_Jun_04_1446	s	s	20	4	SIC	262	ABS	2	2	10VD 02VO 02VC 02MD 02MO 02MC 02RD 02RO	0	1	2.60748291016	None	None	None	None	1
2.7	2015_Jun_04_1446	s	s	20	4	SIC	263	ABS	1	1	02VD 02VO 02VC 02MD 10MO 02MC 02RD 02RO	0	1	4.57852101326	None	None	None	None	1
2.7	2015_Jun_04_1446	s	s	20	4	SIC	264	ABS	0	2	02VD 02VO 02VC 02MD 02MO 02MC 10RD 02RO	0	1	2.30086398125	None	None	None	None	1
2.7	2015_Jun_04_1446	s	s	20	4	SIC	265	ABS	2	0	02VD 02VO 10VC 02MD 02MO 02MC 02RD 02RO	0	1	2.31817889214	None	None	None	None	1
2.7	2015_Jun_04_1446	s	s	20	4	SIC	266	RC	0	1	02VD 02VO 02VC 02MD 02MO 02MC 02RD 09RO	1	0	0.87984418869	268.0	-217.0	274	-217	1
2.7	2015_Jun_04_1446	s	s	20	4	SIC	267	RC	1	0	02VD 02VO 02VC 02MD 02MO 09MC 02RD 02RO	1	0	0.865130186081	424.0	164.0	427	171	1
2.7	2015_Jun_04_1446	s	s	20	4	SIC	268	RC	2	0	02VD 02VO 09VC 02MD 02MO 02MC 02RD 02RO	1	0	1.94206213951	170.0	157.0	162	155	1
2.7	2015_Jun_04_1446	s	s	20	4	SIC	269	RC	2	1	02VD 09VO 02VC 02MD 02MO 02MC 02RD 02RO	1	0	2.11332011223	-533.0	-83.0	-530	-90	1
2.7	2015_Jun_04_1446	s	s	20	4	SIC	270	ABS	1	0	02VD 02VO 02VC 02MD 02MO 10MC 02RD 02RO	0	1	3.97773003578	None	None	None	None	1
2.7	2015_Jun_04_1446	s	s	20	4	SIC	271	ABS	0	1	02VD 02VO 02VC 02MD 02MO 02MC 02RD 10RO	0	1	3.43662786484	None	None	None	None	1
2.7	2015_Jun_04_1446	s	s	20	4	SIC	272	RC	1	1	02VD 02VO 02VC 02MD 09MO 02MC 02RD 02RO	1	0	0.700717926025	-255.0	310.0	-267	311	1
2.7	2015_Jun_04_1446	s	s	20	4	SIC	273	RC	1	0	02VD 02VO 02VC 02MD 02MO 09MC 02RD 02RO	1	0	0.56812620163	-29.0	52.0	-35	55	1
2.7	2015_Jun_04_1446	s	s	20	4	SIC	274	RC	2	0	02VD 02VO 09VC 02MD 02MO 02MC 02RD 02RO	1	0	1.54124093056	17.0	-351.0	17	-343	1
2.7	2015_Jun_04_1446	s	s	20	4	SIC	275	RC	0	1	02VD 02VO 02VC 02MD 02MO 02MC 02RD 09RO	1	0	0.925971984863	253.0	-39.0	247	-34	1
2.7	2015_Jun_04_1446	s	s	20	4	SIC	276	ABS	2	1	02VD 10VO 02VC 02MD 02MO 02MC 02RD 02RO	0	1	1.96009898186	None	None	None	None	1
2.7	2015_Jun_04_1446	s	s	20	4	SIC	277	RC	1	2	02VD 02VO 02VC 09MD 02MO 02MC 02RD 02RO	1	0	0.701889038086	61.0	-73.0	61	-68	1
2.7	2015_Jun_04_1446	s	s	20	4	SIC	278	RC	1	1	02VD 02VO 02VC 02MD 09MO 02MC 02RD 02RO	1	0	0.952704906464	-173.0	279.0	-176	273	1
2.7	2015_Jun_04_1446	s	s	20	4	SIC	279	ABS	1	0	02VD 02VO 02VC 02MD 02MO 10MC 02RD 02RO	0	1	4.25552010536	None	None	None	None	1
2.7	2015_Jun_04_1446	s	s	20	4	SIC	280	ABS	0	1	02VD 02VO 02VC 02MD 02MO 02MC 02RD 10RO	0	1	4.36169219017	None	None	None	None	1
2.7	2015_Jun_04_1446	s	s	20	4	SIC	281	ABS	1	2	02VD 02VO 02VC 10MD 02MO 02MC 02RD 02RO	0	1	1.80699300766	None	None	None	None	1
2.7	2015_Jun_04_1446	s	s	20	4	SIC	282	ABS	2	0	02VD 02VO 10VC 02MD 02MO 02MC 02RD 02RO	0	1	1.56525588036	None	None	None	None	1
2.7	2015_Jun_04_1446	s	s	20	4	SIC	283	RC	2	2	09VD 02VO 02VC 02MD 02MO 02MC 02RD 02RO	1	0	1.20698595047	64.0	267.0	52	272	1
2.7	2015_Jun_04_1446	s	s	20	4	SIC	284	ABS	1	1	02VD 02VO 02VC 02MD 10MO 02MC 02RD 02RO	0	1	2.34170985222	None	None	None	None	1
2.7	2015_Jun_04_1446	s	s	20	4	SIC	285	ABS	0	2	02VD 02VO 02VC 02MD 02MO 02MC 10RD 02RO	0	1	1.65911388397	None	None	None	None	1
2.7	2015_Jun_04_1446	s	s	20	4	SIC	286	RC	2	1	02VD 09VO 02VC 02MD 02MO 02MC 02RD 02RO	1	0	1.88993215561	-510.0	-318.0	-514	-315	1
2.7	2015_Jun_04_1446	s	s	20	4	SIC	287	ABS	2	2	10VD 02VO 02VC 02MD 02MO 02MC 02RD 02RO	0	1	1.90277886391	None	None	None	None	1
2.7	2015_Jun_04_1446	s	s	20	4	SIC	288	RC	0	2	02VD 02VO 02VC 02MD 02MO 02MC 09RD 02RO	1	0	0.893966913223	-167.0	181.0	-166	180	1
2.7	2015_Jun_04_1446	s	s	20	4	SIC	289	RC	1	1	02VD 02VO 02VC 02MD 09MO 02MC 02RD 02RO	1	0	0.855429172516	354.0	-162.0	345	-157	1
2.7	2015_Jun_04_1446	s	s	20	4	SIC	290	ABS	1	2	02VD 02VO 02VC 10MD 02MO 02MC 02RD 02RO	0	1	1.98567295074	None	None	None	None	1
2.7	2015_Jun_04_1446	s	s	20	4	SIC	291	ABS	1	0	02VD 02VO 02VC 02MD 02MO 10MC 02RD 02RO	0	1	3.00077700615	None	None	None	None	1
2.7	2015_Jun_04_1446	s	s	20	4	SIC	292	ABS	2	0	02VD 02VO 10VC 02MD 02MO 02MC 02RD 02RO	0	1	1.95915102959	None	None	None	None	1
2.7	2015_Jun_04_1446	s	s	20	4	SIC	293	ABS	0	1	02VD 02VO 02VC 02MD 02MO 02MC 02RD 10RO	0	1	4.34892296791	None	None	None	None	1
2.7	2015_Jun_04_1446	s	s	20	4	SIC	294	RC	1	0	02VD 02VO 02VC 02MD 02MO 09MC 02RD 02RO	1	0	3.00798988342	399.0	295.0	396	303	1
2.7	2015_Jun_04_1446	s	s	20	4	SIC	295	ABS	2	1	02VD 10VO 02VC 02MD 02MO 02MC 02RD 02RO	0	1	2.21224021912	None	None	None	None	1
2.7	2015_Jun_04_1446	s	s	20	4	SIC	296	RC	0	2	02VD 02VO 02VC 02MD 02MO 02MC 09RD 02RO	1	0	1.27731990814	206.0	219.0	198	220	1
2.7	2015_Jun_04_1446	s	s	20	4	SIC	297	RC	2	1	02VD 09VO 02VC 02MD 02MO 02MC 02RD 02RO	1	0	0.794761896133	-326.0	196.0	-322	205	1
2.7	2015_Jun_04_1446	s	s	20	4	SIC	298	RC	1	2	02VD 02VO 02VC 09MD 02MO 02MC 02RD 02RO	1	0	0.517115116119	-274.0	55.0	-277	61	1
2.7	2015_Jun_04_1446	s	s	20	4	SIC	299	RC	0	1	02VD 02VO 02VC 02MD 02MO 02MC 02RD 09RO	1	0	0.55252790451	-134.0	94.0	-126	95	1
2.7	2015_Jun_04_1446	s	s	20	4	SIC	300	ABS	1	1	02VD 02VO 02VC 02MD 10MO 02MC 02RD 02RO	0	1	1.96882486343	None	None	None	None	1
2.7	2015_Jun_04_1446	s	s	20	4	SIC	301	ABS	0	2	02VD 02VO 02VC 02MD 02MO 02MC 10RD 02RO	0	1	2.05444693565	None	None	None	None	1
2.7	2015_Jun_04_1446	s	s	20	4	SIC	302	RC	2	0	02VD 02VO 09VC 02MD 02MO 02MC 02RD 02RO	1	0	1.01159691811	313.0	86.0	314	85	1
2.7	2015_Jun_04_1446	s	s	20	4	SIC	303	ABS	2	2	10VD 02VO 02VC 02MD 02MO 02MC 02RD 02RO	0	1	1.78525805473	None	None	None	None	1
2.7	2015_Jun_04_1446	s	s	20	4	SIC	304	RC	2	2	09VD 02VO 02VC 02MD 02MO 02MC 02RD 02RO	1	0	1.28902101517	-517.0	315.0	-517	312	1
2.7	2015_Jun_04_1446	s	s	20	4	SIC	305	ABS	0	2	02VD 02VO 02VC 02MD 02MO 02MC 10RD 02RO	0	1	1.63046312332	None	None	None	None	1
2.7	2015_Jun_04_1446	s	s	20	4	SIC	306	RC	1	2	02VD 02VO 02VC 09MD 02MO 02MC 02RD 02RO	1	0	0.688972949982	-126.0	160.0	-124	156	1
2.7	2015_Jun_04_1446	s	s	20	4	SIC	307	ABS	2	2	10VD 02VO 02VC 02MD 02MO 02MC 02RD 02RO	0	1	1.81201791763	None	None	None	None	1
2.7	2015_Jun_04_1446	s	s	20	4	SIC	308	RC	1	0	02VD 02VO 02VC 02MD 02MO 09MC 02RD 02RO	1	0	0.867791175842	311.0	-50.0	315	-46	1
2.7	2015_Jun_04_1446	s	s	20	4	SIC	309	RC	2	1	02VD 09VO 02VC 02MD 02MO 02MC 02RD 02RO	1	0	1.46552395821	107.0	-130.0	118	-121	1
2.7	2015_Jun_04_1446	s	s	20	4	SIC	310	RC	0	2	02VD 02VO 02VC 02MD 02MO 02MC 09RD 02RO	1	0	0.717473983765	-110.0	-93.0	-103	-88	1
2.7	2015_Jun_04_1446	s	s	20	4	SIC	311	ABS	2	0	02VD 02VO 10VC 02MD 02MO 02MC 02RD 02RO	0	1	1.64717197418	None	None	None	None	1
2.7	2015_Jun_04_1446	s	s	20	4	SIC	312	RC	0	1	02VD 02VO 02VC 02MD 02MO 02MC 02RD 09RO	1	0	1.09402704239	-388.0	-120.0	-381	-125	1
2.7	2015_Jun_04_1446	s	s	20	4	SIC	313	ABS	1	1	02VD 02VO 02VC 02MD 10MO 02MC 02RD 02RO	0	1	3.39816498756	None	None	None	None	1
2.7	2015_Jun_04_1446	s	s	20	4	SIC	314	RC	2	0	02VD 02VO 09VC 02MD 02MO 02MC 02RD 02RO	1	0	0.900681972504	324.0	-33.0	317	-28	1
2.7	2015_Jun_04_1446	s	s	20	4	SIC	315	RC	2	2	09VD 02VO 02VC 02MD 02MO 02MC 02RD 02RO	1	0	1.78273105621	511.0	364.0	519	366	1
2.7	2015_Jun_04_1446	s	s	20	4	SIC	316	ABS	1	2	02VD 02VO 02VC 10MD 02MO 02MC 02RD 02RO	0	1	1.87077212334	None	None	None	None	1
2.7	2015_Jun_04_1446	s	s	20	4	SIC	317	RC	1	1	02VD 02VO 02VC 02MD 09MO 02MC 02RD 02RO	1	0	0.630357027054	17.0	-3.0	28	-3	1
2.7	2015_Jun_04_1446	s	s	20	4	SIC	318	ABS	2	1	02VD 10VO 02VC 02MD 02MO 02MC 02RD 02RO	0	1	2.00696492195	None	None	None	None	1
2.7	2015_Jun_04_1446	s	s	20	4	SIC	319	ABS	0	1	02VD 02VO 02VC 02MD 02MO 02MC 02RD 10RO	0	1	5.75521206856	None	None	None	None	1
2.7	2015_Jun_04_1446	s	s	20	4	SIC	320	ABS	1	0	02VD 02VO 02VC 02MD 02MO 10MC 02RD 02RO	0	1	2.36524701118	None	None	None	None	1
2.7	2015_Jun_04_1446	s	s	20	4	SIC	321	RC	0	1	02VD 02VO 02VC 02MD 02MO 02MC 02RD 09RO	1	0	1.04189491272	-328.0	-80.0	-332	-80	1
2.7	2015_Jun_04_1446	s	s	20	4	SIC	322	RC	1	1	02VD 02VO 02VC 02MD 09MO 02MC 02RD 02RO	1	0	1.15880393982	-417.0	153.0	-413	148	1
2.7	2015_Jun_04_1446	s	s	20	4	SIC	323	ABS	2	2	10VD 02VO 02VC 02MD 02MO 02MC 02RD 02RO	0	1	2.37197589874	None	None	None	None	1
2.7	2015_Jun_04_1446	s	s	20	4	SIC	324	ABS	2	0	02VD 02VO 10VC 02MD 02MO 02MC 02RD 02RO	0	1	2.15338516235	None	None	None	None	1
2.7	2015_Jun_04_1446	s	s	20	4	SIC	325	RC	2	1	02VD 09VO 02VC 02MD 02MO 02MC 02RD 02RO	1	0	0.618283033371	-72.0	109.0	-76	114	1
2.7	2015_Jun_04_1446	s	s	20	4	SIC	326	ABS	0	2	02VD 02VO 02VC 02MD 02MO 02MC 10RD 02RO	0	1	2.60067605972	None	None	None	None	1
2.7	2015_Jun_04_1446	s	s	20	4	SIC	327	ABS	1	2	02VD 02VO 02VC 10MD 02MO 02MC 02RD 02RO	0	1	2.23583078384	None	None	None	None	1
2.7	2015_Jun_04_1446	s	s	20	4	SIC	328	ABS	1	1	02VD 02VO 02VC 02MD 10MO 02MC 02RD 02RO	0	1	3.04356503487	None	None	None	None	1
2.7	2015_Jun_04_1446	s	s	20	4	SIC	329	ABS	1	0	02VD 02VO 02VC 02MD 02MO 10MC 02RD 02RO	0	1	3.86044001579	None	None	None	None	1
2.7	2015_Jun_04_1446	s	s	20	4	SIC	330	ABS	0	1	02VD 02VO 02VC 02MD 02MO 02MC 02RD 10RO	0	1	3.74899291992	None	None	None	None	1
2.7	2015_Jun_04_1446	s	s	20	4	SIC	331	RC	1	0	02VD 02VO 02VC 02MD 02MO 09MC 02RD 02RO	1	0	1.48616099358	243.0	253.0	234	250	1
2.7	2015_Jun_04_1446	s	s	20	4	SIC	332	RC	0	2	02VD 02VO 02VC 02MD 02MO 02MC 09RD 02RO	1	0	0.912597179413	-453.0	-195.0	-449	-190	1
2.7	2015_Jun_04_1446	s	s	20	4	SIC	333	ABS	2	1	02VD 10VO 02VC 02MD 02MO 02MC 02RD 02RO	0	1	2.69043588638	None	None	None	None	1
2.7	2015_Jun_04_1446	s	s	20	4	SIC	334	RC	2	2	09VD 02VO 02VC 02MD 02MO 02MC 02RD 02RO	1	0	0.846844911575	196.0	190.0	200	189	1
2.7	2015_Jun_04_1446	s	s	20	4	SIC	335	RC	1	2	02VD 02VO 02VC 09MD 02MO 02MC 02RD 02RO	1	0	0.964509963989	-540.0	388.0	-532	395	1
2.7	2015_Jun_04_1446	s	s	20	4	SIC	336	RC	2	0	02VD 02VO 09VC 02MD 02MO 02MC 02RD 02RO	1	0	0.929133892059	-211.0	-358.0	-201	-360	1
2.7	2015_Jun_04_1446	s	s	20	4	SIC	337	RC	1	2	02VD 02VO 02VC 09MD 02MO 02MC 02RD 02RO	1	0	1.11279702187	-286.0	42.0	-281	49	1
2.7	2015_Jun_04_1446	s	s	20	4	SIC	338	ABS	2	2	10VD 02VO 02VC 02MD 02MO 02MC 02RD 02RO	1	0	1.14151287079	None	None	-308	319	0
2.7	2015_Jun_04_1446	s	s	20	4	SIC	339	ABS	0	2	02VD 02VO 02VC 02MD 02MO 02MC 10RD 02RO	0	1	2.31172990799	None	None	None	None	1
2.7	2015_Jun_04_1446	s	s	20	4	SIC	340	ABS	0	1	02VD 02VO 02VC 02MD 02MO 02MC 02RD 10RO	0	1	3.39594197273	None	None	None	None	1
2.7	2015_Jun_04_1446	s	s	20	4	SIC	341	ABS	2	0	02VD 02VO 10VC 02MD 02MO 02MC 02RD 02RO	0	1	1.70603203773	None	None	None	None	1
2.7	2015_Jun_04_1446	s	s	20	4	SIC	342	RC	2	1	02VD 09VO 02VC 02MD 02MO 02MC 02RD 02RO	1	0	1.19995808601	-525.0	-260.0	-516	-258	1
2.7	2015_Jun_04_1446	s	s	20	4	SIC	343	ABS	2	1	02VD 10VO 02VC 02MD 02MO 02MC 02RD 02RO	0	1	2.42781400681	None	None	None	None	1
2.7	2015_Jun_04_1446	s	s	20	4	SIC	344	ABS	1	2	02VD 02VO 02VC 10MD 02MO 02MC 02RD 02RO	0	1	1.8356359005	None	None	None	None	1
2.7	2015_Jun_04_1446	s	s	20	4	SIC	345	RC	2	0	02VD 02VO 09VC 02MD 02MO 02MC 02RD 02RO	1	0	1.32445693016	256.0	-280.0	264	-286	1
2.7	2015_Jun_04_1446	s	s	20	4	SIC	346	ABS	1	0	02VD 02VO 02VC 02MD 02MO 10MC 02RD 02RO	0	1	3.48963308334	None	None	None	None	1
2.7	2015_Jun_04_1446	s	s	20	4	SIC	347	RC	1	1	02VD 02VO 02VC 02MD 09MO 02MC 02RD 02RO	1	0	1.29464697838	171.0	-105.0	177	-110	1
2.7	2015_Jun_04_1446	s	s	20	4	SIC	348	RC	0	1	02VD 02VO 02VC 02MD 02MO 02MC 02RD 09RO	1	0	1.66619110107	314.0	299.0	321	303	1
2.7	2015_Jun_04_1446	s	s	20	4	SIC	349	RC	0	2	02VD 02VO 02VC 02MD 02MO 02MC 09RD 02RO	1	0	1.14136695862	-419.0	-148.0	-419	-139	1
2.7	2015_Jun_04_1446	s	s	20	4	SIC	350	RC	2	2	09VD 02VO 02VC 02MD 02MO 02MC 02RD 02RO	1	0	2.42414784431	-509.0	263.0	-503	263	1
2.7	2015_Jun_04_1446	s	s	20	4	SIC	351	RC	1	0	02VD 02VO 02VC 02MD 02MO 09MC 02RD 02RO	1	0	0.720988988876	-503.0	-136.0	-501	-145	1
2.7	2015_Jun_04_1446	s	s	20	4	SIC	352	ABS	1	1	02VD 02VO 02VC 02MD 10MO 02MC 02RD 02RO	0	1	3.29015111923	None	None	None	None	1
2.7	2015_Jun_04_1446	s	s	20	4	SIC	353	RC	2	0	02VD 02VO 09VC 02MD 02MO 02MC 02RD 02RO	1	0	0.549083948135	-226.0	109.0	-221	107	1
2.7	2015_Jun_04_1446	s	s	20	4	SIC	354	RC	0	1	02VD 02VO 02VC 02MD 02MO 02MC 02RD 09RO	1	0	0.958950042725	-287.0	-10.0	-286	0	1
2.7	2015_Jun_04_1446	s	s	20	4	SIC	355	ABS	0	2	02VD 02VO 02VC 02MD 02MO 02MC 10RD 02RO	0	1	2.91859602928	None	None	None	None	1
2.7	2015_Jun_04_1446	s	s	20	4	SIC	356	RC	2	1	02VD 09VO 02VC 02MD 02MO 02MC 02RD 02RO	1	0	1.38831186295	53.0	-339.0	54	-338	1
2.7	2015_Jun_04_1446	s	s	20	4	SIC	357	RC	0	2	02VD 02VO 02VC 02MD 02MO 02MC 09RD 02RO	1	0	2.9023900032	-401.0	-139.0	-400	-138	1
2.7	2015_Jun_04_1446	s	s	20	4	SIC	358	RC	1	2	02VD 02VO 02VC 09MD 02MO 02MC 02RD 02RO	1	0	1.19998693466	125.0	239.0	123	238	1
2.7	2015_Jun_04_1446	s	s	20	4	SIC	359	ABS	2	2	10VD 02VO 02VC 02MD 02MO 02MC 02RD 02RO	0	1	2.12983298302	None	None	None	None	1
2.7	2015_Jun_04_1446	s	s	20	4	SIC	360	ABS	2	1	02VD 10VO 02VC 02MD 02MO 02MC 02RD 02RO	1	0	1.9243221283	None	None	-491	305	0
2.7	2015_Jun_04_1446	s	s	20	4	SIC	361	ABS	1	2	02VD 02VO 02VC 10MD 02MO 02MC 02RD 02RO	0	1	1.6590180397	None	None	None	None	1
2.7	2015_Jun_04_1446	s	s	20	4	SIC	362	RC	1	1	02VD 02VO 02VC 02MD 09MO 02MC 02RD 02RO	1	0	1.13656592369	141.0	-239.0	139	-243	1
2.7	2015_Jun_04_1446	s	s	20	4	SIC	363	ABS	2	0	02VD 02VO 10VC 02MD 02MO 02MC 02RD 02RO	0	1	1.12394881248	None	None	None	None	1
2.7	2015_Jun_04_1446	s	s	20	4	SIC	364	RC	1	0	02VD 02VO 02VC 02MD 02MO 09MC 02RD 02RO	1	0	1.39201593399	341.0	-179.0	333	-171	1
2.7	2015_Jun_04_1446	s	s	20	4	SIC	365	RC	2	2	09VD 02VO 02VC 02MD 02MO 02MC 02RD 02RO	1	0	1.08210396767	170.0	-190.0	176	-184	1
2.7	2015_Jun_04_1446	s	s	20	4	SIC	366	ABS	1	1	02VD 02VO 02VC 02MD 10MO 02MC 02RD 02RO	0	1	2.00948500633	None	None	None	None	1
2.7	2015_Jun_04_1446	s	s	20	4	SIC	367	ABS	1	0	02VD 02VO 02VC 02MD 02MO 10MC 02RD 02RO	0	1	3.24292778969	None	None	None	None	1
2.7	2015_Jun_04_1446	s	s	20	4	SIC	368	ABS	0	1	02VD 02VO 02VC 02MD 02MO 02MC 02RD 10RO	0	1	3.72826480865	None	None	None	None	1
2.7	2015_Jun_04_1446	s	s	20	4	SIC	369	ABS	1	2	02VD 02VO 02VC 10MD 02MO 02MC 02RD 02RO	0	1	1.31765413284	None	None	None	None	1
2.7	2015_Jun_04_1446	s	s	20	4	SIC	370	ABS	0	2	02VD 02VO 02VC 02MD 02MO 02MC 10RD 02RO	0	1	1.76238894463	None	None	None	None	1
2.7	2015_Jun_04_1446	s	s	20	4	SIC	371	ABS	1	1	02VD 02VO 02VC 02MD 10MO 02MC 02RD 02RO	0	1	3.00109791756	None	None	None	None	1
2.7	2015_Jun_04_1446	s	s	20	4	SIC	372	RC	2	2	09VD 02VO 02VC 02MD 02MO 02MC 02RD 02RO	1	0	0.964428186417	366.0	-252.0	357	-245	1
2.7	2015_Jun_04_1446	s	s	20	4	SIC	373	RC	1	2	02VD 02VO 02VC 09MD 02MO 02MC 02RD 02RO	1	0	1.00668478012	444.0	-141.0	430	-136	1
2.7	2015_Jun_04_1446	s	s	20	4	SIC	374	RC	0	1	02VD 02VO 02VC 02MD 02MO 02MC 02RD 09RO	1	0	1.83047199249	159.0	-167.0	164	-159	1
2.7	2015_Jun_04_1446	s	s	20	4	SIC	375	ABS	0	1	02VD 02VO 02VC 02MD 02MO 02MC 02RD 10RO	0	1	3.16101694107	None	None	None	None	1
2.7	2015_Jun_04_1446	s	s	20	4	SIC	376	RC	0	2	02VD 02VO 02VC 02MD 02MO 02MC 09RD 02RO	1	0	2.61952590942	-413.0	-274.0	-415	-273	1
2.7	2015_Jun_04_1446	s	s	20	4	SIC	377	RC	2	0	02VD 02VO 09VC 02MD 02MO 02MC 02RD 02RO	1	0	1.02342104912	116.0	209.0	117	207	1
2.7	2015_Jun_04_1446	s	s	20	4	SIC	378	RC	1	1	02VD 02VO 02VC 02MD 09MO 02MC 02RD 02RO	1	0	2.44428801537	204.0	223.0	207	220	1
2.7	2015_Jun_04_1446	s	s	20	4	SIC	379	ABS	2	0	02VD 02VO 10VC 02MD 02MO 02MC 02RD 02RO	0	1	2.62415909767	None	None	None	None	1
2.7	2015_Jun_04_1446	s	s	20	4	SIC	380	RC	1	0	02VD 02VO 02VC 02MD 02MO 09MC 02RD 02RO	0	1	4.07201313972	-389.0	297.0	None	None	0
2.7	2015_Jun_04_1446	s	s	20	4	SIC	381	ABS	1	0	02VD 02VO 02VC 02MD 02MO 10MC 02RD 02RO	0	1	1.97255706787	None	None	None	None	1
2.7	2015_Jun_04_1446	s	s	20	4	SIC	382	ABS	2	2	10VD 02VO 02VC 02MD 02MO 02MC 02RD 02RO	0	1	1.60053896904	None	None	None	None	1
2.7	2015_Jun_04_1446	s	s	20	4	SIC	383	ABS	2	1	02VD 10VO 02VC 02MD 02MO 02MC 02RD 02RO	0	1	3.63390398026	None	None	None	None	1
2.7	2015_Jun_04_1446	s	s	20	4	SIC	384	RC	2	1	02VD 09VO 02VC 02MD 02MO 02MC 02RD 02RO	1	0	2.11851596832	-497.0	374.0	-502	367	1
2.7	2015_Jun_04_1446	s	s	20	4	SIC	385	ABS	2	1	02VD 10VO 02VC 02MD 02MO 02MC 02RD 02RO	0	1	2.1718788147	None	None	None	None	1
2.7	2015_Jun_04_1446	s	s	20	4	SIC	386	RC	2	2	09VD 02VO 02VC 02MD 02MO 02MC 02RD 02RO	1	0	0.808355093002	176.0	379.0	176	379	1
2.7	2015_Jun_04_1446	s	s	20	4	SIC	387	RC	2	0	02VD 02VO 09VC 02MD 02MO 02MC 02RD 02RO	1	0	1.01793694496	352.0	-53.0	354	-44	1
2.7	2015_Jun_04_1446	s	s	20	4	SIC	388	RC	1	1	02VD 02VO 02VC 02MD 09MO 02MC 02RD 02RO	1	0	1.65368485451	354.0	-210.0	346	-210	1
2.7	2015_Jun_04_1446	s	s	20	4	SIC	389	RC	0	1	02VD 02VO 02VC 02MD 02MO 02MC 02RD 09RO	1	0	0.79967212677	-172.0	-139.0	-177	-131	1
2.7	2015_Jun_04_1446	s	s	20	4	SIC	390	ABS	0	2	02VD 02VO 02VC 02MD 02MO 02MC 10RD 02RO	0	1	1.94194793701	None	None	None	None	1
2.7	2015_Jun_04_1446	s	s	20	4	SIC	391	RC	2	1	02VD 09VO 02VC 02MD 02MO 02MC 02RD 02RO	1	0	1.68974804878	23.0	-384.0	27	-385	1
2.7	2015_Jun_04_1446	s	s	20	4	SIC	392	RC	1	0	02VD 02VO 02VC 02MD 02MO 09MC 02RD 02RO	1	0	1.23528814316	-530.0	351.0	-529	359	1
2.7	2015_Jun_04_1446	s	s	20	4	SIC	393	ABS	2	0	02VD 02VO 10VC 02MD 02MO 02MC 02RD 02RO	1	0	1.32378792763	None	None	304	-76	0
2.7	2015_Jun_04_1446	s	s	20	4	SIC	394	ABS	2	2	10VD 02VO 02VC 02MD 02MO 02MC 02RD 02RO	0	1	2.70102095604	None	None	None	None	1
2.7	2015_Jun_04_1446	s	s	20	4	SIC	395	RC	1	2	02VD 02VO 02VC 09MD 02MO 02MC 02RD 02RO	1	0	0.576140880585	-228.0	-6.0	-235	-3	1
2.7	2015_Jun_04_1446	s	s	20	4	SIC	396	ABS	1	0	02VD 02VO 02VC 02MD 02MO 10MC 02RD 02RO	0	1	2.73016881943	None	None	None	None	1
2.7	2015_Jun_04_1446	s	s	20	4	SIC	397	ABS	1	1	02VD 02VO 02VC 02MD 10MO 02MC 02RD 02RO	0	1	2.53010106087	None	None	None	None	1
2.7	2015_Jun_04_1446	s	s	20	4	SIC	398	ABS	1	2	02VD 02VO 02VC 10MD 02MO 02MC 02RD 02RO	0	1	2.90479302406	None	None	None	None	1
2.7	2015_Jun_04_1446	s	s	20	4	SIC	399	ABS	0	1	02VD 02VO 02VC 02MD 02MO 02MC 02RD 10RO	0	1	4.36133909225	None	None	None	None	1
2.7	2015_Jun_04_1446	s	s	20	4	SIC	400	RC	0	2	02VD 02VO 02VC 02MD 02MO 02MC 09RD 02RO	1	0	0.724169969559	153.0	-127.0	161	-132	1
2.7	2015_Jun_04_1446	s	s	20	4	SIC	401	ABS	1	0	02VD 02VO 02VC 02MD 02MO 10MC 02RD 02RO	0	1	2.88311290741	None	None	None	None	1
2.7	2015_Jun_04_1446	s	s	20	4	SIC	402	RC	0	1	02VD 02VO 02VC 02MD 02MO 02MC 02RD 09RO	1	0	1.25418710709	223.0	-123.0	225	-124	1
2.7	2015_Jun_04_1446	s	s	20	4	SIC	403	RC	2	1	02VD 09VO 02VC 02MD 02MO 02MC 02RD 02RO	1	0	0.547731161118	-289.0	20.0	-286	29	1
2.7	2015_Jun_04_1446	s	s	20	4	SIC	404	ABS	1	1	02VD 02VO 02VC 02MD 10MO 02MC 02RD 02RO	0	1	2.75361514091	None	None	None	None	1
2.7	2015_Jun_04_1446	s	s	20	4	SIC	405	RC	0	2	02VD 02VO 02VC 02MD 02MO 02MC 09RD 02RO	1	0	0.735907077789	6.0	17.0	3	21	1
2.7	2015_Jun_04_1446	s	s	20	4	SIC	406	RC	1	2	02VD 02VO 02VC 09MD 02MO 02MC 02RD 02RO	1	0	2.04258799553	426.0	402.0	427	409	1
2.7	2015_Jun_04_1446	s	s	20	4	SIC	407	RC	2	0	02VD 02VO 09VC 02MD 02MO 02MC 02RD 02RO	1	0	0.823264837265	392.0	-148.0	395	-141	1
2.7	2015_Jun_04_1446	s	s	20	4	SIC	408	ABS	1	2	02VD 02VO 02VC 10MD 02MO 02MC 02RD 02RO	0	1	1.80034780502	None	None	None	None	1
2.7	2015_Jun_04_1446	s	s	20	4	SIC	409	ABS	2	1	02VD 10VO 02VC 02MD 02MO 02MC 02RD 02RO	0	1	1.55310297012	None	None	None	None	1
2.7	2015_Jun_04_1446	s	s	20	4	SIC	410	ABS	0	2	02VD 02VO 02VC 02MD 02MO 02MC 10RD 02RO	0	1	1.4589509964	None	None	None	None	1
2.7	2015_Jun_04_1446	s	s	20	4	SIC	411	RC	2	2	09VD 02VO 02VC 02MD 02MO 02MC 02RD 02RO	1	0	1.01167821884	476.0	297.0	486	299	1
2.7	2015_Jun_04_1446	s	s	20	4	SIC	412	ABS	0	1	02VD 02VO 02VC 02MD 02MO 02MC 02RD 10RO	0	1	2.9150891304	None	None	None	None	1
2.7	2015_Jun_04_1446	s	s	20	4	SIC	413	ABS	2	0	02VD 02VO 10VC 02MD 02MO 02MC 02RD 02RO	0	1	1.51304101944	None	None	None	None	1
2.7	2015_Jun_04_1446	s	s	20	4	SIC	414	RC	1	0	02VD 02VO 02VC 02MD 02MO 09MC 02RD 02RO	1	0	1.78849196434	218.0	-210.0	216	-211	1
2.7	2015_Jun_04_1446	s	s	20	4	SIC	415	ABS	2	2	10VD 02VO 02VC 02MD 02MO 02MC 02RD 02RO	0	1	1.90186500549	None	None	None	None	1
2.7	2015_Jun_04_1446	s	s	20	4	SIC	416	RC	1	1	02VD 02VO 02VC 02MD 09MO 02MC 02RD 02RO	1	0	1.78846287727	-496.0	293.0	-499	293	1
2.7	2015_Jun_04_1446	s	s	20	4	SIC	417	RC	0	1	02VD 02VO 02VC 02MD 02MO 02MC 02RD 09RO	1	0	1.46261000633	162.0	130.0	171	138	1
2.7	2015_Jun_04_1446	s	s	20	4	SIC	418	RC	0	2	02VD 02VO 02VC 02MD 02MO 02MC 09RD 02RO	1	0	0.724236965179	-169.0	167.0	-169	162	1
2.7	2015_Jun_04_1446	s	s	20	4	SIC	419	RC	1	0	02VD 02VO 02VC 02MD 02MO 09MC 02RD 02RO	1	0	1.31252503395	76.0	-141.0	75	-134	1
2.7	2015_Jun_04_1446	s	s	20	4	SIC	420	ABS	2	2	10VD 02VO 02VC 02MD 02MO 02MC 02RD 02RO	0	1	2.26609301567	None	None	None	None	1
2.7	2015_Jun_04_1446	s	s	20	4	SIC	421	ABS	1	2	02VD 02VO 02VC 10MD 02MO 02MC 02RD 02RO	0	1	1.68255209923	None	None	None	None	1
2.7	2015_Jun_04_1446	s	s	20	4	SIC	422	ABS	1	1	02VD 02VO 02VC 02MD 10MO 02MC 02RD 02RO	0	1	2.71316814423	None	None	None	None	1
2.7	2015_Jun_04_1446	s	s	20	4	SIC	423	ABS	0	2	02VD 02VO 02VC 02MD 02MO 02MC 10RD 02RO	0	1	1.57665395737	None	None	None	None	1
2.7	2015_Jun_04_1446	s	s	20	4	SIC	424	ABS	2	1	02VD 10VO 02VC 02MD 02MO 02MC 02RD 02RO	0	1	1.92505216599	None	None	None	None	1
2.7	2015_Jun_04_1446	s	s	20	4	SIC	425	RC	1	1	02VD 02VO 02VC 02MD 09MO 02MC 02RD 02RO	1	0	1.09030604362	-411.0	-33.0	-411	-41	1
2.7	2015_Jun_04_1446	s	s	20	4	SIC	426	RC	1	2	02VD 02VO 02VC 09MD 02MO 02MC 02RD 02RO	1	0	0.717410087585	-288.0	-350.0	-291	-341	1
2.7	2015_Jun_04_1446	s	s	20	4	SIC	427	ABS	0	1	02VD 02VO 02VC 02MD 02MO 02MC 02RD 10RO	0	1	2.82987594604	None	None	None	None	1
2.7	2015_Jun_04_1446	s	s	20	4	SIC	428	RC	2	0	02VD 02VO 09VC 02MD 02MO 02MC 02RD 02RO	1	0	2.95362615585	300.0	345.0	303	338	1
2.7	2015_Jun_04_1446	s	s	20	4	SIC	429	ABS	2	0	02VD 02VO 10VC 02MD 02MO 02MC 02RD 02RO	0	1	2.0592110157	None	None	None	None	1
2.7	2015_Jun_04_1446	s	s	20	4	SIC	430	RC	2	1	02VD 09VO 02VC 02MD 02MO 02MC 02RD 02RO	1	0	1.74588108063	293.0	-29.0	297	-24	1
2.7	2015_Jun_04_1446	s	s	20	4	SIC	431	RC	2	2	09VD 02VO 02VC 02MD 02MO 02MC 02RD 02RO	1	0	2.03572201729	529.0	-95.0	526	-85	1
2.7	2015_Jun_04_1446	s	s	20	4	SIC	432	ABS	1	0	02VD 02VO 02VC 02MD 02MO 10MC 02RD 02RO	0	1	2.9486219883	None	None	None	None	1
2.7	2015_Jun_04_1446	s	s	20	4	SIC	433	ABS	0	1	02VD 02VO 02VC 02MD 02MO 02MC 02RD 10RO	0	1	4.57806110382	None	None	None	None	1
2.7	2015_Jun_04_1446	s	s	20	4	SIC	434	RC	2	0	02VD 02VO 09VC 02MD 02MO 02MC 02RD 02RO	1	0	1.3883190155	-517.0	356.0	-517	356	1
2.7	2015_Jun_04_1446	s	s	20	4	SIC	435	RC	2	1	02VD 09VO 02VC 02MD 02MO 02MC 02RD 02RO	1	0	1.04696702957	-327.0	-192.0	-339	-188	1
2.7	2015_Jun_04_1446	s	s	20	4	SIC	436	ABS	2	0	02VD 02VO 10VC 02MD 02MO 02MC 02RD 02RO	0	1	7.39125299454	None	None	None	None	1
2.7	2015_Jun_04_1446	s	s	20	4	SIC	437	ABS	1	0	02VD 02VO 02VC 02MD 02MO 10MC 02RD 02RO	0	1	3.21280097961	None	None	None	None	1
2.7	2015_Jun_04_1446	s	s	20	4	SIC	438	RC	0	1	02VD 02VO 02VC 02MD 02MO 02MC 02RD 09RO	0	1	4.40156722069	33.0	-177.0	None	None	0
2.7	2015_Jun_04_1446	s	s	20	4	SIC	439	RC	1	1	02VD 02VO 02VC 02MD 09MO 02MC 02RD 02RO	1	0	1.23521709442	164.0	-315.0	171	-316	1
2.7	2015_Jun_04_1446	s	s	20	4	SIC	440	ABS	0	2	02VD 02VO 02VC 02MD 02MO 02MC 10RD 02RO	0	1	4.37312483788	None	None	None	None	1
2.7	2015_Jun_04_1446	s	s	20	4	SIC	441	ABS	2	1	02VD 10VO 02VC 02MD 02MO 02MC 02RD 02RO	0	1	1.96023178101	None	None	None	None	1
2.7	2015_Jun_04_1446	s	s	20	4	SIC	442	ABS	1	2	02VD 02VO 02VC 10MD 02MO 02MC 02RD 02RO	0	1	2.14828300476	None	None	None	None	1
2.7	2015_Jun_04_1446	s	s	20	4	SIC	443	ABS	2	2	10VD 02VO 02VC 02MD 02MO 02MC 02RD 02RO	0	1	1.68264102936	None	None	None	None	1
2.7	2015_Jun_04_1446	s	s	20	4	SIC	444	RC	1	2	02VD 02VO 02VC 09MD 02MO 02MC 02RD 02RO	1	0	1.35298895836	-51.0	-363.0	-48	-365	1
2.7	2015_Jun_04_1446	s	s	20	4	SIC	445	RC	0	2	02VD 02VO 02VC 02MD 02MO 02MC 09RD 02RO	1	0	1.26738286018	-49.0	304.0	-47	307	1
2.7	2015_Jun_04_1446	s	s	20	4	SIC	446	RC	1	0	02VD 02VO 02VC 02MD 02MO 09MC 02RD 02RO	1	0	2.82229423523	-523.0	405.0	-522	414	1
2.7	2015_Jun_04_1446	s	s	20	4	SIC	447	ABS	1	1	02VD 02VO 02VC 02MD 10MO 02MC 02RD 02RO	0	1	2.68308496475	None	None	None	None	1
2.7	2015_Jun_04_1446	s	s	20	4	SIC	448	RC	2	2	09VD 02VO 02VC 02MD 02MO 02MC 02RD 02RO	0	1	1.953343153	-459.0	-359.0	None	None	0
2.7	2015_Jun_04_1446	s	s	20	4	SIC	449	ABS	1	2	02VD 02VO 02VC 10MD 02MO 02MC 02RD 02RO	0	1	1.54133605957	None	None	None	None	1
2.7	2015_Jun_04_1446	s	s	20	4	SIC	450	RC	1	0	02VD 02VO 02VC 02MD 02MO 09MC 02RD 02RO	1	0	1.02371096611	429.0	39.0	425	40	1
2.7	2015_Jun_04_1446	s	s	20	4	SIC	451	ABS	2	0	02VD 02VO 10VC 02MD 02MO 02MC 02RD 02RO	0	1	1.22714400291	None	None	None	None	1
2.7	2015_Jun_04_1446	s	s	20	4	SIC	452	RC	2	0	02VD 02VO 09VC 02MD 02MO 02MC 02RD 02RO	1	0	1.51776909828	-505.0	324.0	-505	318	1
2.7	2015_Jun_04_1446	s	s	20	4	SIC	453	RC	1	1	02VD 02VO 02VC 02MD 09MO 02MC 02RD 02RO	1	0	1.38316702843	151.0	139.0	157	142	1
2.7	2015_Jun_04_1446	s	s	20	4	SIC	454	ABS	2	1	02VD 10VO 02VC 02MD 02MO 02MC 02RD 02RO	0	1	1.21172595024	None	None	None	None	1
2.7	2015_Jun_04_1446	s	s	20	4	SIC	455	RC	2	1	02VD 09VO 02VC 02MD 02MO 02MC 02RD 02RO	1	0	0.984287023544	217.0	374.0	211	367	1
2.7	2015_Jun_04_1446	s	s	20	4	SIC	456	ABS	0	1	02VD 02VO 02VC 02MD 02MO 02MC 02RD 10RO	0	1	3.37271404266	None	None	None	None	1
2.7	2015_Jun_04_1446	s	s	20	4	SIC	457	ABS	1	1	02VD 02VO 02VC 02MD 10MO 02MC 02RD 02RO	0	1	2.5887928009	None	None	None	None	1
2.7	2015_Jun_04_1446	s	s	20	4	SIC	458	RC	0	2	02VD 02VO 02VC 02MD 02MO 02MC 09RD 02RO	1	0	1.23526787758	352.0	286.0	349	290	1
2.7	2015_Jun_04_1446	s	s	20	4	SIC	459	RC	2	2	09VD 02VO 02VC 02MD 02MO 02MC 02RD 02RO	1	0	2.03060483932	411.0	-254.0	413	-252	1
2.7	2015_Jun_04_1446	s	s	20	4	SIC	460	ABS	1	0	02VD 02VO 02VC 02MD 02MO 10MC 02RD 02RO	0	1	1.74855399132	None	None	None	None	1
2.7	2015_Jun_04_1446	s	s	20	4	SIC	461	ABS	0	2	02VD 02VO 02VC 02MD 02MO 02MC 10RD 02RO	0	1	1.44713711739	None	None	None	None	1
2.7	2015_Jun_04_1446	s	s	20	4	SIC	462	ABS	2	2	10VD 02VO 02VC 02MD 02MO 02MC 02RD 02RO	0	1	2.13795590401	None	None	None	None	1
2.7	2015_Jun_04_1446	s	s	20	4	SIC	463	RC	1	2	02VD 02VO 02VC 09MD 02MO 02MC 02RD 02RO	1	0	1.915143013	508.0	192.0	506	192	1
2.7	2015_Jun_04_1446	s	s	20	4	SIC	464	RC	0	1	02VD 02VO 02VC 02MD 02MO 02MC 02RD 09RO	1	0	2.01892590523	458.0	75.0	463	78	1
2.7	2015_Jun_04_1446	s	s	20	4	SIC	465	RC	0	2	02VD 02VO 02VC 02MD 02MO 02MC 09RD 02RO	1	0	0.652241945267	-179.0	-125.0	-180	-119	1
2.7	2015_Jun_04_1446	s	s	20	4	SIC	466	RC	1	2	02VD 02VO 02VC 09MD 02MO 02MC 02RD 02RO	1	0	1.64729690552	-355.0	329.0	-349	335	1
2.7	2015_Jun_04_1446	s	s	20	4	SIC	467	RC	1	0	02VD 02VO 02VC 02MD 02MO 09MC 02RD 02RO	1	0	1.64714384079	518.0	145.0	514	143	1
2.7	2015_Jun_04_1446	s	s	20	4	SIC	468	RC	2	2	09VD 02VO 02VC 02MD 02MO 02MC 02RD 02RO	1	0	0.785527944565	303.0	104.0	299	107	1
2.7	2015_Jun_04_1446	s	s	20	4	SIC	469	ABS	0	1	02VD 02VO 02VC 02MD 02MO 02MC 02RD 10RO	0	1	3.90327191353	None	None	None	None	1
2.7	2015_Jun_04_1446	s	s	20	4	SIC	470	RC	2	1	02VD 09VO 02VC 02MD 02MO 02MC 02RD 02RO	1	0	0.823296785355	169.0	132.0	177	142	1
2.7	2015_Jun_04_1446	s	s	20	4	SIC	471	ABS	1	1	02VD 02VO 02VC 02MD 10MO 02MC 02RD 02RO	0	1	2.88306999207	None	None	None	None	1
2.7	2015_Jun_04_1446	s	s	20	4	SIC	472	ABS	1	0	02VD 02VO 02VC 02MD 02MO 10MC 02RD 02RO	0	1	2.24752402306	None	None	None	None	1
2.7	2015_Jun_04_1446	s	s	20	4	SIC	473	ABS	2	2	10VD 02VO 02VC 02MD 02MO 02MC 02RD 02RO	0	1	1.33800911903	None	None	None	None	1
2.7	2015_Jun_04_1446	s	s	20	4	SIC	474	ABS	1	2	02VD 02VO 02VC 10MD 02MO 02MC 02RD 02RO	0	1	1.48937392235	None	None	None	None	1
2.7	2015_Jun_04_1446	s	s	20	4	SIC	475	RC	2	0	02VD 02VO 09VC 02MD 02MO 02MC 02RD 02RO	1	0	0.835108995438	-132.0	-46.0	-132	-55	1
2.7	2015_Jun_04_1446	s	s	20	4	SIC	476	ABS	2	0	02VD 02VO 10VC 02MD 02MO 02MC 02RD 02RO	0	1	1.92651104927	None	None	None	None	1
2.7	2015_Jun_04_1446	s	s	20	4	SIC	477	ABS	0	2	02VD 02VO 02VC 02MD 02MO 02MC 10RD 02RO	0	1	1.78349685669	None	None	None	None	1
2.7	2015_Jun_04_1446	s	s	20	4	SIC	478	RC	1	1	02VD 02VO 02VC 02MD 09MO 02MC 02RD 02RO	1	0	1.12935686111	-202.0	-258.0	-204	-253	1
2.7	2015_Jun_04_1446	s	s	20	4	SIC	479	RC	0	1	02VD 02VO 02VC 02MD 02MO 02MC 02RD 09RO	1	0	1.97365617752	-47.0	-316.0	-52	-317	1
2.7	2015_Jun_04_1446	s	s	20	4	SIC	480	ABS	2	1	02VD 10VO 02VC 02MD 02MO 02MC 02RD 02RO	0	1	1.51772594452	None	None	None	None	1
