Version	Date	Stimuli	Method	Subject	Session	Condition	Trial	Target	Channel1	Channel2	Distractors	LMouseButton	RMouseButton	RT	TargetX	TargetY	ResponseX	ResponseY	Correct
2.7	2015_Jun_03_1451	s	s	20	3	Capacity	1	ABS	0	1	08RD 16RO	0	1	7.49723291397	None	None	None	None	1
2.7	2015_Jun_03_1451	s	s	20	3	Capacity	2	RC	0	2	15RD 08RO	1	0	1.08223891258	-366.0	119.0	-360	118	1
2.7	2015_Jun_03_1451	s	s	20	3	Capacity	3	RC	0	1	08RD 15RO	1	0	1.29851603508	-229.0	-308.0	-223	-316	1
2.7	2015_Jun_03_1451	s	s	20	3	Capacity	4	ABS	0	2	16RD 08RO	0	1	2.57724404335	None	None	None	None	1
2.7	2015_Jun_03_1451	s	s	20	3	Capacity	5	RC	0	1	08RD 15RO	1	0	4.36128997803	406.0	-351.0	413	-356	1
2.7	2015_Jun_03_1451	s	s	20	3	Capacity	6	ABS	0	2	16RD 08RO	0	1	2.45460391045	None	None	None	None	1
2.7	2015_Jun_03_1451	s	s	20	3	Capacity	7	RC	0	2	15RD 08RO	1	0	0.882040977478	21.0	-309.0	25	-307	1
2.7	2015_Jun_03_1451	s	s	20	3	Capacity	8	ABS	0	1	08RD 16RO	0	1	7.1411459446	None	None	None	None	1
2.7	2015_Jun_03_1451	s	s	20	3	Capacity	9	ABS	0	1	08RD 16RO	0	1	5.58536481857	None	None	None	None	1
2.7	2015_Jun_03_1451	s	s	20	3	Capacity	10	RC	0	1	08RD 15RO	1	0	1.7833199501	429.0	301.0	430	309	1
2.7	2015_Jun_03_1451	s	s	20	3	Capacity	11	ABS	0	2	16RD 08RO	0	1	3.56076908112	None	None	None	None	1
2.7	2015_Jun_03_1451	s	s	20	3	Capacity	12	RC	0	2	15RD 08RO	1	0	1.55975985527	418.0	56.0	419	61	1
2.7	2015_Jun_03_1451	s	s	20	3	Capacity	13	RC	0	2	15RD 08RO	1	0	0.917466163635	-344.0	-131.0	-347	-133	1
2.7	2015_Jun_03_1451	s	s	20	3	Capacity	14	RC	0	1	08RD 15RO	1	0	1.84736704826	-146.0	365.0	-144	362	1
2.7	2015_Jun_03_1451	s	s	20	3	Capacity	15	ABS	0	2	16RD 08RO	0	1	2.58434987068	None	None	None	None	1
2.7	2015_Jun_03_1451	s	s	20	3	Capacity	16	ABS	0	1	08RD 16RO	0	1	7.22294092178	None	None	None	None	1
2.7	2015_Jun_03_1451	s	s	20	3	Capacity	17	RC	0	1	08RD 15RO	1	0	2.73017692566	510.0	-395.0	522	-389	1
2.7	2015_Jun_03_1451	s	s	20	3	Capacity	18	ABS	0	2	16RD 08RO	0	1	2.7252869606	None	None	None	None	1
2.7	2015_Jun_03_1451	s	s	20	3	Capacity	19	ABS	0	1	08RD 16RO	0	1	5.1257390976	None	None	None	None	1
2.7	2015_Jun_03_1451	s	s	20	3	Capacity	20	RC	0	2	15RD 08RO	1	0	1.80027413368	445.0	304.0	452	300	1
2.7	2015_Jun_03_1451	s	s	20	3	Capacity	21	RC	0	2	15RD 08RO	1	0	1.80029296875	-495.0	-89.0	-496	-84	1
2.7	2015_Jun_03_1451	s	s	20	3	Capacity	22	RC	0	1	08RD 15RO	1	0	1.25375509262	-489.0	-309.0	-500	-309	1
2.7	2015_Jun_03_1451	s	s	20	3	Capacity	23	ABS	0	2	16RD 08RO	0	1	2.73858714104	None	None	None	None	1
2.7	2015_Jun_03_1451	s	s	20	3	Capacity	24	ABS	0	1	08RD 16RO	0	1	6.65651917458	None	None	None	None	1
2.7	2015_Jun_03_1451	s	s	20	3	Capacity	25	RC	0	2	15RD 08RO	1	0	0.870413064957	-453.0	0.0	-456	8	1
2.7	2015_Jun_03_1451	s	s	20	3	Capacity	26	RC	0	1	08RD 15RO	1	0	1.37143492699	188.0	-62.0	182	-65	1
2.7	2015_Jun_03_1451	s	s	20	3	Capacity	27	ABS	0	1	08RD 16RO	0	1	7.01010203362	None	None	None	None	1
2.7	2015_Jun_03_1451	s	s	20	3	Capacity	28	ABS	0	2	16RD 08RO	0	1	3.29017114639	None	None	None	None	1
2.7	2015_Jun_03_1451	s	s	20	3	Capacity	29	RC	0	2	15RD 08RO	1	0	1.01156306267	-43.0	-6.0	-43	2	1
2.7	2015_Jun_03_1451	s	s	20	3	Capacity	30	RC	0	1	08RD 15RO	1	0	2.05435585976	261.0	-149.0	259	-144	1
2.7	2015_Jun_03_1451	s	s	20	3	Capacity	31	ABS	0	2	16RD 08RO	0	1	3.31872010231	None	None	None	None	1
2.7	2015_Jun_03_1451	s	s	20	3	Capacity	32	ABS	0	1	08RD 16RO	0	1	5.52882814407	None	None	None	None	1
2.7	2015_Jun_03_1451	s	s	20	3	Capacity	33	RC	0	1	08RD 15RO	1	0	1.11267280579	136.0	-305.0	145	-308	1
2.7	2015_Jun_03_1451	s	s	20	3	Capacity	34	ABS	0	2	16RD 08RO	0	1	3.26636314392	None	None	None	None	1
2.7	2015_Jun_03_1451	s	s	20	3	Capacity	35	ABS	0	1	08RD 16RO	0	1	5.24907898903	None	None	None	None	1
2.7	2015_Jun_03_1451	s	s	20	3	Capacity	36	RC	0	2	15RD 08RO	1	0	1.35066008568	-512.0	95.0	-512	85	1
2.7	2015_Jun_03_1451	s	s	20	3	Capacity	37	RC	0	2	15RD 08RO	1	0	1.04133892059	164.0	-14.0	174	-12	1
2.7	2015_Jun_03_1451	s	s	20	3	Capacity	38	RC	0	1	08RD 15RO	1	0	2.21916890144	484.0	180.0	477	183	1
2.7	2015_Jun_03_1451	s	s	20	3	Capacity	39	ABS	0	2	16RD 08RO	0	1	3.03988099098	None	None	None	None	1
2.7	2015_Jun_03_1451	s	s	20	3	Capacity	40	ABS	0	1	08RD 16RO	0	1	4.21332597733	None	None	None	None	1
2.7	2015_Jun_03_1451	s	s	20	3	Capacity	41	ABS	0	1	08RD 16RO	0	1	5.99983215332	None	None	None	None	1
2.7	2015_Jun_03_1451	s	s	20	3	Capacity	42	RC	0	1	08RD 15RO	1	0	1.18333387375	-528.0	325.0	-523	318	1
2.7	2015_Jun_03_1451	s	s	20	3	Capacity	43	RC	0	2	15RD 08RO	1	0	1.27974200249	-420.0	101.0	-424	106	1
2.7	2015_Jun_03_1451	s	s	20	3	Capacity	44	ABS	0	2	16RD 08RO	0	1	2.44266700745	None	None	None	None	1
2.7	2015_Jun_03_1451	s	s	20	3	Capacity	45	ABS	0	1	08RD 16RO	0	1	5.84659314156	None	None	None	None	1
2.7	2015_Jun_03_1451	s	s	20	3	Capacity	46	RC	0	1	08RD 15RO	1	0	1.2121360302	313.0	-78.0	314	-79	1
2.7	2015_Jun_03_1451	s	s	20	3	Capacity	47	ABS	0	2	16RD 08RO	0	1	2.73010206223	None	None	None	None	1
2.7	2015_Jun_03_1451	s	s	20	3	Capacity	48	RC	0	2	15RD 08RO	1	0	1.10104608536	270.0	219.0	264	217	1
2.7	2015_Jun_03_1451	s	s	20	3	Capacity	49	RC	0	2	15RD 08RO	1	0	1.99609804153	252.0	411.0	244	410	1
2.7	2015_Jun_03_1451	s	s	20	3	Capacity	50	ABS	0	2	16RD 08RO	0	1	3.0009021759	None	None	None	None	1
2.7	2015_Jun_03_1451	s	s	20	3	Capacity	51	RC	0	1	08RD 15RO	1	0	3.24442887306	524.0	-143.0	527	-143	1
2.7	2015_Jun_03_1451	s	s	20	3	Capacity	52	ABS	0	1	08RD 16RO	0	1	6.01001691818	None	None	None	None	1
2.7	2015_Jun_03_1451	s	s	20	3	Capacity	53	ABS	0	2	16RD 08RO	0	1	4.36624693871	None	None	None	None	1
2.7	2015_Jun_03_1451	s	s	20	3	Capacity	54	ABS	0	1	08RD 16RO	0	1	7.22637200356	None	None	None	None	1
2.7	2015_Jun_03_1451	s	s	20	3	Capacity	55	RC	0	1	08RD 15RO	1	0	1.81208586693	520.0	312.0	525	310	1
2.7	2015_Jun_03_1451	s	s	20	3	Capacity	56	RC	0	2	15RD 08RO	1	0	2.88313007355	398.0	-395.0	400	-392	1
2.7	2015_Jun_03_1451	s	s	20	3	Capacity	57	RC	0	2	15RD 08RO	1	0	1.30265784264	411.0	71.0	408	75	1
2.7	2015_Jun_03_1451	s	s	20	3	Capacity	58	ABS	0	1	08RD 16RO	0	1	5.77874207497	None	None	None	None	1
2.7	2015_Jun_03_1451	s	s	20	3	Capacity	59	ABS	0	2	16RD 08RO	0	1	3.67765307426	None	None	None	None	1
2.7	2015_Jun_03_1451	s	s	20	3	Capacity	60	RC	0	1	08RD 15RO	1	0	2.03573107719	157.0	401.0	151	395	1
2.7	2015_Jun_03_1451	s	s	20	3	Capacity	61	RC	0	2	15RD 08RO	1	0	1.20036482811	-186.0	-122.0	-178	-120	1
2.7	2015_Jun_03_1451	s	s	20	3	Capacity	62	ABS	0	2	16RD 08RO	0	1	2.31307506561	None	None	None	None	1
2.7	2015_Jun_03_1451	s	s	20	3	Capacity	63	RC	0	1	08RD 15RO	1	0	2.74191188812	-201.0	-172.0	-192	-174	1
2.7	2015_Jun_03_1451	s	s	20	3	Capacity	64	ABS	0	1	08RD 16RO	0	0	-1	None	None	None	None	-1
2.7	2015_Jun_03_1451	s	s	20	3	Capacity	1	RC	2	0	15VC 08MC	1	0	0.912491083145	-48.0	411.0	-53	404	1
2.7	2015_Jun_03_1451	s	s	20	3	Capacity	2	ABS	2	0	16VC 08MC	0	1	2.33477902412	None	None	None	None	1
2.7	2015_Jun_03_1451	s	s	20	3	Capacity	3	RC	1	0	08VC 15MC	1	0	1.92540407181	275.0	208.0	281	205	1
2.7	2015_Jun_03_1451	s	s	20	3	Capacity	4	ABS	1	0	08VC 16MC	0	1	2.97186088562	None	None	None	None	1
2.7	2015_Jun_03_1451	s	s	20	3	Capacity	5	ABS	2	0	16VC 08MC	0	1	1.77671408653	None	None	None	None	1
2.7	2015_Jun_03_1451	s	s	20	3	Capacity	6	RC	2	0	15VC 08MC	1	0	1.05089902878	-331.0	-347.0	-320	-343	1
2.7	2015_Jun_03_1451	s	s	20	3	Capacity	7	RC	1	0	08VC 15MC	1	0	1.61917996407	-465.0	-210.0	-467	-209	1
2.7	2015_Jun_03_1451	s	s	20	3	Capacity	8	ABS	1	0	08VC 16MC	0	1	3.37516903877	None	None	None	None	1
2.7	2015_Jun_03_1451	s	s	20	3	Capacity	9	ABS	2	0	16VC 08MC	0	1	3.14586019516	None	None	None	None	1
2.7	2015_Jun_03_1451	s	s	20	3	Capacity	10	RC	2	0	15VC 08MC	1	0	1.07052898407	-429.0	-86.0	-428	-78	1
2.7	2015_Jun_03_1451	s	s	20	3	Capacity	11	RC	1	0	08VC 15MC	1	0	0.947770118713	506.0	2.0	501	3	1
2.7	2015_Jun_03_1451	s	s	20	3	Capacity	12	ABS	1	0	08VC 16MC	0	1	3.10680890083	None	None	None	None	1
2.7	2015_Jun_03_1451	s	s	20	3	Capacity	13	ABS	1	0	08VC 16MC	0	1	2.43110394478	None	None	None	None	1
2.7	2015_Jun_03_1451	s	s	20	3	Capacity	14	ABS	2	0	16VC 08MC	0	1	2.35350394249	None	None	None	None	1
2.7	2015_Jun_03_1451	s	s	20	3	Capacity	15	RC	1	0	08VC 15MC	1	0	1.97199487686	-270.0	409.0	-266	408	1
2.7	2015_Jun_03_1451	s	s	20	3	Capacity	16	RC	2	0	15VC 08MC	1	0	0.771435022354	-57.0	314.0	-52	312	1
2.7	2015_Jun_03_1451	s	s	20	3	Capacity	17	ABS	1	0	08VC 16MC	0	1	2.4308359623	None	None	None	None	1
2.7	2015_Jun_03_1451	s	s	20	3	Capacity	18	ABS	2	0	16VC 08MC	0	1	3.07874703407	None	None	None	None	1
2.7	2015_Jun_03_1451	s	s	20	3	Capacity	19	RC	1	0	08VC 15MC	1	0	0.823307037354	118.0	-246.0	113	-245	1
2.7	2015_Jun_03_1451	s	s	20	3	Capacity	20	RC	2	0	15VC 08MC	1	0	1.24201488495	531.0	-42.0	539	-35	1
2.7	2015_Jun_03_1451	s	s	20	3	Capacity	21	RC	1	0	08VC 15MC	1	0	1.69434309006	207.0	354.0	202	353	1
2.7	2015_Jun_03_1451	s	s	20	3	Capacity	22	ABS	2	0	16VC 08MC	0	1	3.1958360672	None	None	None	None	1
2.7	2015_Jun_03_1451	s	s	20	3	Capacity	23	RC	2	0	15VC 08MC	1	0	0.74091386795	11.0	312.0	9	306	1
2.7	2015_Jun_03_1451	s	s	20	3	Capacity	24	ABS	1	0	08VC 16MC	0	1	2.05442404747	None	None	None	None	1
2.7	2015_Jun_03_1451	s	s	20	3	Capacity	25	RC	2	0	15VC 08MC	1	0	0.670505046844	-344.0	-236.0	-349	-230	1
2.7	2015_Jun_03_1451	s	s	20	3	Capacity	26	RC	1	0	08VC 15MC	1	0	0.999874830246	-489.0	204.0	-486	207	1
2.7	2015_Jun_03_1451	s	s	20	3	Capacity	27	ABS	2	0	16VC 08MC	0	1	2.03068399429	None	None	None	None	1
2.7	2015_Jun_03_1451	s	s	20	3	Capacity	28	ABS	1	0	08VC 16MC	0	1	3.43644404411	None	None	None	None	1
2.7	2015_Jun_03_1451	s	s	20	3	Capacity	29	ABS	2	0	16VC 08MC	0	1	3.0012550354	None	None	None	None	1
2.7	2015_Jun_03_1451	s	s	20	3	Capacity	30	RC	2	0	15VC 08MC	1	0	0.841656923294	-328.0	-213.0	-328	-212	1
2.7	2015_Jun_03_1451	s	s	20	3	Capacity	31	ABS	1	0	08VC 16MC	0	1	2.65582489967	None	None	None	None	1
2.7	2015_Jun_03_1451	s	s	20	3	Capacity	32	RC	1	0	08VC 15MC	1	0	0.606199979782	51.0	20.0	52	24	1
2.7	2015_Jun_03_1451	s	s	20	3	Capacity	33	RC	2	0	15VC 08MC	1	0	0.769937992096	-87.0	37.0	-88	37	1
2.7	2015_Jun_03_1451	s	s	20	3	Capacity	34	ABS	1	0	08VC 16MC	0	1	3.48965597153	None	None	None	None	1
2.7	2015_Jun_03_1451	s	s	20	3	Capacity	35	ABS	2	0	16VC 08MC	0	1	3.38933300972	None	None	None	None	1
2.7	2015_Jun_03_1451	s	s	20	3	Capacity	36	RC	1	0	08VC 15MC	1	0	1.51313996315	493.0	-380.0	491	-376	1
2.7	2015_Jun_03_1451	s	s	20	3	Capacity	37	RC	2	0	15VC 08MC	1	0	0.90571308136	161.0	-52.0	171	-49	1
2.7	2015_Jun_03_1451	s	s	20	3	Capacity	38	ABS	1	0	08VC 16MC	0	1	2.49480700493	None	None	None	None	1
2.7	2015_Jun_03_1451	s	s	20	3	Capacity	39	ABS	2	0	16VC 08MC	0	1	6.17895412445	None	None	None	None	1
2.7	2015_Jun_03_1451	s	s	20	3	Capacity	40	RC	1	0	08VC 15MC	1	0	1.49423694611	414.0	408.0	418	412	1
2.7	2015_Jun_03_1451	s	s	20	3	Capacity	41	RC	1	0	08VC 15MC	1	0	1.10588788986	254.0	235.0	257	240	1
2.7	2015_Jun_03_1451	s	s	20	3	Capacity	42	ABS	1	0	08VC 16MC	0	1	3.55408215523	None	None	None	None	1
2.7	2015_Jun_03_1451	s	s	20	3	Capacity	43	ABS	2	0	16VC 08MC	0	1	2.29465699196	None	None	None	None	1
2.7	2015_Jun_03_1451	s	s	20	3	Capacity	44	RC	2	0	15VC 08MC	1	0	2.92553496361	-338.0	265.0	-344	274	1
2.7	2015_Jun_03_1451	s	s	20	3	Capacity	45	ABS	1	0	08VC 16MC	0	1	2.85963797569	None	None	None	None	1
2.7	2015_Jun_03_1451	s	s	20	3	Capacity	46	RC	1	0	08VC 15MC	1	0	1.05910897255	448.0	196.0	444	197	1
2.7	2015_Jun_03_1451	s	s	20	3	Capacity	47	RC	2	0	15VC 08MC	1	0	0.782930135727	-157.0	269.0	-152	276	1
2.7	2015_Jun_03_1451	s	s	20	3	Capacity	48	ABS	2	0	16VC 08MC	0	1	2.52498793602	None	None	None	None	1
2.7	2015_Jun_03_1451	s	s	20	3	Capacity	49	ABS	1	0	08VC 16MC	0	1	2.40053200722	None	None	None	None	1
2.7	2015_Jun_03_1451	s	s	20	3	Capacity	50	ABS	2	0	16VC 08MC	0	1	3.66608381271	None	None	None	None	1
2.7	2015_Jun_03_1451	s	s	20	3	Capacity	51	RC	1	0	08VC 15MC	1	0	0.870438098907	82.0	-393.0	83	-387	1
2.7	2015_Jun_03_1451	s	s	20	3	Capacity	52	RC	2	0	15VC 08MC	1	0	0.78543806076	200.0	327.0	209	323	1
2.7	2015_Jun_03_1451	s	s	20	3	Capacity	53	ABS	1	0	08VC 16MC	0	1	2.41969108582	None	None	None	None	1
2.7	2015_Jun_03_1451	s	s	20	3	Capacity	54	RC	1	0	08VC 15MC	1	0	0.771379947662	-224.0	-132.0	-223	-125	1
2.7	2015_Jun_03_1451	s	s	20	3	Capacity	55	RC	2	0	15VC 08MC	1	0	0.771425962448	370.0	-151.0	375	-143	1
2.7	2015_Jun_03_1451	s	s	20	3	Capacity	56	ABS	2	0	16VC 08MC	0	1	2.74875092506	None	None	None	None	1
2.7	2015_Jun_03_1451	s	s	20	3	Capacity	57	ABS	1	0	08VC 16MC	0	0	-1	None	None	None	None	-1
2.7	2015_Jun_03_1451	s	s	20	3	Capacity	58	RC	2	0	15VC 08MC	1	0	18.8137879372	340.0	-279.0	340	-274	1
2.7	2015_Jun_03_1451	s	s	20	3	Capacity	59	RC	1	0	08VC 15MC	1	0	0.682049036026	210.0	290.0	208	285	1
2.7	2015_Jun_03_1451	s	s	20	3	Capacity	60	ABS	2	0	16VC 08MC	0	1	2.44766306877	None	None	None	None	1
2.7	2015_Jun_03_1451	s	s	20	3	Capacity	61	RC	1	0	08VC 15MC	1	0	0.700742006302	-361.0	-53.0	-362	-49	1
2.7	2015_Jun_03_1451	s	s	20	3	Capacity	62	RC	2	0	15VC 08MC	1	0	0.524199962616	194.0	25.0	195	25	1
2.7	2015_Jun_03_1451	s	s	20	3	Capacity	63	ABS	2	0	16VC 08MC	1	0	1.26566386223	None	None	281	380	0
2.7	2015_Jun_03_1451	s	s	20	3	Capacity	64	ABS	1	0	08VC 16MC	0	1	1.88937687874	None	None	None	None	1
2.7	2015_Jun_03_1451	s	s	20	3	SIC	1	ABS	1	1	02VD 02VO 02VC 02MD 10MO 02MC 02RD 02RO	0	1	2.23077297211	None	None	None	None	1
2.7	2015_Jun_03_1451	s	s	20	3	SIC	2	ABS	2	1	02VD 10VO 02VC 02MD 02MO 02MC 02RD 02RO	0	1	3.6552028656	None	None	None	None	1
2.7	2015_Jun_03_1451	s	s	20	3	SIC	3	RC	0	2	02VD 02VO 02VC 02MD 02MO 02MC 09RD 02RO	1	0	0.635068893433	13.0	-102.0	22	-97	1
2.7	2015_Jun_03_1451	s	s	20	3	SIC	4	ABS	2	2	10VD 02VO 02VC 02MD 02MO 02MC 02RD 02RO	0	1	4.42509102821	None	None	None	None	1
2.7	2015_Jun_03_1451	s	s	20	3	SIC	5	RC	0	1	02VD 02VO 02VC 02MD 02MO 02MC 02RD 09RO	1	0	1.15292000771	-116.0	-207.0	-126	-203	1
2.7	2015_Jun_03_1451	s	s	20	3	SIC	6	ABS	0	2	02VD 02VO 02VC 02MD 02MO 02MC 10RD 02RO	0	1	2.52506709099	None	None	None	None	1
2.7	2015_Jun_03_1451	s	s	20	3	SIC	7	ABS	2	0	02VD 02VO 10VC 02MD 02MO 02MC 02RD 02RO	0	1	2.12991786003	None	None	None	None	1
2.7	2015_Jun_03_1451	s	s	20	3	SIC	8	RC	1	2	02VD 02VO 02VC 09MD 02MO 02MC 02RD 02RO	1	0	0.677026987076	-352.0	139.0	-351	132	1
2.7	2015_Jun_03_1451	s	s	20	3	SIC	9	RC	2	0	02VD 02VO 09VC 02MD 02MO 02MC 02RD 02RO	1	0	0.893950939178	-212.0	326.0	-216	330	1
2.7	2015_Jun_03_1451	s	s	20	3	SIC	10	RC	1	0	02VD 02VO 02VC 02MD 02MO 09MC 02RD 02RO	1	0	1.48243498802	-185.0	166.0	-177	170	1
2.7	2015_Jun_03_1451	s	s	20	3	SIC	11	RC	2	1	02VD 09VO 02VC 02MD 02MO 02MC 02RD 02RO	1	0	1.26565814018	-61.0	-286.0	-60	-286	1
2.7	2015_Jun_03_1451	s	s	20	3	SIC	12	RC	2	2	09VD 02VO 02VC 02MD 02MO 02MC 02RD 02RO	1	0	1.44230508804	314.0	-184.0	309	-178	1
2.7	2015_Jun_03_1451	s	s	20	3	SIC	13	ABS	1	2	02VD 02VO 02VC 10MD 02MO 02MC 02RD 02RO	0	1	2.03554296494	None	None	None	None	1
2.7	2015_Jun_03_1451	s	s	20	3	SIC	14	RC	1	1	02VD 02VO 02VC 02MD 09MO 02MC 02RD 02RO	1	0	2.5727648735	102.0	183.0	103	179	1
2.7	2015_Jun_03_1451	s	s	20	3	SIC	15	ABS	0	1	02VD 02VO 02VC 02MD 02MO 02MC 02RD 10RO	1	0	2.40967798233	None	None	197	401	0
2.7	2015_Jun_03_1451	s	s	20	3	SIC	16	ABS	1	0	02VD 02VO 02VC 02MD 02MO 10MC 02RD 02RO	0	1	3.37752699852	None	None	None	None	1
2.7	2015_Jun_03_1451	s	s	20	3	SIC	17	RC	0	2	02VD 02VO 02VC 02MD 02MO 02MC 09RD 02RO	1	0	1.07733011246	358.0	51.0	371	57	1
2.7	2015_Jun_03_1451	s	s	20	3	SIC	18	RC	1	2	02VD 02VO 02VC 09MD 02MO 02MC 02RD 02RO	1	0	1.24225592613	-522.0	-240.0	-532	-236	1
2.7	2015_Jun_03_1451	s	s	20	3	SIC	19	RC	2	1	02VD 09VO 02VC 02MD 02MO 02MC 02RD 02RO	1	0	0.877236127853	-61.0	256.0	-63	248	1
2.7	2015_Jun_03_1451	s	s	20	3	SIC	20	RC	0	1	02VD 02VO 02VC 02MD 02MO 02MC 02RD 09RO	1	0	1.07876706123	-444.0	-265.0	-444	-264	1
2.7	2015_Jun_03_1451	s	s	20	3	SIC	21	ABS	1	1	02VD 02VO 02VC 02MD 10MO 02MC 02RD 02RO	1	0	2.67132616043	None	None	201	310	0
2.7	2015_Jun_03_1451	s	s	20	3	SIC	22	ABS	0	1	02VD 02VO 02VC 02MD 02MO 02MC 02RD 10RO	0	1	5.13774204254	None	None	None	None	1
2.7	2015_Jun_03_1451	s	s	20	3	SIC	23	ABS	2	0	02VD 02VO 10VC 02MD 02MO 02MC 02RD 02RO	0	1	3.37284088135	None	None	None	None	1
2.7	2015_Jun_03_1451	s	s	20	3	SIC	24	ABS	0	2	02VD 02VO 02VC 02MD 02MO 02MC 10RD 02RO	0	1	2.6077311039	None	None	None	None	1
2.7	2015_Jun_03_1451	s	s	20	3	SIC	25	RC	1	1	02VD 02VO 02VC 02MD 09MO 02MC 02RD 02RO	1	0	1.13349699974	148.0	-333.0	147	-326	1
2.7	2015_Jun_03_1451	s	s	20	3	SIC	26	RC	2	0	02VD 02VO 09VC 02MD 02MO 02MC 02RD 02RO	1	0	1.39474081993	405.0	47.0	391	52	1
2.7	2015_Jun_03_1451	s	s	20	3	SIC	27	ABS	2	1	02VD 10VO 02VC 02MD 02MO 02MC 02RD 02RO	0	1	2.67877697945	None	None	None	None	1
2.7	2015_Jun_03_1451	s	s	20	3	SIC	28	ABS	1	0	02VD 02VO 02VC 02MD 02MO 10MC 02RD 02RO	1	0	2.2545979023	None	None	299	33	0
2.7	2015_Jun_03_1451	s	s	20	3	SIC	29	ABS	2	2	10VD 02VO 02VC 02MD 02MO 02MC 02RD 02RO	0	1	4.43705797195	None	None	None	None	1
2.7	2015_Jun_03_1451	s	s	20	3	SIC	30	RC	1	0	02VD 02VO 02VC 02MD 02MO 09MC 02RD 02RO	1	0	1.87133598328	377.0	398.0	375	395	1
2.7	2015_Jun_03_1451	s	s	20	3	SIC	31	ABS	1	2	02VD 02VO 02VC 10MD 02MO 02MC 02RD 02RO	0	1	2.19647598267	None	None	None	None	1
2.7	2015_Jun_03_1451	s	s	20	3	SIC	32	RC	2	2	09VD 02VO 02VC 02MD 02MO 02MC 02RD 02RO	1	0	1.74146485329	346.0	-199.0	342	-203	1
2.7	2015_Jun_03_1451	s	s	20	3	SIC	33	ABS	2	2	10VD 02VO 02VC 02MD 02MO 02MC 02RD 02RO	0	1	1.71288084984	None	None	None	None	1
2.7	2015_Jun_03_1451	s	s	20	3	SIC	34	RC	1	1	02VD 02VO 02VC 02MD 09MO 02MC 02RD 02RO	1	0	2.15339589119	137.0	321.0	136	314	1
2.7	2015_Jun_03_1451	s	s	20	3	SIC	35	ABS	1	1	02VD 02VO 02VC 02MD 10MO 02MC 02RD 02RO	0	1	3.16210699081	None	None	None	None	1
2.7	2015_Jun_03_1451	s	s	20	3	SIC	36	ABS	0	2	02VD 02VO 02VC 02MD 02MO 02MC 10RD 02RO	0	1	3.58938789368	None	None	None	None	1
2.7	2015_Jun_03_1451	s	s	20	3	SIC	37	RC	2	1	02VD 09VO 02VC 02MD 02MO 02MC 02RD 02RO	1	0	1.25371217728	140.0	370.0	142	364	1
2.7	2015_Jun_03_1451	s	s	20	3	SIC	38	RC	2	2	09VD 02VO 02VC 02MD 02MO 02MC 02RD 02RO	0	1	2.44181513786	484.0	67.0	None	None	0
2.7	2015_Jun_03_1451	s	s	20	3	SIC	39	RC	2	0	02VD 02VO 09VC 02MD 02MO 02MC 02RD 02RO	1	0	1.07712197304	-213.0	98.0	-208	97	1
2.7	2015_Jun_03_1451	s	s	20	3	SIC	40	RC	1	0	02VD 02VO 02VC 02MD 02MO 09MC 02RD 02RO	1	0	1.12427997589	119.0	-198.0	120	-192	1
2.7	2015_Jun_03_1451	s	s	20	3	SIC	41	ABS	1	2	02VD 02VO 02VC 10MD 02MO 02MC 02RD 02RO	0	1	2.41913104057	None	None	None	None	1
2.7	2015_Jun_03_1451	s	s	20	3	SIC	42	ABS	0	1	02VD 02VO 02VC 02MD 02MO 02MC 02RD 10RO	0	1	5.73168516159	None	None	None	None	1
2.7	2015_Jun_03_1451	s	s	20	3	SIC	43	ABS	2	1	02VD 10VO 02VC 02MD 02MO 02MC 02RD 02RO	0	1	2.23579406738	None	None	None	None	1
2.7	2015_Jun_03_1451	s	s	20	3	SIC	44	RC	0	2	02VD 02VO 02VC 02MD 02MO 02MC 09RD 02RO	1	0	1.43233013153	-530.0	-343.0	-536	-345	1
2.7	2015_Jun_03_1451	s	s	20	3	SIC	45	ABS	1	0	02VD 02VO 02VC 02MD 02MO 10MC 02RD 02RO	0	1	2.74567294121	None	None	None	None	1
2.7	2015_Jun_03_1451	s	s	20	3	SIC	46	RC	1	2	02VD 02VO 02VC 09MD 02MO 02MC 02RD 02RO	1	0	1.10566306114	-199.0	-301.0	-194	-301	1
2.7	2015_Jun_03_1451	s	s	20	3	SIC	47	RC	0	1	02VD 02VO 02VC 02MD 02MO 02MC 02RD 09RO	1	0	1.95329403877	260.0	-54.0	269	-57	1
2.7	2015_Jun_03_1451	s	s	20	3	SIC	48	ABS	2	0	02VD 02VO 10VC 02MD 02MO 02MC 02RD 02RO	0	1	2.65462684631	None	None	None	None	1
2.7	2015_Jun_03_1451	s	s	20	3	SIC	49	ABS	1	0	02VD 02VO 02VC 02MD 02MO 10MC 02RD 02RO	0	1	3.35980415344	None	None	None	None	1
2.7	2015_Jun_03_1451	s	s	20	3	SIC	50	RC	0	2	02VD 02VO 02VC 02MD 02MO 02MC 09RD 02RO	1	0	0.835030078888	418.0	-170.0	412	-164	1
2.7	2015_Jun_03_1451	s	s	20	3	SIC	51	RC	1	2	02VD 02VO 02VC 09MD 02MO 02MC 02RD 02RO	1	0	1.31413006783	-227.0	-304.0	-239	-303	1
2.7	2015_Jun_03_1451	s	s	20	3	SIC	52	RC	0	1	02VD 02VO 02VC 02MD 02MO 02MC 02RD 09RO	1	0	2.01214313507	466.0	-377.0	473	-371	1
2.7	2015_Jun_03_1451	s	s	20	3	SIC	53	RC	2	2	09VD 02VO 02VC 02MD 02MO 02MC 02RD 02RO	1	0	1.42984819412	478.0	-48.0	474	-48	1
2.7	2015_Jun_03_1451	s	s	20	3	SIC	54	RC	1	1	02VD 02VO 02VC 02MD 09MO 02MC 02RD 02RO	1	0	0.929216861725	-93.0	244.0	-83	245	1
2.7	2015_Jun_03_1451	s	s	20	3	SIC	55	ABS	2	0	02VD 02VO 10VC 02MD 02MO 02MC 02RD 02RO	0	1	2.8545730114	None	None	None	None	1
2.7	2015_Jun_03_1451	s	s	20	3	SIC	56	ABS	0	2	02VD 02VO 02VC 02MD 02MO 02MC 10RD 02RO	0	1	3.01256799698	None	None	None	None	1
2.7	2015_Jun_03_1451	s	s	20	3	SIC	57	RC	2	0	02VD 02VO 09VC 02MD 02MO 02MC 02RD 02RO	1	0	1.68262910843	-378.0	77.0	-380	82	1
2.7	2015_Jun_03_1451	s	s	20	3	SIC	58	ABS	2	2	10VD 02VO 02VC 02MD 02MO 02MC 02RD 02RO	0	1	2.44767093658	None	None	None	None	1
2.7	2015_Jun_03_1451	s	s	20	3	SIC	59	RC	2	1	02VD 09VO 02VC 02MD 02MO 02MC 02RD 02RO	1	0	2.13666296005	-518.0	307.0	-509	309	1
2.7	2015_Jun_03_1451	s	s	20	3	SIC	60	ABS	2	1	02VD 10VO 02VC 02MD 02MO 02MC 02RD 02RO	0	1	3.17441511154	None	None	None	None	1
2.7	2015_Jun_03_1451	s	s	20	3	SIC	61	ABS	0	1	02VD 02VO 02VC 02MD 02MO 02MC 02RD 10RO	0	1	5.56688499451	None	None	None	None	1
2.7	2015_Jun_03_1451	s	s	20	3	SIC	62	RC	1	0	02VD 02VO 02VC 02MD 02MO 09MC 02RD 02RO	1	0	1.21176695824	-321.0	-323.0	-312	-318	1
2.7	2015_Jun_03_1451	s	s	20	3	SIC	63	ABS	1	1	02VD 02VO 02VC 02MD 10MO 02MC 02RD 02RO	0	1	3.41297197342	None	None	None	None	1
2.7	2015_Jun_03_1451	s	s	20	3	SIC	64	ABS	1	2	02VD 02VO 02VC 10MD 02MO 02MC 02RD 02RO	0	1	2.09120607376	None	None	None	None	1
2.7	2015_Jun_03_1451	s	s	20	3	SIC	65	ABS	1	1	02VD 02VO 02VC 02MD 10MO 02MC 02RD 02RO	0	1	3.90710902214	None	None	None	None	1
2.7	2015_Jun_03_1451	s	s	20	3	SIC	66	RC	2	0	02VD 02VO 09VC 02MD 02MO 02MC 02RD 02RO	1	0	1.75318694115	379.0	41.0	389	39	1
2.7	2015_Jun_03_1451	s	s	20	3	SIC	67	ABS	1	2	02VD 02VO 02VC 10MD 02MO 02MC 02RD 02RO	0	1	2.17697095871	None	None	None	None	1
2.7	2015_Jun_03_1451	s	s	20	3	SIC	68	ABS	2	1	02VD 10VO 02VC 02MD 02MO 02MC 02RD 02RO	0	1	2.73009300232	None	None	None	None	1
2.7	2015_Jun_03_1451	s	s	20	3	SIC	69	RC	2	1	02VD 09VO 02VC 02MD 02MO 02MC 02RD 02RO	1	0	1.67087101936	258.0	-138.0	267	-132	1
2.7	2015_Jun_03_1451	s	s	20	3	SIC	70	RC	1	1	02VD 02VO 02VC 02MD 09MO 02MC 02RD 02RO	1	0	0.799798965454	321.0	-85.0	314	-85	1
2.7	2015_Jun_03_1451	s	s	20	3	SIC	71	ABS	1	0	02VD 02VO 02VC 02MD 02MO 10MC 02RD 02RO	0	1	2.56062698364	None	None	None	None	1
2.7	2015_Jun_03_1451	s	s	20	3	SIC	72	RC	2	2	09VD 02VO 02VC 02MD 02MO 02MC 02RD 02RO	1	0	0.878448009491	-453.0	-159.0	-447	-158	1
2.7	2015_Jun_03_1451	s	s	20	3	SIC	73	RC	1	2	02VD 02VO 02VC 09MD 02MO 02MC 02RD 02RO	1	0	0.729187011719	-493.0	277.0	-484	284	1
2.7	2015_Jun_03_1451	s	s	20	3	SIC	74	ABS	2	0	02VD 02VO 10VC 02MD 02MO 02MC 02RD 02RO	0	1	1.90235900879	None	None	None	None	1
2.7	2015_Jun_03_1451	s	s	20	3	SIC	75	RC	0	1	02VD 02VO 02VC 02MD 02MO 02MC 02RD 09RO	1	0	1.5950729847	-272.0	347.0	-274	340	1
2.7	2015_Jun_03_1451	s	s	20	3	SIC	76	RC	0	2	02VD 02VO 02VC 02MD 02MO 02MC 09RD 02RO	1	0	0.981739044189	281.0	27.0	276	23	1
2.7	2015_Jun_03_1451	s	s	20	3	SIC	77	RC	1	0	02VD 02VO 02VC 02MD 02MO 09MC 02RD 02RO	1	0	0.803487062454	-407.0	-61.0	-409	-61	1
2.7	2015_Jun_03_1451	s	s	20	3	SIC	78	ABS	0	2	02VD 02VO 02VC 02MD 02MO 02MC 10RD 02RO	0	1	2.91321492195	None	None	None	None	1
2.7	2015_Jun_03_1451	s	s	20	3	SIC	79	ABS	0	1	02VD 02VO 02VC 02MD 02MO 02MC 02RD 10RO	0	1	5.69688391685	None	None	None	None	1
2.7	2015_Jun_03_1451	s	s	20	3	SIC	80	ABS	2	2	10VD 02VO 02VC 02MD 02MO 02MC 02RD 02RO	0	1	2.28874588013	None	None	None	None	1
2.7	2015_Jun_03_1451	s	s	20	3	SIC	81	ABS	1	1	02VD 02VO 02VC 02MD 10MO 02MC 02RD 02RO	0	1	3.06676101685	None	None	None	None	1
2.7	2015_Jun_03_1451	s	s	20	3	SIC	82	RC	0	2	02VD 02VO 02VC 02MD 02MO 02MC 09RD 02RO	1	0	2.04199314117	497.0	384.0	495	375	1
2.7	2015_Jun_03_1451	s	s	20	3	SIC	83	ABS	2	2	10VD 02VO 02VC 02MD 02MO 02MC 02RD 02RO	0	1	2.15340995789	None	None	None	None	1
2.7	2015_Jun_03_1451	s	s	20	3	SIC	84	ABS	2	1	02VD 10VO 02VC 02MD 02MO 02MC 02RD 02RO	0	1	2.52505993843	None	None	None	None	1
2.7	2015_Jun_03_1451	s	s	20	3	SIC	85	RC	0	1	02VD 02VO 02VC 02MD 02MO 02MC 02RD 09RO	1	0	3.86687803268	492.0	199.0	489	194	1
2.7	2015_Jun_03_1451	s	s	20	3	SIC	86	RC	1	1	02VD 02VO 02VC 02MD 09MO 02MC 02RD 02RO	1	0	1.10587000847	-255.0	252.0	-252	245	1
2.7	2015_Jun_03_1451	s	s	20	3	SIC	87	ABS	1	0	02VD 02VO 02VC 02MD 02MO 10MC 02RD 02RO	0	1	4.3372490406	None	None	None	None	1
2.7	2015_Jun_03_1451	s	s	20	3	SIC	88	ABS	1	2	02VD 02VO 02VC 10MD 02MO 02MC 02RD 02RO	0	1	2.09456300735	None	None	None	None	1
2.7	2015_Jun_03_1451	s	s	20	3	SIC	89	RC	2	1	02VD 09VO 02VC 02MD 02MO 02MC 02RD 02RO	1	0	1.08228802681	-236.0	-259.0	-230	-251	1
2.7	2015_Jun_03_1451	s	s	20	3	SIC	90	RC	1	2	02VD 02VO 02VC 09MD 02MO 02MC 02RD 02RO	1	0	1.18320608139	314.0	243.0	320	245	1
2.7	2015_Jun_03_1451	s	s	20	3	SIC	91	RC	2	2	09VD 02VO 02VC 02MD 02MO 02MC 02RD 02RO	1	0	1.40686702728	534.0	-134.0	527	-138	1
2.7	2015_Jun_03_1451	s	s	20	3	SIC	92	ABS	2	0	02VD 02VO 10VC 02MD 02MO 02MC 02RD 02RO	0	1	2.3416659832	None	None	None	None	1
2.7	2015_Jun_03_1451	s	s	20	3	SIC	93	ABS	0	2	02VD 02VO 02VC 02MD 02MO 02MC 10RD 02RO	0	1	3.01260089874	None	None	None	None	1
2.7	2015_Jun_03_1451	s	s	20	3	SIC	94	RC	2	0	02VD 02VO 09VC 02MD 02MO 02MC 02RD 02RO	1	0	1.27066087723	21.0	142.0	21	141	1
2.7	2015_Jun_03_1451	s	s	20	3	SIC	95	RC	1	0	02VD 02VO 02VC 02MD 02MO 09MC 02RD 02RO	1	0	1.10070204735	-449.0	-27.0	-448	-20	1
2.7	2015_Jun_03_1451	s	s	20	3	SIC	96	ABS	0	1	02VD 02VO 02VC 02MD 02MO 02MC 02RD 10RO	0	1	4.20145511627	None	None	None	None	1
2.7	2015_Jun_03_1451	s	s	20	3	SIC	97	ABS	0	1	02VD 02VO 02VC 02MD 02MO 02MC 02RD 10RO	0	1	3.75421500206	None	None	None	None	1
2.7	2015_Jun_03_1451	s	s	20	3	SIC	98	RC	0	2	02VD 02VO 02VC 02MD 02MO 02MC 09RD 02RO	1	0	0.658455848694	-24.0	-148.0	-19	-143	1
2.7	2015_Jun_03_1451	s	s	20	3	SIC	99	ABS	1	1	02VD 02VO 02VC 02MD 10MO 02MC 02RD 02RO	0	1	3.16567492485	None	None	None	None	1
2.7	2015_Jun_03_1451	s	s	20	3	SIC	100	RC	2	2	09VD 02VO 02VC 02MD 02MO 02MC 02RD 02RO	1	0	0.964951038361	77.0	-52.0	84	-53	1
2.7	2015_Jun_03_1451	s	s	20	3	SIC	101	ABS	2	0	02VD 02VO 10VC 02MD 02MO 02MC 02RD 02RO	0	1	2.0542140007	None	None	None	None	1
2.7	2015_Jun_03_1451	s	s	20	3	SIC	102	ABS	1	0	02VD 02VO 02VC 02MD 02MO 10MC 02RD 02RO	0	1	2.31308913231	None	None	None	None	1
2.7	2015_Jun_03_1451	s	s	20	3	SIC	103	RC	2	0	02VD 02VO 09VC 02MD 02MO 02MC 02RD 02RO	1	0	1.20039510727	-335.0	329.0	-334	328	1
2.7	2015_Jun_03_1451	s	s	20	3	SIC	104	ABS	2	1	02VD 10VO 02VC 02MD 02MO 02MC 02RD 02RO	0	1	2.34841609001	None	None	None	None	1
2.7	2015_Jun_03_1451	s	s	20	3	SIC	105	RC	1	0	02VD 02VO 02VC 02MD 02MO 09MC 02RD 02RO	1	0	0.882127046585	-59.0	-374.0	-63	-367	1
2.7	2015_Jun_03_1451	s	s	20	3	SIC	106	ABS	2	2	10VD 02VO 02VC 02MD 02MO 02MC 02RD 02RO	0	1	2.15103387833	None	None	None	None	1
2.7	2015_Jun_03_1451	s	s	20	3	SIC	107	ABS	1	2	02VD 02VO 02VC 10MD 02MO 02MC 02RD 02RO	0	1	6.16706085205	None	None	None	None	1
2.7	2015_Jun_03_1451	s	s	20	3	SIC	108	ABS	0	2	02VD 02VO 02VC 02MD 02MO 02MC 10RD 02RO	0	1	3.87188696861	None	None	None	None	1
2.7	2015_Jun_03_1451	s	s	20	3	SIC	109	RC	1	1	02VD 02VO 02VC 02MD 09MO 02MC 02RD 02RO	1	0	1.44709801674	-476.0	327.0	-474	324	1
2.7	2015_Jun_03_1451	s	s	20	3	SIC	110	RC	1	2	02VD 02VO 02VC 09MD 02MO 02MC 02RD 02RO	1	0	1.05872297287	75.0	17.0	81	14	1
2.7	2015_Jun_03_1451	s	s	20	3	SIC	111	RC	2	1	02VD 09VO 02VC 02MD 02MO 02MC 02RD 02RO	1	0	1.34123778343	-498.0	2.0	-506	7	1
2.7	2015_Jun_03_1451	s	s	20	3	SIC	112	RC	0	1	02VD 02VO 02VC 02MD 02MO 02MC 02RD 09RO	1	0	1.61871910095	-265.0	-368.0	-271	-371	1
2.7	2015_Jun_03_1451	s	s	20	3	SIC	113	ABS	2	2	10VD 02VO 02VC 02MD 02MO 02MC 02RD 02RO	0	1	2.35349702835	None	None	None	None	1
2.7	2015_Jun_03_1451	s	s	20	3	SIC	114	RC	0	2	02VD 02VO 02VC 02MD 02MO 02MC 09RD 02RO	1	0	0.846784830093	-136.0	-125.0	-141	-120	1
2.7	2015_Jun_03_1451	s	s	20	3	SIC	115	ABS	1	0	02VD 02VO 02VC 02MD 02MO 10MC 02RD 02RO	0	1	3.52571797371	None	None	None	None	1
2.7	2015_Jun_03_1451	s	s	20	3	SIC	116	ABS	2	1	02VD 10VO 02VC 02MD 02MO 02MC 02RD 02RO	0	1	2.44284296036	None	None	None	None	1
2.7	2015_Jun_03_1451	s	s	20	3	SIC	117	RC	1	0	02VD 02VO 02VC 02MD 02MO 09MC 02RD 02RO	1	0	1.55299401283	439.0	264.0	449	270	1
2.7	2015_Jun_03_1451	s	s	20	3	SIC	118	ABS	1	2	02VD 02VO 02VC 10MD 02MO 02MC 02RD 02RO	0	1	2.76108598709	None	None	None	None	1
2.7	2015_Jun_03_1451	s	s	20	3	SIC	119	ABS	2	0	02VD 02VO 10VC 02MD 02MO 02MC 02RD 02RO	0	1	2.89867401123	None	None	None	None	1
2.7	2015_Jun_03_1451	s	s	20	3	SIC	120	RC	2	2	09VD 02VO 02VC 02MD 02MO 02MC 02RD 02RO	1	0	0.78799700737	-153.0	-188.0	-154	-182	1
2.7	2015_Jun_03_1451	s	s	20	3	SIC	121	RC	2	0	02VD 02VO 09VC 02MD 02MO 02MC 02RD 02RO	1	0	0.835163831711	139.0	253.0	136	254	1
2.7	2015_Jun_03_1451	s	s	20	3	SIC	122	RC	1	2	02VD 02VO 02VC 09MD 02MO 02MC 02RD 02RO	1	0	0.952641963959	71.0	150.0	71	143	1
2.7	2015_Jun_03_1451	s	s	20	3	SIC	123	ABS	1	1	02VD 02VO 02VC 02MD 10MO 02MC 02RD 02RO	0	1	3.10686802864	None	None	None	None	1
2.7	2015_Jun_03_1451	s	s	20	3	SIC	124	ABS	0	1	02VD 02VO 02VC 02MD 02MO 02MC 02RD 10RO	0	1	6.16153097153	None	None	None	None	1
2.7	2015_Jun_03_1451	s	s	20	3	SIC	125	RC	0	1	02VD 02VO 02VC 02MD 02MO 02MC 02RD 09RO	1	0	2.50122284889	506.0	136.0	508	146	1
2.7	2015_Jun_03_1451	s	s	20	3	SIC	126	RC	1	1	02VD 02VO 02VC 02MD 09MO 02MC 02RD 02RO	1	0	0.794753074646	-88.0	-63.0	-87	-68	1
2.7	2015_Jun_03_1451	s	s	20	3	SIC	127	ABS	0	2	02VD 02VO 02VC 02MD 02MO 02MC 10RD 02RO	0	1	2.48294496536	None	None	None	None	1
2.7	2015_Jun_03_1451	s	s	20	3	SIC	128	RC	2	1	02VD 09VO 02VC 02MD 02MO 02MC 02RD 02RO	1	0	1.32949209213	461.0	-215.0	458	-213	1
2.7	2015_Jun_03_1451	s	s	20	3	SIC	129	ABS	1	1	02VD 02VO 02VC 02MD 10MO 02MC 02RD 02RO	0	1	4.3495759964	None	None	None	None	1
2.7	2015_Jun_03_1451	s	s	20	3	SIC	130	RC	2	2	09VD 02VO 02VC 02MD 02MO 02MC 02RD 02RO	1	0	0.725686788559	62.0	45.0	59	48	1
2.7	2015_Jun_03_1451	s	s	20	3	SIC	131	ABS	0	1	02VD 02VO 02VC 02MD 02MO 02MC 02RD 10RO	1	0	3.34886908531	None	None	305	-252	0
2.7	2015_Jun_03_1451	s	s	20	3	SIC	132	RC	0	1	02VD 02VO 02VC 02MD 02MO 02MC 02RD 09RO	1	0	3.08683919907	-414.0	-290.0	-418	-286	1
2.7	2015_Jun_03_1451	s	s	20	3	SIC	133	RC	2	1	02VD 09VO 02VC 02MD 02MO 02MC 02RD 02RO	0	1	2.84787797928	320.0	385.0	None	None	0
2.7	2015_Jun_03_1451	s	s	20	3	SIC	134	RC	2	0	02VD 02VO 09VC 02MD 02MO 02MC 02RD 02RO	1	0	1.23534083366	463.0	-38.0	462	-36	1
2.7	2015_Jun_03_1451	s	s	20	3	SIC	135	RC	1	2	02VD 02VO 02VC 09MD 02MO 02MC 02RD 02RO	1	0	1.02714109421	-401.0	148.0	-406	148	1
2.7	2015_Jun_03_1451	s	s	20	3	SIC	136	ABS	0	2	02VD 02VO 02VC 02MD 02MO 02MC 10RD 02RO	0	1	2.84787321091	None	None	None	None	1
2.7	2015_Jun_03_1451	s	s	20	3	SIC	137	RC	0	2	02VD 02VO 02VC 02MD 02MO 02MC 09RD 02RO	1	0	1.06581783295	-4.0	335.0	1	333	1
2.7	2015_Jun_03_1451	s	s	20	3	SIC	138	ABS	1	0	02VD 02VO 02VC 02MD 02MO 10MC 02RD 02RO	0	1	2.61617588997	None	None	None	None	1
2.7	2015_Jun_03_1451	s	s	20	3	SIC	139	ABS	1	2	02VD 02VO 02VC 10MD 02MO 02MC 02RD 02RO	0	1	2.30117297173	None	None	None	None	1
2.7	2015_Jun_03_1451	s	s	20	3	SIC	140	RC	1	1	02VD 02VO 02VC 02MD 09MO 02MC 02RD 02RO	1	0	0.858508825302	-216.0	67.0	-210	60	1
2.7	2015_Jun_03_1451	s	s	20	3	SIC	141	ABS	2	0	02VD 02VO 10VC 02MD 02MO 02MC 02RD 02RO	0	1	1.52714920044	None	None	None	None	1
2.7	2015_Jun_03_1451	s	s	20	3	SIC	142	ABS	2	2	10VD 02VO 02VC 02MD 02MO 02MC 02RD 02RO	0	1	2.5277068615	None	None	None	None	1
2.7	2015_Jun_03_1451	s	s	20	3	SIC	143	RC	1	0	02VD 02VO 02VC 02MD 02MO 09MC 02RD 02RO	1	0	1.45518898964	-400.0	-275.0	-395	-273	1
2.7	2015_Jun_03_1451	s	s	20	3	SIC	144	ABS	2	1	02VD 10VO 02VC 02MD 02MO 02MC 02RD 02RO	0	1	2.36591005325	None	None	None	None	1
2.7	2015_Jun_03_1451	s	s	20	3	SIC	145	ABS	0	2	02VD 02VO 02VC 02MD 02MO 02MC 10RD 02RO	0	1	2.2593100071	None	None	None	None	1
2.7	2015_Jun_03_1451	s	s	20	3	SIC	146	ABS	2	2	10VD 02VO 02VC 02MD 02MO 02MC 02RD 02RO	0	1	3.04245209694	None	None	None	None	1
2.7	2015_Jun_03_1451	s	s	20	3	SIC	147	ABS	2	1	02VD 10VO 02VC 02MD 02MO 02MC 02RD 02RO	0	1	18.0319859982	None	None	None	None	1
2.7	2015_Jun_03_1451	s	s	20	3	SIC	148	RC	1	2	02VD 02VO 02VC 09MD 02MO 02MC 02RD 02RO	1	0	1.1175839901	-121.0	-307.0	-128	-309	1
2.7	2015_Jun_03_1451	s	s	20	3	SIC	149	RC	1	1	02VD 02VO 02VC 02MD 09MO 02MC 02RD 02RO	1	0	1.61875581741	-509.0	134.0	-508	132	1
2.7	2015_Jun_03_1451	s	s	20	3	SIC	150	ABS	1	2	02VD 02VO 02VC 10MD 02MO 02MC 02RD 02RO	0	1	2.61941695213	None	None	None	None	1
2.7	2015_Jun_03_1451	s	s	20	3	SIC	151	RC	2	2	09VD 02VO 02VC 02MD 02MO 02MC 02RD 02RO	1	0	1.41925096512	227.0	162.0	230	156	1
2.7	2015_Jun_03_1451	s	s	20	3	SIC	152	ABS	0	1	02VD 02VO 02VC 02MD 02MO 02MC 02RD 10RO	0	1	5.11611199379	None	None	None	None	1
2.7	2015_Jun_03_1451	s	s	20	3	SIC	153	ABS	1	1	02VD 02VO 02VC 02MD 10MO 02MC 02RD 02RO	0	1	2.0429880619	None	None	None	None	1
2.7	2015_Jun_03_1451	s	s	20	3	SIC	154	RC	1	0	02VD 02VO 02VC 02MD 02MO 09MC 02RD 02RO	1	0	1.57172393799	-76.0	402.0	-81	401	1
2.7	2015_Jun_03_1451	s	s	20	3	SIC	155	RC	0	1	02VD 02VO 02VC 02MD 02MO 02MC 02RD 09RO	1	0	2.31813693047	298.0	-124.0	306	-117	1
2.7	2015_Jun_03_1451	s	s	20	3	SIC	156	RC	2	0	02VD 02VO 09VC 02MD 02MO 02MC 02RD 02RO	1	0	1.2234480381	-417.0	30.0	-420	25	1
2.7	2015_Jun_03_1451	s	s	20	3	SIC	157	ABS	1	0	02VD 02VO 02VC 02MD 02MO 10MC 02RD 02RO	0	1	2.62157797813	None	None	None	None	1
2.7	2015_Jun_03_1451	s	s	20	3	SIC	158	ABS	2	0	02VD 02VO 10VC 02MD 02MO 02MC 02RD 02RO	0	1	15.7315211296	None	None	None	None	1
2.7	2015_Jun_03_1451	s	s	20	3	SIC	159	RC	0	2	02VD 02VO 02VC 02MD 02MO 02MC 09RD 02RO	1	0	1.07704520226	-283.0	224.0	-282	223	1
2.7	2015_Jun_03_1451	s	s	20	3	SIC	160	RC	2	1	02VD 09VO 02VC 02MD 02MO 02MC 02RD 02RO	1	0	2.90175008774	89.0	334.0	82	338	1
2.7	2015_Jun_03_1451	s	s	20	3	SIC	161	RC	2	1	02VD 09VO 02VC 02MD 02MO 02MC 02RD 02RO	1	0	1.84262418747	-382.0	-21.0	-375	-19	1
2.7	2015_Jun_03_1451	s	s	20	3	SIC	162	ABS	0	2	02VD 02VO 02VC 02MD 02MO 02MC 10RD 02RO	0	1	1.95904803276	None	None	None	None	1
2.7	2015_Jun_03_1451	s	s	20	3	SIC	163	RC	0	1	02VD 02VO 02VC 02MD 02MO 02MC 02RD 09RO	1	0	4.51570892334	-444.0	-390.0	-441	-397	1
2.7	2015_Jun_03_1451	s	s	20	3	SIC	164	ABS	2	2	10VD 02VO 02VC 02MD 02MO 02MC 02RD 02RO	0	1	2.94858908653	None	None	None	None	1
2.7	2015_Jun_03_1451	s	s	20	3	SIC	165	RC	1	1	02VD 02VO 02VC 02MD 09MO 02MC 02RD 02RO	1	0	2.24754786491	473.0	-364.0	477	-360	1
2.7	2015_Jun_03_1451	s	s	20	3	SIC	166	ABS	1	0	02VD 02VO 02VC 02MD 02MO 10MC 02RD 02RO	0	1	5.48449015617	None	None	None	None	1
2.7	2015_Jun_03_1451	s	s	20	3	SIC	167	ABS	2	0	02VD 02VO 10VC 02MD 02MO 02MC 02RD 02RO	0	1	2.63134503365	None	None	None	None	1
2.7	2015_Jun_03_1451	s	s	20	3	SIC	168	RC	1	2	02VD 02VO 02VC 09MD 02MO 02MC 02RD 02RO	1	0	1.36520981789	-522.0	252.0	-520	246	1
2.7	2015_Jun_03_1451	s	s	20	3	SIC	169	ABS	1	1	02VD 02VO 02VC 02MD 10MO 02MC 02RD 02RO	0	1	5.23407483101	None	None	None	None	1
2.7	2015_Jun_03_1451	s	s	20	3	SIC	170	RC	1	0	02VD 02VO 02VC 02MD 02MO 09MC 02RD 02RO	1	0	1.89442205429	-133.0	-350.0	-120	-347	1
2.7	2015_Jun_03_1451	s	s	20	3	SIC	171	RC	0	2	02VD 02VO 02VC 02MD 02MO 02MC 09RD 02RO	1	0	1.17261195183	223.0	-2.0	213	1	1
2.7	2015_Jun_03_1451	s	s	20	3	SIC	172	RC	2	2	09VD 02VO 02VC 02MD 02MO 02MC 02RD 02RO	1	0	1.30194091797	407.0	-76.0	409	-75	1
2.7	2015_Jun_03_1451	s	s	20	3	SIC	173	RC	2	0	02VD 02VO 09VC 02MD 02MO 02MC 02RD 02RO	1	0	1.51267695427	-503.0	151.0	-507	154	1
2.7	2015_Jun_03_1451	s	s	20	3	SIC	174	ABS	2	1	02VD 10VO 02VC 02MD 02MO 02MC 02RD 02RO	0	1	5.38223385811	None	None	None	None	1
2.7	2015_Jun_03_1451	s	s	20	3	SIC	175	ABS	1	2	02VD 02VO 02VC 10MD 02MO 02MC 02RD 02RO	0	1	3.01948690414	None	None	None	None	1
2.7	2015_Jun_03_1451	s	s	20	3	SIC	176	ABS	0	1	02VD 02VO 02VC 02MD 02MO 02MC 02RD 10RO	0	1	3.52682495117	None	None	None	None	1
2.7	2015_Jun_03_1451	s	s	20	3	SIC	177	ABS	0	1	02VD 02VO 02VC 02MD 02MO 02MC 02RD 10RO	0	1	4.53758692741	None	None	None	None	1
2.7	2015_Jun_03_1451	s	s	20	3	SIC	178	RC	2	0	02VD 02VO 09VC 02MD 02MO 02MC 02RD 02RO	1	0	1.41834497452	399.0	263.0	409	272	1
2.7	2015_Jun_03_1451	s	s	20	3	SIC	179	RC	1	0	02VD 02VO 02VC 02MD 02MO 09MC 02RD 02RO	1	0	1.11244916916	243.0	-126.0	249	-129	1
2.7	2015_Jun_03_1451	s	s	20	3	SIC	180	RC	2	1	02VD 09VO 02VC 02MD 02MO 02MC 02RD 02RO	1	0	0.853375911713	323.0	240.0	323	244	1
2.7	2015_Jun_03_1451	s	s	20	3	SIC	181	RC	1	2	02VD 02VO 02VC 09MD 02MO 02MC 02RD 02RO	1	0	0.97634601593	-248.0	64.0	-243	64	1
2.7	2015_Jun_03_1451	s	s	20	3	SIC	182	RC	0	2	02VD 02VO 02VC 02MD 02MO 02MC 09RD 02RO	1	0	1.58351588249	-404.0	109.0	-411	114	1
2.7	2015_Jun_03_1451	s	s	20	3	SIC	183	ABS	1	1	02VD 02VO 02VC 02MD 10MO 02MC 02RD 02RO	0	1	3.92544722557	None	None	None	None	1
2.7	2015_Jun_03_1451	s	s	20	3	SIC	184	RC	0	1	02VD 02VO 02VC 02MD 02MO 02MC 02RD 09RO	1	0	1.32606101036	-34.0	-342.0	-26	-335	1
2.7	2015_Jun_03_1451	s	s	20	3	SIC	185	ABS	0	2	02VD 02VO 02VC 02MD 02MO 02MC 10RD 02RO	0	1	2.63107299805	None	None	None	None	1
2.7	2015_Jun_03_1451	s	s	20	3	SIC	186	RC	2	2	09VD 02VO 02VC 02MD 02MO 02MC 02RD 02RO	1	0	1.42361903191	173.0	94.0	169	95	1
2.7	2015_Jun_03_1451	s	s	20	3	SIC	187	ABS	2	0	02VD 02VO 10VC 02MD 02MO 02MC 02RD 02RO	0	1	1.97677707672	None	None	None	None	1
2.7	2015_Jun_03_1451	s	s	20	3	SIC	188	ABS	2	2	10VD 02VO 02VC 02MD 02MO 02MC 02RD 02RO	0	1	10.8715679646	None	None	None	None	1
2.7	2015_Jun_03_1451	s	s	20	3	SIC	189	ABS	1	0	02VD 02VO 02VC 02MD 02MO 10MC 02RD 02RO	0	1	4.09558606148	None	None	None	None	1
2.7	2015_Jun_03_1451	s	s	20	3	SIC	190	ABS	1	2	02VD 02VO 02VC 10MD 02MO 02MC 02RD 02RO	0	1	2.0897359848	None	None	None	None	1
2.7	2015_Jun_03_1451	s	s	20	3	SIC	191	ABS	2	1	02VD 10VO 02VC 02MD 02MO 02MC 02RD 02RO	0	1	2.17732906342	None	None	None	None	1
2.7	2015_Jun_03_1451	s	s	20	3	SIC	192	RC	1	1	02VD 02VO 02VC 02MD 09MO 02MC 02RD 02RO	1	0	0.900584220886	-503.0	10.0	-498	7	1
2.7	2015_Jun_03_1451	s	s	20	3	SIC	193	ABS	1	1	02VD 02VO 02VC 02MD 10MO 02MC 02RD 02RO	0	1	2.0544731617	None	None	None	None	1
2.7	2015_Jun_03_1451	s	s	20	3	SIC	194	RC	1	1	02VD 02VO 02VC 02MD 09MO 02MC 02RD 02RO	1	0	3.02094388008	534.0	-311.0	541	-309	1
2.7	2015_Jun_03_1451	s	s	20	3	SIC	195	ABS	1	0	02VD 02VO 02VC 02MD 02MO 10MC 02RD 02RO	0	1	1.87774014473	None	None	None	None	1
2.7	2015_Jun_03_1451	s	s	20	3	SIC	196	RC	0	2	02VD 02VO 02VC 02MD 02MO 02MC 09RD 02RO	1	0	0.823312044144	-290.0	-171.0	-285	-162	1
2.7	2015_Jun_03_1451	s	s	20	3	SIC	197	RC	2	2	09VD 02VO 02VC 02MD 02MO 02MC 02RD 02RO	1	0	1.58838486671	436.0	143.0	438	145	1
2.7	2015_Jun_03_1451	s	s	20	3	SIC	198	ABS	1	2	02VD 02VO 02VC 10MD 02MO 02MC 02RD 02RO	0	1	1.88953900337	None	None	None	None	1
2.7	2015_Jun_03_1451	s	s	20	3	SIC	199	ABS	2	2	10VD 02VO 02VC 02MD 02MO 02MC 02RD 02RO	0	1	1.75974702835	None	None	None	None	1
2.7	2015_Jun_03_1451	s	s	20	3	SIC	200	RC	1	2	02VD 02VO 02VC 09MD 02MO 02MC 02RD 02RO	1	0	0.734302997589	-136.0	201.0	-140	195	1
2.7	2015_Jun_03_1451	s	s	20	3	SIC	201	ABS	0	2	02VD 02VO 02VC 02MD 02MO 02MC 10RD 02RO	0	1	2.15341615677	None	None	None	None	1
2.7	2015_Jun_03_1451	s	s	20	3	SIC	202	ABS	2	1	02VD 10VO 02VC 02MD 02MO 02MC 02RD 02RO	0	1	2.12295007706	None	None	None	None	1
2.7	2015_Jun_03_1451	s	s	20	3	SIC	203	RC	1	0	02VD 02VO 02VC 02MD 02MO 09MC 02RD 02RO	1	0	2.48302817345	440.0	307.0	446	306	1
2.7	2015_Jun_03_1451	s	s	20	3	SIC	204	ABS	0	1	02VD 02VO 02VC 02MD 02MO 02MC 02RD 10RO	1	0	2.6794219017	None	None	440	-219	0
2.7	2015_Jun_03_1451	s	s	20	3	SIC	205	RC	2	0	02VD 02VO 09VC 02MD 02MO 02MC 02RD 02RO	1	0	0.897639036179	164.0	-135.0	158	-134	1
2.7	2015_Jun_03_1451	s	s	20	3	SIC	206	RC	0	1	02VD 02VO 02VC 02MD 02MO 02MC 02RD 09RO	1	0	0.900747060776	-174.0	-128.0	-183	-125	1
2.7	2015_Jun_03_1451	s	s	20	3	SIC	207	ABS	2	0	02VD 02VO 10VC 02MD 02MO 02MC 02RD 02RO	0	1	1.73650097847	None	None	None	None	1
2.7	2015_Jun_03_1451	s	s	20	3	SIC	208	RC	2	1	02VD 09VO 02VC 02MD 02MO 02MC 02RD 02RO	1	0	0.724441051483	-50.0	-285.0	-47	-281	1
2.7	2015_Jun_03_1451	s	s	20	3	SIC	209	RC	2	0	02VD 02VO 09VC 02MD 02MO 02MC 02RD 02RO	1	0	0.925724983215	-29.0	331.0	-24	321	1
2.7	2015_Jun_03_1451	s	s	20	3	SIC	210	RC	1	1	02VD 02VO 02VC 02MD 09MO 02MC 02RD 02RO	1	0	1.12934708595	-399.0	-225.0	-392	-224	1
2.7	2015_Jun_03_1451	s	s	20	3	SIC	211	ABS	2	1	02VD 10VO 02VC 02MD 02MO 02MC 02RD 02RO	0	1	4.30403399467	None	None	None	None	1
2.7	2015_Jun_03_1451	s	s	20	3	SIC	212	ABS	1	1	02VD 02VO 02VC 02MD 10MO 02MC 02RD 02RO	0	1	2.8360350132	None	None	None	None	1
2.7	2015_Jun_03_1451	s	s	20	3	SIC	213	ABS	0	2	02VD 02VO 02VC 02MD 02MO 02MC 10RD 02RO	0	1	1.9836909771	None	None	None	None	1
2.7	2015_Jun_03_1451	s	s	20	3	SIC	214	ABS	1	2	02VD 02VO 02VC 10MD 02MO 02MC 02RD 02RO	0	1	2.20707988739	None	None	None	None	1
2.7	2015_Jun_03_1451	s	s	20	3	SIC	215	RC	0	1	02VD 02VO 02VC 02MD 02MO 02MC 02RD 09RO	1	0	3.92531204224	414.0	259.0	415	261	1
2.7	2015_Jun_03_1451	s	s	20	3	SIC	216	RC	0	2	02VD 02VO 02VC 02MD 02MO 02MC 09RD 02RO	1	0	1.89485812187	-320.0	411.0	-325	400	1
2.7	2015_Jun_03_1451	s	s	20	3	SIC	217	ABS	2	0	02VD 02VO 10VC 02MD 02MO 02MC 02RD 02RO	0	1	1.91455197334	None	None	None	None	1
2.7	2015_Jun_03_1451	s	s	20	3	SIC	218	RC	1	0	02VD 02VO 02VC 02MD 02MO 09MC 02RD 02RO	1	0	0.693842887878	43.0	-82.0	38	-86	1
2.7	2015_Jun_03_1451	s	s	20	3	SIC	219	RC	2	1	02VD 09VO 02VC 02MD 02MO 02MC 02RD 02RO	1	0	1.86540699005	-388.0	-311.0	-391	-313	1
2.7	2015_Jun_03_1451	s	s	20	3	SIC	220	RC	1	2	02VD 02VO 02VC 09MD 02MO 02MC 02RD 02RO	1	0	0.891158819199	51.0	263.0	55	269	1
2.7	2015_Jun_03_1451	s	s	20	3	SIC	221	RC	2	2	09VD 02VO 02VC 02MD 02MO 02MC 02RD 02RO	1	0	0.799807071686	-56.0	211.0	-58	208	1
2.7	2015_Jun_03_1451	s	s	20	3	SIC	222	ABS	2	2	10VD 02VO 02VC 02MD 02MO 02MC 02RD 02RO	0	1	3.21941614151	None	None	None	None	1
2.7	2015_Jun_03_1451	s	s	20	3	SIC	223	ABS	1	0	02VD 02VO 02VC 02MD 02MO 10MC 02RD 02RO	0	1	3.86943101883	None	None	None	None	1
2.7	2015_Jun_03_1451	s	s	20	3	SIC	224	ABS	0	1	02VD 02VO 02VC 02MD 02MO 02MC 02RD 10RO	0	1	4.22504496574	None	None	None	None	1
2.7	2015_Jun_03_1451	s	s	20	3	SIC	225	ABS	0	2	02VD 02VO 02VC 02MD 02MO 02MC 10RD 02RO	0	1	1.96492004395	None	None	None	None	1
2.7	2015_Jun_03_1451	s	s	20	3	SIC	226	RC	2	1	02VD 09VO 02VC 02MD 02MO 02MC 02RD 02RO	1	0	1.04174304008	303.0	-34.0	299	-29	1
2.7	2015_Jun_03_1451	s	s	20	3	SIC	227	RC	0	2	02VD 02VO 02VC 02MD 02MO 02MC 09RD 02RO	1	0	1.18312096596	-216.0	-327.0	-217	-323	1
2.7	2015_Jun_03_1451	s	s	20	3	SIC	228	ABS	1	0	02VD 02VO 02VC 02MD 02MO 10MC 02RD 02RO	0	1	2.56036710739	None	None	None	None	1
2.7	2015_Jun_03_1451	s	s	20	3	SIC	229	RC	2	2	09VD 02VO 02VC 02MD 02MO 02MC 02RD 02RO	1	0	0.853694915771	314.0	-312.0	313	-312	1
2.7	2015_Jun_03_1451	s	s	20	3	SIC	230	ABS	2	0	02VD 02VO 10VC 02MD 02MO 02MC 02RD 02RO	0	1	2.04748296738	None	None	None	None	1
2.7	2015_Jun_03_1451	s	s	20	3	SIC	231	ABS	2	1	02VD 10VO 02VC 02MD 02MO 02MC 02RD 02RO	0	1	2.08282399178	None	None	None	None	1
2.7	2015_Jun_03_1451	s	s	20	3	SIC	232	RC	1	1	02VD 02VO 02VC 02MD 09MO 02MC 02RD 02RO	1	0	1.09408211708	-409.0	333.0	-403	335	1
2.7	2015_Jun_03_1451	s	s	20	3	SIC	233	ABS	0	1	02VD 02VO 02VC 02MD 02MO 02MC 02RD 10RO	0	1	4.09111905098	None	None	None	None	1
2.7	2015_Jun_03_1451	s	s	20	3	SIC	234	ABS	1	2	02VD 02VO 02VC 10MD 02MO 02MC 02RD 02RO	0	1	2.21946406364	None	None	None	None	1
2.7	2015_Jun_03_1451	s	s	20	3	SIC	235	RC	2	0	02VD 02VO 09VC 02MD 02MO 02MC 02RD 02RO	1	0	1.1293990612	72.0	-106.0	80	-106	1
2.7	2015_Jun_03_1451	s	s	20	3	SIC	236	RC	1	2	02VD 02VO 02VC 09MD 02MO 02MC 02RD 02RO	1	0	0.820677042007	-468.0	-57.0	-466	-57	1
2.7	2015_Jun_03_1451	s	s	20	3	SIC	237	RC	0	1	02VD 02VO 02VC 02MD 02MO 02MC 02RD 09RO	1	0	1.50104689598	301.0	-341.0	304	-334	1
2.7	2015_Jun_03_1451	s	s	20	3	SIC	238	ABS	1	1	02VD 02VO 02VC 02MD 10MO 02MC 02RD 02RO	0	1	3.11877179146	None	None	None	None	1
2.7	2015_Jun_03_1451	s	s	20	3	SIC	239	RC	1	0	02VD 02VO 02VC 02MD 02MO 09MC 02RD 02RO	1	0	0.853809118271	129.0	274.0	120	277	1
2.7	2015_Jun_03_1451	s	s	20	3	SIC	240	ABS	2	2	10VD 02VO 02VC 02MD 02MO 02MC 02RD 02RO	0	1	1.40006113052	None	None	None	None	1
2.7	2015_Jun_03_1451	s	s	20	3	SIC	241	ABS	1	0	02VD 02VO 02VC 02MD 02MO 10MC 02RD 02RO	0	1	3.87875294685	None	None	None	None	1
2.7	2015_Jun_03_1451	s	s	20	3	SIC	242	ABS	2	1	02VD 10VO 02VC 02MD 02MO 02MC 02RD 02RO	0	1	2.26595306396	None	None	None	None	1
2.7	2015_Jun_03_1451	s	s	20	3	SIC	243	RC	1	2	02VD 02VO 02VC 09MD 02MO 02MC 02RD 02RO	1	0	1.06502079964	-317.0	298.0	-316	294	1
2.7	2015_Jun_03_1451	s	s	20	3	SIC	244	ABS	2	2	10VD 02VO 02VC 02MD 02MO 02MC 02RD 02RO	0	1	1.93670487404	None	None	None	None	1
2.7	2015_Jun_03_1451	s	s	20	3	SIC	245	RC	1	0	02VD 02VO 02VC 02MD 02MO 09MC 02RD 02RO	1	0	1.50097799301	-132.0	368.0	-132	376	1
2.7	2015_Jun_03_1451	s	s	20	3	SIC	246	ABS	0	2	02VD 02VO 02VC 02MD 02MO 02MC 10RD 02RO	0	1	2.0552740097	None	None	None	None	1
2.7	2015_Jun_03_1451	s	s	20	3	SIC	247	RC	2	1	02VD 09VO 02VC 02MD 02MO 02MC 02RD 02RO	1	0	1.61981511116	-373.0	211.0	-377	207	1
2.7	2015_Jun_03_1451	s	s	20	3	SIC	248	ABS	0	1	02VD 02VO 02VC 02MD 02MO 02MC 02RD 10RO	0	1	2.99714207649	None	None	None	None	1
2.7	2015_Jun_03_1451	s	s	20	3	SIC	249	RC	2	0	02VD 02VO 09VC 02MD 02MO 02MC 02RD 02RO	1	0	0.988154888153	-378.0	-34.0	-383	-32	1
2.7	2015_Jun_03_1451	s	s	20	3	SIC	250	ABS	1	1	02VD 02VO 02VC 02MD 10MO 02MC 02RD 02RO	0	1	2.59744095802	None	None	None	None	1
2.7	2015_Jun_03_1451	s	s	20	3	SIC	251	RC	2	2	09VD 02VO 02VC 02MD 02MO 02MC 02RD 02RO	1	0	1.15288305283	130.0	327.0	122	324	1
2.7	2015_Jun_03_1451	s	s	20	3	SIC	252	ABS	2	0	02VD 02VO 10VC 02MD 02MO 02MC 02RD 02RO	0	1	2.30091190338	None	None	None	None	1
2.7	2015_Jun_03_1451	s	s	20	3	SIC	253	RC	0	1	02VD 02VO 02VC 02MD 02MO 02MC 02RD 09RO	1	0	0.78803896904	-411.0	185.0	-410	180	1
2.7	2015_Jun_03_1451	s	s	20	3	SIC	254	RC	0	2	02VD 02VO 02VC 02MD 02MO 02MC 09RD 02RO	1	0	1.98153209686	355.0	-304.0	358	-302	1
2.7	2015_Jun_03_1451	s	s	20	3	SIC	255	RC	1	1	02VD 02VO 02VC 02MD 09MO 02MC 02RD 02RO	1	0	2.00037407875	324.0	-209.0	320	-206	1
2.7	2015_Jun_03_1451	s	s	20	3	SIC	256	ABS	1	2	02VD 02VO 02VC 10MD 02MO 02MC 02RD 02RO	0	1	1.79525494576	None	None	None	None	1
2.7	2015_Jun_03_1451	s	s	20	3	SIC	257	RC	0	1	02VD 02VO 02VC 02MD 02MO 02MC 02RD 09RO	1	0	2.05925416946	-318.0	-328.0	-322	-329	1
2.7	2015_Jun_03_1451	s	s	20	3	SIC	258	ABS	2	2	10VD 02VO 02VC 02MD 02MO 02MC 02RD 02RO	0	1	1.93653988838	None	None	None	None	1
2.7	2015_Jun_03_1451	s	s	20	3	SIC	259	ABS	0	2	02VD 02VO 02VC 02MD 02MO 02MC 10RD 02RO	0	1	2.49949908257	None	None	None	None	1
2.7	2015_Jun_03_1451	s	s	20	3	SIC	260	RC	0	2	02VD 02VO 02VC 02MD 02MO 02MC 09RD 02RO	1	0	2.3490960598	504.0	216.0	503	214	1
2.7	2015_Jun_03_1451	s	s	20	3	SIC	261	RC	2	1	02VD 09VO 02VC 02MD 02MO 02MC 02RD 02RO	1	0	0.882225036621	404.0	123.0	396	125	1
2.7	2015_Jun_03_1451	s	s	20	3	SIC	262	ABS	2	0	02VD 02VO 10VC 02MD 02MO 02MC 02RD 02RO	0	1	1.76480102539	None	None	None	None	1
2.7	2015_Jun_03_1451	s	s	20	3	SIC	263	RC	1	1	02VD 02VO 02VC 02MD 09MO 02MC 02RD 02RO	1	0	1.54929804802	179.0	355.0	185	360	1
2.7	2015_Jun_03_1451	s	s	20	3	SIC	264	ABS	1	0	02VD 02VO 02VC 02MD 02MO 10MC 02RD 02RO	0	1	3.88370013237	None	None	None	None	1
2.7	2015_Jun_03_1451	s	s	20	3	SIC	265	RC	2	0	02VD 02VO 09VC 02MD 02MO 02MC 02RD 02RO	1	0	0.82376408577	333.0	-325.0	329	-325	1
2.7	2015_Jun_03_1451	s	s	20	3	SIC	266	RC	1	0	02VD 02VO 02VC 02MD 02MO 09MC 02RD 02RO	1	0	0.73724603653	-87.0	-39.0	-86	-32	1
2.7	2015_Jun_03_1451	s	s	20	3	SIC	267	ABS	1	1	02VD 02VO 02VC 02MD 10MO 02MC 02RD 02RO	0	1	2.71513104439	None	None	None	None	1
2.7	2015_Jun_03_1451	s	s	20	3	SIC	268	ABS	1	2	02VD 02VO 02VC 10MD 02MO 02MC 02RD 02RO	0	1	2.25602698326	None	None	None	None	1
2.7	2015_Jun_03_1451	s	s	20	3	SIC	269	RC	2	2	09VD 02VO 02VC 02MD 02MO 02MC 02RD 02RO	1	0	1.19700098038	254.0	377.0	259	379	1
2.7	2015_Jun_03_1451	s	s	20	3	SIC	270	ABS	2	1	02VD 10VO 02VC 02MD 02MO 02MC 02RD 02RO	0	1	1.8195130825	None	None	None	None	1
2.7	2015_Jun_03_1451	s	s	20	3	SIC	271	RC	1	2	02VD 02VO 02VC 09MD 02MO 02MC 02RD 02RO	1	0	1.17155885696	-467.0	260.0	-474	258	1
2.7	2015_Jun_03_1451	s	s	20	3	SIC	272	ABS	0	1	02VD 02VO 02VC 02MD 02MO 02MC 02RD 10RO	0	1	3.0893509388	None	None	None	None	1
2.7	2015_Jun_03_1451	s	s	20	3	SIC	273	RC	0	1	02VD 02VO 02VC 02MD 02MO 02MC 02RD 09RO	1	0	2.7386701107	-529.0	371.0	-534	365	1
2.7	2015_Jun_03_1451	s	s	20	3	SIC	274	RC	1	2	02VD 02VO 02VC 09MD 02MO 02MC 02RD 02RO	1	0	0.782488822937	186.0	-13.0	183	-17	1
2.7	2015_Jun_03_1451	s	s	20	3	SIC	275	RC	0	2	02VD 02VO 02VC 02MD 02MO 02MC 09RD 02RO	1	0	0.712632894516	-126.0	146.0	-131	141	1
2.7	2015_Jun_03_1451	s	s	20	3	SIC	276	ABS	2	2	10VD 02VO 02VC 02MD 02MO 02MC 02RD 02RO	0	1	1.89101696014	None	None	None	None	1
2.7	2015_Jun_03_1451	s	s	20	3	SIC	277	ABS	1	1	02VD 02VO 02VC 02MD 10MO 02MC 02RD 02RO	0	1	2.8243868351	None	None	None	None	1
2.7	2015_Jun_03_1451	s	s	20	3	SIC	278	RC	2	0	02VD 02VO 09VC 02MD 02MO 02MC 02RD 02RO	1	0	2.09449911118	420.0	87.0	422	83	1
2.7	2015_Jun_03_1451	s	s	20	3	SIC	279	ABS	1	2	02VD 02VO 02VC 10MD 02MO 02MC 02RD 02RO	0	1	2.53004312515	None	None	None	None	1
2.7	2015_Jun_03_1451	s	s	20	3	SIC	280	RC	1	1	02VD 02VO 02VC 02MD 09MO 02MC 02RD 02RO	1	0	1.16463494301	-302.0	279.0	-297	272	1
2.7	2015_Jun_03_1451	s	s	20	3	SIC	281	RC	2	1	02VD 09VO 02VC 02MD 02MO 02MC 02RD 02RO	1	0	1.27068305016	164.0	-82.0	169	-78	1
2.7	2015_Jun_03_1451	s	s	20	3	SIC	282	RC	2	2	09VD 02VO 02VC 02MD 02MO 02MC 02RD 02RO	1	0	0.635116100311	23.0	-105.0	27	-99	1
2.7	2015_Jun_03_1451	s	s	20	3	SIC	283	ABS	0	2	02VD 02VO 02VC 02MD 02MO 02MC 10RD 02RO	1	0	0.858615875244	None	None	-311	-248	0
2.7	2015_Jun_03_1451	s	s	20	3	SIC	284	RC	1	0	02VD 02VO 02VC 02MD 02MO 09MC 02RD 02RO	1	0	1.23041081429	-324.0	156.0	-325	151	1
2.7	2015_Jun_03_1451	s	s	20	3	SIC	285	ABS	0	1	02VD 02VO 02VC 02MD 02MO 02MC 02RD 10RO	0	1	9.95724105835	None	None	None	None	1
2.7	2015_Jun_03_1451	s	s	20	3	SIC	286	ABS	1	0	02VD 02VO 02VC 02MD 02MO 10MC 02RD 02RO	0	1	3.11848306656	None	None	None	None	1
2.7	2015_Jun_03_1451	s	s	20	3	SIC	287	ABS	2	0	02VD 02VO 10VC 02MD 02MO 02MC 02RD 02RO	0	1	1.47757720947	None	None	None	None	1
2.7	2015_Jun_03_1451	s	s	20	3	SIC	288	ABS	2	1	02VD 10VO 02VC 02MD 02MO 02MC 02RD 02RO	0	1	2.2448580265	None	None	None	None	1
2.7	2015_Jun_03_1451	s	s	20	3	SIC	289	RC	1	0	02VD 02VO 02VC 02MD 02MO 09MC 02RD 02RO	1	0	0.846866846085	-211.0	-211.0	-211	-202	1
2.7	2015_Jun_03_1451	s	s	20	3	SIC	290	RC	0	2	02VD 02VO 02VC 02MD 02MO 02MC 09RD 02RO	1	0	0.941049814224	-422.0	-10.0	-412	-8	1
2.7	2015_Jun_03_1451	s	s	20	3	SIC	291	RC	0	1	02VD 02VO 02VC 02MD 02MO 02MC 02RD 09RO	1	0	2.61858606339	39.0	382.0	32	375	1
2.7	2015_Jun_03_1451	s	s	20	3	SIC	292	RC	1	2	02VD 02VO 02VC 09MD 02MO 02MC 02RD 02RO	1	0	1.24724912643	390.0	125.0	393	128	1
2.7	2015_Jun_03_1451	s	s	20	3	SIC	293	ABS	1	0	02VD 02VO 02VC 02MD 02MO 10MC 02RD 02RO	0	1	2.48985886574	None	None	None	None	1
2.7	2015_Jun_03_1451	s	s	20	3	SIC	294	RC	2	1	02VD 09VO 02VC 02MD 02MO 02MC 02RD 02RO	1	0	1.19485402107	419.0	270.0	424	266	1
2.7	2015_Jun_03_1451	s	s	20	3	SIC	295	ABS	0	1	02VD 02VO 02VC 02MD 02MO 02MC 02RD 10RO	0	1	3.1843290329	None	None	None	None	1
2.7	2015_Jun_03_1451	s	s	20	3	SIC	296	ABS	2	1	02VD 10VO 02VC 02MD 02MO 02MC 02RD 02RO	0	1	1.84254598618	None	None	None	None	1
2.7	2015_Jun_03_1451	s	s	20	3	SIC	297	ABS	1	1	02VD 02VO 02VC 02MD 10MO 02MC 02RD 02RO	0	1	2.05477881432	None	None	None	None	1
2.7	2015_Jun_03_1451	s	s	20	3	SIC	298	RC	2	2	09VD 02VO 02VC 02MD 02MO 02MC 02RD 02RO	1	0	1.32944011688	150.0	142.0	144	143	1
2.7	2015_Jun_03_1451	s	s	20	3	SIC	299	RC	1	1	02VD 02VO 02VC 02MD 09MO 02MC 02RD 02RO	1	0	0.623225927353	147.0	-182.0	153	-183	1
2.7	2015_Jun_03_1451	s	s	20	3	SIC	300	ABS	2	2	10VD 02VO 02VC 02MD 02MO 02MC 02RD 02RO	0	1	2.43220210075	None	None	None	None	1
2.7	2015_Jun_03_1451	s	s	20	3	SIC	301	RC	2	0	02VD 02VO 09VC 02MD 02MO 02MC 02RD 02RO	1	0	1.27728509903	69.0	268.0	63	265	1
2.7	2015_Jun_03_1451	s	s	20	3	SIC	302	ABS	1	2	02VD 02VO 02VC 10MD 02MO 02MC 02RD 02RO	0	1	1.92975783348	None	None	None	None	1
2.7	2015_Jun_03_1451	s	s	20	3	SIC	303	ABS	0	2	02VD 02VO 02VC 02MD 02MO 02MC 10RD 02RO	0	1	1.79517889023	None	None	None	None	1
2.7	2015_Jun_03_1451	s	s	20	3	SIC	304	ABS	2	0	02VD 02VO 10VC 02MD 02MO 02MC 02RD 02RO	0	1	2.83136415482	None	None	None	None	1
2.7	2015_Jun_03_1451	s	s	20	3	SIC	305	ABS	2	2	10VD 02VO 02VC 02MD 02MO 02MC 02RD 02RO	0	1	2.15073895454	None	None	None	None	1
2.7	2015_Jun_03_1451	s	s	20	3	SIC	306	RC	1	1	02VD 02VO 02VC 02MD 09MO 02MC 02RD 02RO	1	0	1.57174396515	-471.0	223.0	-479	228	1
2.7	2015_Jun_03_1451	s	s	20	3	SIC	307	ABS	0	1	02VD 02VO 02VC 02MD 02MO 02MC 02RD 10RO	0	0	-1	None	None	None	None	-1
2.7	2015_Jun_03_1451	s	s	20	3	SIC	308	ABS	2	0	02VD 02VO 10VC 02MD 02MO 02MC 02RD 02RO	0	0	-1	None	None	None	None	-1
2.7	2015_Jun_03_1451	s	s	20	3	SIC	309	RC	2	2	09VD 02VO 02VC 02MD 02MO 02MC 02RD 02RO	0	0	-1	-200.0	-295.0	None	None	-1
2.7	2015_Jun_03_1451	s	s	20	3	SIC	310	ABS	1	0	02VD 02VO 02VC 02MD 02MO 10MC 02RD 02RO	0	1	4.2909090519	None	None	None	None	1
2.7	2015_Jun_03_1451	s	s	20	3	SIC	311	RC	2	0	02VD 02VO 09VC 02MD 02MO 02MC 02RD 02RO	1	0	0.831984996796	-311.0	-40.0	-299	-37	1
2.7	2015_Jun_03_1451	s	s	20	3	SIC	312	ABS	2	1	02VD 10VO 02VC 02MD 02MO 02MC 02RD 02RO	0	1	2.37013602257	None	None	None	None	1
2.7	2015_Jun_03_1451	s	s	20	3	SIC	313	RC	1	0	02VD 02VO 02VC 02MD 02MO 09MC 02RD 02RO	1	0	0.630218982697	2.0	155.0	2	154	1
2.7	2015_Jun_03_1451	s	s	20	3	SIC	314	ABS	1	2	02VD 02VO 02VC 10MD 02MO 02MC 02RD 02RO	0	1	1.86604213715	None	None	None	None	1
2.7	2015_Jun_03_1451	s	s	20	3	SIC	315	RC	1	2	02VD 02VO 02VC 09MD 02MO 02MC 02RD 02RO	1	0	0.941055059433	188.0	402.0	190	402	1
2.7	2015_Jun_03_1451	s	s	20	3	SIC	316	RC	0	1	02VD 02VO 02VC 02MD 02MO 02MC 02RD 09RO	1	0	1.83563113213	-204.0	-364.0	-204	-356	1
2.7	2015_Jun_03_1451	s	s	20	3	SIC	317	RC	2	1	02VD 09VO 02VC 02MD 02MO 02MC 02RD 02RO	1	0	0.729183912277	211.0	-288.0	213	-283	1
2.7	2015_Jun_03_1451	s	s	20	3	SIC	318	ABS	0	2	02VD 02VO 02VC 02MD 02MO 02MC 10RD 02RO	0	1	2.94888710976	None	None	None	None	1
2.7	2015_Jun_03_1451	s	s	20	3	SIC	319	RC	0	2	02VD 02VO 02VC 02MD 02MO 02MC 09RD 02RO	1	0	0.89031291008	308.0	-383.0	311	-376	1
2.7	2015_Jun_03_1451	s	s	20	3	SIC	320	ABS	1	1	02VD 02VO 02VC 02MD 10MO 02MC 02RD 02RO	0	1	3.34946990013	None	None	None	None	1
2.7	2015_Jun_03_1451	s	s	20	3	SIC	321	RC	1	2	02VD 02VO 02VC 09MD 02MO 02MC 02RD 02RO	1	0	0.771343946457	113.0	-128.0	103	-123	1
2.7	2015_Jun_03_1451	s	s	20	3	SIC	322	RC	2	2	09VD 02VO 02VC 02MD 02MO 02MC 02RD 02RO	1	0	0.725695848465	-245.0	-71.0	-234	-69	1
2.7	2015_Jun_03_1451	s	s	20	3	SIC	323	RC	0	1	02VD 02VO 02VC 02MD 02MO 02MC 02RD 09RO	1	0	1.40668988228	-352.0	216.0	-350	220	1
2.7	2015_Jun_03_1451	s	s	20	3	SIC	324	ABS	1	2	02VD 02VO 02VC 10MD 02MO 02MC 02RD 02RO	1	0	1.51774692535	None	None	82	107	0
2.7	2015_Jun_03_1451	s	s	20	3	SIC	325	RC	1	0	02VD 02VO 02VC 02MD 02MO 09MC 02RD 02RO	1	0	1.5010240078	291.0	380.0	287	375	1
2.7	2015_Jun_03_1451	s	s	20	3	SIC	326	ABS	2	0	02VD 02VO 10VC 02MD 02MO 02MC 02RD 02RO	0	1	1.57100081444	None	None	None	None	1
2.7	2015_Jun_03_1451	s	s	20	3	SIC	327	RC	2	0	02VD 02VO 09VC 02MD 02MO 02MC 02RD 02RO	1	0	0.629633903503	-204.0	-108.0	-203	-106	1
2.7	2015_Jun_03_1451	s	s	20	3	SIC	328	ABS	2	2	10VD 02VO 02VC 02MD 02MO 02MC 02RD 02RO	0	1	1.98327183723	None	None	None	None	1
2.7	2015_Jun_03_1451	s	s	20	3	SIC	329	RC	1	1	02VD 02VO 02VC 02MD 09MO 02MC 02RD 02RO	1	0	2.07715797424	299.0	-47.0	290	-38	1
2.7	2015_Jun_03_1451	s	s	20	3	SIC	330	ABS	0	2	02VD 02VO 02VC 02MD 02MO 02MC 10RD 02RO	0	1	2.32492995262	None	None	None	None	1
2.7	2015_Jun_03_1451	s	s	20	3	SIC	331	ABS	2	1	02VD 10VO 02VC 02MD 02MO 02MC 02RD 02RO	0	1	3.31602191925	None	None	None	None	1
2.7	2015_Jun_03_1451	s	s	20	3	SIC	332	ABS	0	1	02VD 02VO 02VC 02MD 02MO 02MC 02RD 10RO	0	1	2.49471306801	None	None	None	None	1
2.7	2015_Jun_03_1451	s	s	20	3	SIC	333	RC	2	1	02VD 09VO 02VC 02MD 02MO 02MC 02RD 02RO	1	0	0.65615105629	-298.0	-46.0	-295	-45	1
2.7	2015_Jun_03_1451	s	s	20	3	SIC	334	ABS	1	1	02VD 02VO 02VC 02MD 10MO 02MC 02RD 02RO	0	1	3.11494994164	None	None	None	None	1
2.7	2015_Jun_03_1451	s	s	20	3	SIC	335	RC	0	2	02VD 02VO 02VC 02MD 02MO 02MC 09RD 02RO	1	0	0.8887591362	275.0	-303.0	279	-298	1
2.7	2015_Jun_03_1451	s	s	20	3	SIC	336	ABS	1	0	02VD 02VO 02VC 02MD 02MO 10MC 02RD 02RO	0	1	2.14839887619	None	None	None	None	1
2.7	2015_Jun_03_1451	s	s	20	3	SIC	337	ABS	2	2	10VD 02VO 02VC 02MD 02MO 02MC 02RD 02RO	0	1	1.73877906799	None	None	None	None	1
2.7	2015_Jun_03_1451	s	s	20	3	SIC	338	RC	0	2	02VD 02VO 02VC 02MD 02MO 02MC 09RD 02RO	1	0	1.7567088604	360.0	264.0	358	258	1
2.7	2015_Jun_03_1451	s	s	20	3	SIC	339	RC	1	1	02VD 02VO 02VC 02MD 09MO 02MC 02RD 02RO	1	0	2.1002099514	394.0	-1.0	393	-2	1
2.7	2015_Jun_03_1451	s	s	20	3	SIC	340	RC	2	0	02VD 02VO 09VC 02MD 02MO 02MC 02RD 02RO	1	0	0.858598947525	-421.0	117.0	-425	109	1
2.7	2015_Jun_03_1451	s	s	20	3	SIC	341	ABS	2	0	02VD 02VO 10VC 02MD 02MO 02MC 02RD 02RO	0	1	1.95337200165	None	None	None	None	1
2.7	2015_Jun_03_1451	s	s	20	3	SIC	342	RC	1	0	02VD 02VO 02VC 02MD 02MO 09MC 02RD 02RO	1	0	1.57222414017	-131.0	310.0	-136	303	1
2.7	2015_Jun_03_1451	s	s	20	3	SIC	343	ABS	1	0	02VD 02VO 02VC 02MD 02MO 10MC 02RD 02RO	0	1	1.73663115501	None	None	None	None	1
2.7	2015_Jun_03_1451	s	s	20	3	SIC	344	ABS	1	2	02VD 02VO 02VC 10MD 02MO 02MC 02RD 02RO	0	1	1.7650167942	None	None	None	None	1
2.7	2015_Jun_03_1451	s	s	20	3	SIC	345	ABS	0	1	02VD 02VO 02VC 02MD 02MO 02MC 02RD 10RO	0	1	4.49569106102	None	None	None	None	1
2.7	2015_Jun_03_1451	s	s	20	3	SIC	346	ABS	2	1	02VD 10VO 02VC 02MD 02MO 02MC 02RD 02RO	0	1	1.96186184883	None	None	None	None	1
2.7	2015_Jun_03_1451	s	s	20	3	SIC	347	RC	1	2	02VD 02VO 02VC 09MD 02MO 02MC 02RD 02RO	1	0	1.30961322784	-399.0	359.0	-406	358	1
2.7	2015_Jun_03_1451	s	s	20	3	SIC	348	RC	2	2	09VD 02VO 02VC 02MD 02MO 02MC 02RD 02RO	1	0	1.04252910614	396.0	296.0	393	291	1
2.7	2015_Jun_03_1451	s	s	20	3	SIC	349	RC	0	1	02VD 02VO 02VC 02MD 02MO 02MC 02RD 09RO	1	0	1.25367689133	-388.0	-37.0	-385	-36	1
2.7	2015_Jun_03_1451	s	s	20	3	SIC	350	ABS	1	1	02VD 02VO 02VC 02MD 10MO 02MC 02RD 02RO	0	1	3.91313195229	None	None	None	None	1
2.7	2015_Jun_03_1451	s	s	20	3	SIC	351	ABS	0	2	02VD 02VO 02VC 02MD 02MO 02MC 10RD 02RO	0	1	1.79684519768	None	None	None	None	1
2.7	2015_Jun_03_1451	s	s	20	3	SIC	352	RC	2	1	02VD 09VO 02VC 02MD 02MO 02MC 02RD 02RO	1	0	0.9291639328	-499.0	181.0	-492	181	1
2.7	2015_Jun_03_1451	s	s	20	3	SIC	353	ABS	0	1	02VD 02VO 02VC 02MD 02MO 02MC 02RD 10RO	0	1	4.15436291695	None	None	None	None	1
2.7	2015_Jun_03_1451	s	s	20	3	SIC	354	RC	0	2	02VD 02VO 02VC 02MD 02MO 02MC 09RD 02RO	1	0	1.1411550045	456.0	188.0	466	196	1
2.7	2015_Jun_03_1451	s	s	20	3	SIC	355	RC	1	1	02VD 02VO 02VC 02MD 09MO 02MC 02RD 02RO	1	0	1.59759402275	454.0	92.0	456	91	1
2.7	2015_Jun_03_1451	s	s	20	3	SIC	356	RC	1	0	02VD 02VO 02VC 02MD 02MO 09MC 02RD 02RO	1	0	0.705629110336	-49.0	189.0	-53	184	1
2.7	2015_Jun_03_1451	s	s	20	3	SIC	357	ABS	1	1	02VD 02VO 02VC 02MD 10MO 02MC 02RD 02RO	0	1	2.25931406021	None	None	None	None	1
2.7	2015_Jun_03_1451	s	s	20	3	SIC	358	RC	2	2	09VD 02VO 02VC 02MD 02MO 02MC 02RD 02RO	1	0	1.77168989182	108.0	390.0	109	390	1
2.7	2015_Jun_03_1451	s	s	20	3	SIC	359	ABS	2	2	10VD 02VO 02VC 02MD 02MO 02MC 02RD 02RO	0	1	1.68932008743	None	None	None	None	1
2.7	2015_Jun_03_1451	s	s	20	3	SIC	360	ABS	0	2	02VD 02VO 02VC 02MD 02MO 02MC 10RD 02RO	0	1	2.53005385399	None	None	None	None	1
2.7	2015_Jun_03_1451	s	s	20	3	SIC	361	RC	1	2	02VD 02VO 02VC 09MD 02MO 02MC 02RD 02RO	1	0	2.53540086746	-343.0	253.0	-330	257	1
2.7	2015_Jun_03_1451	s	s	20	3	SIC	362	RC	0	1	02VD 02VO 02VC 02MD 02MO 02MC 02RD 09RO	1	0	0.893975019455	-111.0	281.0	-101	288	1
2.7	2015_Jun_03_1451	s	s	20	3	SIC	363	ABS	1	2	02VD 02VO 02VC 10MD 02MO 02MC 02RD 02RO	0	1	2.0916519165	None	None	None	None	1
2.7	2015_Jun_03_1451	s	s	20	3	SIC	364	ABS	2	0	02VD 02VO 10VC 02MD 02MO 02MC 02RD 02RO	0	1	2.17730808258	None	None	None	None	1
2.7	2015_Jun_03_1451	s	s	20	3	SIC	365	ABS	1	0	02VD 02VO 02VC 02MD 02MO 10MC 02RD 02RO	0	1	2.42129516602	None	None	None	None	1
2.7	2015_Jun_03_1451	s	s	20	3	SIC	366	RC	2	0	02VD 02VO 09VC 02MD 02MO 02MC 02RD 02RO	1	0	0.823636054993	391.0	-164.0	383	-160	1
2.7	2015_Jun_03_1451	s	s	20	3	SIC	367	RC	2	1	02VD 09VO 02VC 02MD 02MO 02MC 02RD 02RO	1	0	1.41186714172	-273.0	216.0	-282	212	1
2.7	2015_Jun_03_1451	s	s	20	3	SIC	368	ABS	2	1	02VD 10VO 02VC 02MD 02MO 02MC 02RD 02RO	0	1	2.40898799896	None	None	None	None	1
2.7	2015_Jun_03_1451	s	s	20	3	SIC	369	ABS	2	0	02VD 02VO 10VC 02MD 02MO 02MC 02RD 02RO	0	1	2.28966403008	None	None	None	None	1
2.7	2015_Jun_03_1451	s	s	20	3	SIC	370	RC	1	0	02VD 02VO 02VC 02MD 02MO 09MC 02RD 02RO	1	0	0.917944908142	-333.0	-378.0	-323	-377	1
2.7	2015_Jun_03_1451	s	s	20	3	SIC	371	ABS	1	2	02VD 02VO 02VC 10MD 02MO 02MC 02RD 02RO	0	1	2.62418889999	None	None	None	None	1
2.7	2015_Jun_03_1451	s	s	20	3	SIC	372	ABS	0	2	02VD 02VO 02VC 02MD 02MO 02MC 10RD 02RO	0	1	3.14890980721	None	None	None	None	1
2.7	2015_Jun_03_1451	s	s	20	3	SIC	373	ABS	2	2	10VD 02VO 02VC 02MD 02MO 02MC 02RD 02RO	0	1	3.06587219238	None	None	None	None	1
2.7	2015_Jun_03_1451	s	s	20	3	SIC	374	RC	2	0	02VD 02VO 09VC 02MD 02MO 02MC 02RD 02RO	1	0	0.795262098312	261.0	-20.0	253	-26	1
2.7	2015_Jun_03_1451	s	s	20	3	SIC	375	ABS	1	1	02VD 02VO 02VC 02MD 10MO 02MC 02RD 02RO	0	1	2.91044306755	None	None	None	None	1
2.7	2015_Jun_03_1451	s	s	20	3	SIC	376	RC	1	1	02VD 02VO 02VC 02MD 09MO 02MC 02RD 02RO	1	0	3.84390687943	-344.0	-93.0	-349	-92	1
2.7	2015_Jun_03_1451	s	s	20	3	SIC	377	RC	0	2	02VD 02VO 02VC 02MD 02MO 02MC 09RD 02RO	1	0	2.39804410934	-346.0	263.0	-344	266	1
2.7	2015_Jun_03_1451	s	s	20	3	SIC	378	RC	0	1	02VD 02VO 02VC 02MD 02MO 02MC 02RD 09RO	0	1	4.40854096413	-515.0	360.0	None	None	0
2.7	2015_Jun_03_1451	s	s	20	3	SIC	379	RC	1	2	02VD 02VO 02VC 09MD 02MO 02MC 02RD 02RO	1	0	0.867812156677	-412.0	193.0	-412	189	1
2.7	2015_Jun_03_1451	s	s	20	3	SIC	380	ABS	0	1	02VD 02VO 02VC 02MD 02MO 02MC 02RD 10RO	0	1	3.7306189537	None	None	None	None	1
2.7	2015_Jun_03_1451	s	s	20	3	SIC	381	ABS	1	0	02VD 02VO 02VC 02MD 02MO 10MC 02RD 02RO	0	1	3.00803112984	None	None	None	None	1
2.7	2015_Jun_03_1451	s	s	20	3	SIC	382	ABS	2	1	02VD 10VO 02VC 02MD 02MO 02MC 02RD 02RO	0	1	1.75996518135	None	None	None	None	1
2.7	2015_Jun_03_1451	s	s	20	3	SIC	383	RC	2	1	02VD 09VO 02VC 02MD 02MO 02MC 02RD 02RO	1	0	0.808958053589	474.0	82.0	463	87	1
2.7	2015_Jun_03_1451	s	s	20	3	SIC	384	RC	2	2	09VD 02VO 02VC 02MD 02MO 02MC 02RD 02RO	1	0	0.606656074524	-194.0	-94.0	-183	-92	1
2.7	2015_Jun_03_1451	s	s	20	3	SIC	385	RC	1	2	02VD 02VO 02VC 09MD 02MO 02MC 02RD 02RO	1	0	0.788017034531	462.0	-221.0	466	-222	1
2.7	2015_Jun_03_1451	s	s	20	3	SIC	386	ABS	2	0	02VD 02VO 10VC 02MD 02MO 02MC 02RD 02RO	0	1	1.89816498756	None	None	None	None	1
2.7	2015_Jun_03_1451	s	s	20	3	SIC	387	RC	0	1	02VD 02VO 02VC 02MD 02MO 02MC 02RD 09RO	1	0	0.923684120178	283.0	326.0	278	331	1
2.7	2015_Jun_03_1451	s	s	20	3	SIC	388	RC	2	2	09VD 02VO 02VC 02MD 02MO 02MC 02RD 02RO	1	0	0.724197864532	402.0	76.0	399	78	1
2.7	2015_Jun_03_1451	s	s	20	3	SIC	389	ABS	0	1	02VD 02VO 02VC 02MD 02MO 02MC 02RD 10RO	0	1	3.94299292564	None	None	None	None	1
2.7	2015_Jun_03_1451	s	s	20	3	SIC	390	ABS	1	0	02VD 02VO 02VC 02MD 02MO 10MC 02RD 02RO	0	1	2.73758888245	None	None	None	None	1
2.7	2015_Jun_03_1451	s	s	20	3	SIC	391	ABS	1	2	02VD 02VO 02VC 10MD 02MO 02MC 02RD 02RO	0	1	1.89439201355	None	None	None	None	1
2.7	2015_Jun_03_1451	s	s	20	3	SIC	392	RC	1	0	02VD 02VO 02VC 02MD 02MO 09MC 02RD 02RO	1	0	0.903211116791	324.0	-404.0	326	-400	1
2.7	2015_Jun_03_1451	s	s	20	3	SIC	393	ABS	2	1	02VD 10VO 02VC 02MD 02MO 02MC 02RD 02RO	0	1	1.97685718536	None	None	None	None	1
2.7	2015_Jun_03_1451	s	s	20	3	SIC	394	RC	0	2	02VD 02VO 02VC 02MD 02MO 02MC 09RD 02RO	1	0	1.5241420269	482.0	80.0	483	84	1
2.7	2015_Jun_03_1451	s	s	20	3	SIC	395	ABS	2	2	10VD 02VO 02VC 02MD 02MO 02MC 02RD 02RO	0	1	1.51263689995	None	None	None	None	1
2.7	2015_Jun_03_1451	s	s	20	3	SIC	396	RC	2	0	02VD 02VO 09VC 02MD 02MO 02MC 02RD 02RO	1	0	0.654601097107	126.0	-123.0	130	-116	1
2.7	2015_Jun_03_1451	s	s	20	3	SIC	397	RC	2	1	02VD 09VO 02VC 02MD 02MO 02MC 02RD 02RO	1	0	0.493726015091	-26.0	66.0	-25	53	1
2.7	2015_Jun_03_1451	s	s	20	3	SIC	398	ABS	0	2	02VD 02VO 02VC 02MD 02MO 02MC 10RD 02RO	0	1	1.96506404877	None	None	None	None	1
2.7	2015_Jun_03_1451	s	s	20	3	SIC	399	ABS	1	1	02VD 02VO 02VC 02MD 10MO 02MC 02RD 02RO	0	1	2.38634800911	None	None	None	None	1
2.7	2015_Jun_03_1451	s	s	20	3	SIC	400	RC	1	1	02VD 02VO 02VC 02MD 09MO 02MC 02RD 02RO	0	1	2.01220798492	454.0	381.0	None	None	0
2.7	2015_Jun_03_1451	s	s	20	3	SIC	401	ABS	2	1	02VD 10VO 02VC 02MD 02MO 02MC 02RD 02RO	0	1	2.04771113396	None	None	None	None	1
2.7	2015_Jun_03_1451	s	s	20	3	SIC	402	RC	2	2	09VD 02VO 02VC 02MD 02MO 02MC 02RD 02RO	1	0	0.73574590683	-12.0	-44.0	-11	-41	1
2.7	2015_Jun_03_1451	s	s	20	3	SIC	403	ABS	1	2	02VD 02VO 02VC 10MD 02MO 02MC 02RD 02RO	0	1	15.9310741425	None	None	None	None	1
2.7	2015_Jun_03_1451	s	s	20	3	SIC	404	RC	1	0	02VD 02VO 02VC 02MD 02MO 09MC 02RD 02RO	1	0	5.23091006279	-5.0	-149.0	-2	-146	1
2.7	2015_Jun_03_1451	s	s	20	3	SIC	405	RC	0	1	02VD 02VO 02VC 02MD 02MO 02MC 02RD 09RO	1	0	1.37165999413	-355.0	-407.0	-349	-413	1
2.7	2015_Jun_03_1451	s	s	20	3	SIC	406	ABS	2	0	02VD 02VO 10VC 02MD 02MO 02MC 02RD 02RO	0	1	1.16163992882	None	None	None	None	1
2.7	2015_Jun_03_1451	s	s	20	3	SIC	407	RC	1	1	02VD 02VO 02VC 02MD 09MO 02MC 02RD 02RO	1	0	0.641574859619	-149.0	174.0	-159	173	1
2.7	2015_Jun_03_1451	s	s	20	3	SIC	408	ABS	1	0	02VD 02VO 02VC 02MD 02MO 10MC 02RD 02RO	0	1	1.90071105957	None	None	None	None	1
2.7	2015_Jun_03_1451	s	s	20	3	SIC	409	RC	0	2	02VD 02VO 02VC 02MD 02MO 02MC 09RD 02RO	1	0	0.64677977562	34.0	305.0	29	294	1
2.7	2015_Jun_03_1451	s	s	20	3	SIC	410	RC	2	1	02VD 09VO 02VC 02MD 02MO 02MC 02RD 02RO	1	0	1.87084197998	287.0	380.0	279	378	1
2.7	2015_Jun_03_1451	s	s	20	3	SIC	411	ABS	2	2	10VD 02VO 02VC 02MD 02MO 02MC 02RD 02RO	0	1	1.55307412148	None	None	None	None	1
2.7	2015_Jun_03_1451	s	s	20	3	SIC	412	ABS	1	1	02VD 02VO 02VC 02MD 10MO 02MC 02RD 02RO	0	1	1.44406104088	None	None	None	None	1
2.7	2015_Jun_03_1451	s	s	20	3	SIC	413	RC	1	2	02VD 02VO 02VC 09MD 02MO 02MC 02RD 02RO	1	0	1.31267094612	295.0	-23.0	290	-23	1
2.7	2015_Jun_03_1451	s	s	20	3	SIC	414	RC	2	0	02VD 02VO 09VC 02MD 02MO 02MC 02RD 02RO	1	0	0.823235988617	-238.0	46.0	-243	48	1
2.7	2015_Jun_03_1451	s	s	20	3	SIC	415	ABS	0	1	02VD 02VO 02VC 02MD 02MO 02MC 02RD 10RO	1	0	2.64286994934	None	None	-122	394	0
2.7	2015_Jun_03_1451	s	s	20	3	SIC	416	ABS	0	2	02VD 02VO 02VC 02MD 02MO 02MC 10RD 02RO	0	1	1.68937516212	None	None	None	None	1
2.7	2015_Jun_03_1451	s	s	20	3	SIC	417	ABS	1	1	02VD 02VO 02VC 02MD 10MO 02MC 02RD 02RO	0	1	1.57664394379	None	None	None	None	1
2.7	2015_Jun_03_1451	s	s	20	3	SIC	418	RC	1	1	02VD 02VO 02VC 02MD 09MO 02MC 02RD 02RO	1	0	1.05877804756	342.0	308.0	329	311	1
2.7	2015_Jun_03_1451	s	s	20	3	SIC	419	RC	1	2	02VD 02VO 02VC 09MD 02MO 02MC 02RD 02RO	1	0	1.47684383392	224.0	-184.0	234	-178	1
2.7	2015_Jun_03_1451	s	s	20	3	SIC	420	ABS	2	2	10VD 02VO 02VC 02MD 02MO 02MC 02RD 02RO	0	1	1.41860198975	None	None	None	None	1
2.7	2015_Jun_03_1451	s	s	20	3	SIC	421	ABS	2	1	02VD 10VO 02VC 02MD 02MO 02MC 02RD 02RO	0	1	1.76498985291	None	None	None	None	1
2.7	2015_Jun_03_1451	s	s	20	3	SIC	422	ABS	0	2	02VD 02VO 02VC 02MD 02MO 02MC 10RD 02RO	0	1	2.37702202797	None	None	None	None	1
2.7	2015_Jun_03_1451	s	s	20	3	SIC	423	RC	2	2	09VD 02VO 02VC 02MD 02MO 02MC 02RD 02RO	1	0	1.43551492691	-491.0	-144.0	-486	-143	1
2.7	2015_Jun_03_1451	s	s	20	3	SIC	424	RC	2	1	02VD 09VO 02VC 02MD 02MO 02MC 02RD 02RO	1	0	1.35970592499	-123.0	302.0	-123	301	1
2.7	2015_Jun_03_1451	s	s	20	3	SIC	425	RC	2	0	02VD 02VO 09VC 02MD 02MO 02MC 02RD 02RO	1	0	1.18821501732	169.0	-394.0	175	-397	1
2.7	2015_Jun_03_1451	s	s	20	3	SIC	426	ABS	2	0	02VD 02VO 10VC 02MD 02MO 02MC 02RD 02RO	0	1	2.8831050396	None	None	None	None	1
2.7	2015_Jun_03_1451	s	s	20	3	SIC	427	RC	0	1	02VD 02VO 02VC 02MD 02MO 02MC 02RD 09RO	1	0	4.15440106392	-134.0	-333.0	-133	-336	1
2.7	2015_Jun_03_1451	s	s	20	3	SIC	428	ABS	1	2	02VD 02VO 02VC 10MD 02MO 02MC 02RD 02RO	0	1	2.16031503677	None	None	None	None	1
2.7	2015_Jun_03_1451	s	s	20	3	SIC	429	RC	0	2	02VD 02VO 02VC 02MD 02MO 02MC 09RD 02RO	1	0	1.10940694809	430.0	105.0	434	114	1
2.7	2015_Jun_03_1451	s	s	20	3	SIC	430	ABS	1	0	02VD 02VO 02VC 02MD 02MO 10MC 02RD 02RO	0	1	3.5542049408	None	None	None	None	1
2.7	2015_Jun_03_1451	s	s	20	3	SIC	431	RC	1	0	02VD 02VO 02VC 02MD 02MO 09MC 02RD 02RO	1	0	0.690196037292	-329.0	230.0	-328	235	1
2.7	2015_Jun_03_1451	s	s	20	3	SIC	432	ABS	0	1	02VD 02VO 02VC 02MD 02MO 02MC 02RD 10RO	0	1	4.98512220383	None	None	None	None	1
2.7	2015_Jun_03_1451	s	s	20	3	SIC	433	ABS	0	1	02VD 02VO 02VC 02MD 02MO 02MC 02RD 10RO	0	1	3.03117990494	None	None	None	None	1
2.7	2015_Jun_03_1451	s	s	20	3	SIC	434	RC	0	2	02VD 02VO 02VC 02MD 02MO 02MC 09RD 02RO	1	0	1.04698610306	104.0	270.0	102	263	1
2.7	2015_Jun_03_1451	s	s	20	3	SIC	435	RC	2	1	02VD 09VO 02VC 02MD 02MO 02MC 02RD 02RO	1	0	1.47764992714	428.0	-358.0	425	-363	1
2.7	2015_Jun_03_1451	s	s	20	3	SIC	436	RC	1	1	02VD 02VO 02VC 02MD 09MO 02MC 02RD 02RO	1	0	1.44436907768	-331.0	-130.0	-327	-131	1
2.7	2015_Jun_03_1451	s	s	20	3	SIC	437	RC	1	0	02VD 02VO 02VC 02MD 02MO 09MC 02RD 02RO	1	0	1.3176817894	17.0	288.0	23	290	1
2.7	2015_Jun_03_1451	s	s	20	3	SIC	438	ABS	0	2	02VD 02VO 02VC 02MD 02MO 02MC 10RD 02RO	0	1	2.63090801239	None	None	None	None	1
2.7	2015_Jun_03_1451	s	s	20	3	SIC	439	ABS	1	2	02VD 02VO 02VC 10MD 02MO 02MC 02RD 02RO	0	1	1.72469210625	None	None	None	None	1
2.7	2015_Jun_03_1451	s	s	20	3	SIC	440	ABS	2	2	10VD 02VO 02VC 02MD 02MO 02MC 02RD 02RO	0	1	1.59518003464	None	None	None	None	1
2.7	2015_Jun_03_1451	s	s	20	3	SIC	441	ABS	2	1	02VD 10VO 02VC 02MD 02MO 02MC 02RD 02RO	0	1	2.32440495491	None	None	None	None	1
2.7	2015_Jun_03_1451	s	s	20	3	SIC	442	ABS	2	0	02VD 02VO 10VC 02MD 02MO 02MC 02RD 02RO	0	1	2.14162683487	None	None	None	None	1
2.7	2015_Jun_03_1451	s	s	20	3	SIC	443	RC	0	1	02VD 02VO 02VC 02MD 02MO 02MC 02RD 09RO	1	0	1.85915899277	473.0	-86.0	465	-88	1
2.7	2015_Jun_03_1451	s	s	20	3	SIC	444	RC	1	2	02VD 02VO 02VC 09MD 02MO 02MC 02RD 02RO	1	0	0.959379911423	58.0	239.0	51	233	1
2.7	2015_Jun_03_1451	s	s	20	3	SIC	445	RC	2	0	02VD 02VO 09VC 02MD 02MO 02MC 02RD 02RO	1	0	1.54136610031	361.0	46.0	364	44	1
2.7	2015_Jun_03_1451	s	s	20	3	SIC	446	ABS	1	1	02VD 02VO 02VC 02MD 10MO 02MC 02RD 02RO	0	1	3.32237386703	None	None	None	None	1
2.7	2015_Jun_03_1451	s	s	20	3	SIC	447	ABS	1	0	02VD 02VO 02VC 02MD 02MO 10MC 02RD 02RO	1	0	1.89446997643	None	None	-438	373	0
2.7	2015_Jun_03_1451	s	s	20	3	SIC	448	RC	2	2	09VD 02VO 02VC 02MD 02MO 02MC 02RD 02RO	1	0	1.38373494148	-519.0	370.0	-515	364	1
2.7	2015_Jun_03_1451	s	s	20	3	SIC	449	RC	0	2	02VD 02VO 02VC 02MD 02MO 02MC 09RD 02RO	1	0	0.643579006195	79.0	36.0	89	35	1
2.7	2015_Jun_03_1451	s	s	20	3	SIC	450	ABS	1	2	02VD 02VO 02VC 10MD 02MO 02MC 02RD 02RO	0	1	3.83392906189	None	None	None	None	1
2.7	2015_Jun_03_1451	s	s	20	3	SIC	451	RC	1	0	02VD 02VO 02VC 02MD 02MO 09MC 02RD 02RO	1	0	1.10070610046	124.0	-219.0	132	-221	1
2.7	2015_Jun_03_1451	s	s	20	3	SIC	452	ABS	1	1	02VD 02VO 02VC 02MD 10MO 02MC 02RD 02RO	1	0	5.80764508247	None	None	-275	172	0
2.7	2015_Jun_03_1451	s	s	20	3	SIC	453	ABS	0	2	02VD 02VO 02VC 02MD 02MO 02MC 10RD 02RO	0	1	1.66748285294	None	None	None	None	1
2.7	2015_Jun_03_1451	s	s	20	3	SIC	454	ABS	2	2	10VD 02VO 02VC 02MD 02MO 02MC 02RD 02RO	1	0	1.78835606575	None	None	-484	141	0
2.7	2015_Jun_03_1451	s	s	20	3	SIC	455	RC	2	1	02VD 09VO 02VC 02MD 02MO 02MC 02RD 02RO	1	0	0.947682142258	-189.0	260.0	-194	266	1
2.7	2015_Jun_03_1451	s	s	20	3	SIC	456	ABS	0	1	02VD 02VO 02VC 02MD 02MO 02MC 02RD 10RO	0	1	5.82023215294	None	None	None	None	1
2.7	2015_Jun_03_1451	s	s	20	3	SIC	457	RC	0	1	02VD 02VO 02VC 02MD 02MO 02MC 02RD 09RO	1	0	0.89395403862	-451.0	74.0	-106	-163	0
2.7	2015_Jun_03_1451	s	s	20	3	SIC	458	RC	2	0	02VD 02VO 09VC 02MD 02MO 02MC 02RD 02RO	1	0	2.85463094711	418.0	58.0	415	57	1
2.7	2015_Jun_03_1451	s	s	20	3	SIC	459	RC	2	2	09VD 02VO 02VC 02MD 02MO 02MC 02RD 02RO	1	0	1.79703879356	92.0	-336.0	97	-338	1
2.7	2015_Jun_03_1451	s	s	20	3	SIC	460	RC	1	2	02VD 02VO 02VC 09MD 02MO 02MC 02RD 02RO	1	0	1.57287502289	332.0	-306.0	330	-303	1
2.7	2015_Jun_03_1451	s	s	20	3	SIC	461	RC	1	1	02VD 02VO 02VC 02MD 09MO 02MC 02RD 02RO	1	0	1.0859849453	-160.0	-199.0	-164	-196	1
2.7	2015_Jun_03_1451	s	s	20	3	SIC	462	ABS	2	0	02VD 02VO 10VC 02MD 02MO 02MC 02RD 02RO	0	1	5.85854387283	None	None	None	None	1
2.7	2015_Jun_03_1451	s	s	20	3	SIC	463	ABS	2	1	02VD 10VO 02VC 02MD 02MO 02MC 02RD 02RO	0	1	2.14819192886	None	None	None	None	1
2.7	2015_Jun_03_1451	s	s	20	3	SIC	464	ABS	1	0	02VD 02VO 02VC 02MD 02MO 10MC 02RD 02RO	0	1	4.2725110054	None	None	None	None	1
2.7	2015_Jun_03_1451	s	s	20	3	SIC	465	RC	0	1	02VD 02VO 02VC 02MD 02MO 02MC 02RD 09RO	1	0	0.693828105927	-197.0	8.0	-190	5	1
2.7	2015_Jun_03_1451	s	s	20	3	SIC	466	RC	1	2	02VD 02VO 02VC 09MD 02MO 02MC 02RD 02RO	1	0	1.00382018089	128.0	-129.0	124	-122	1
2.7	2015_Jun_03_1451	s	s	20	3	SIC	467	ABS	2	0	02VD 02VO 10VC 02MD 02MO 02MC 02RD 02RO	1	0	3.50703406334	None	None	178	-163	0
2.7	2015_Jun_03_1451	s	s	20	3	SIC	468	ABS	2	1	02VD 10VO 02VC 02MD 02MO 02MC 02RD 02RO	0	1	2.6192510128	None	None	None	None	1
2.7	2015_Jun_03_1451	s	s	20	3	SIC	469	RC	1	1	02VD 02VO 02VC 02MD 09MO 02MC 02RD 02RO	1	0	1.1882109642	-390.0	-70.0	-401	-61	1
2.7	2015_Jun_03_1451	s	s	20	3	SIC	470	RC	1	0	02VD 02VO 02VC 02MD 02MO 09MC 02RD 02RO	1	0	1.26697206497	194.0	256.0	185	256	1
2.7	2015_Jun_03_1451	s	s	20	3	SIC	471	ABS	0	1	02VD 02VO 02VC 02MD 02MO 02MC 02RD 10RO	1	0	2.83130097389	None	None	194	12	0
2.7	2015_Jun_03_1451	s	s	20	3	SIC	472	ABS	1	1	02VD 02VO 02VC 02MD 10MO 02MC 02RD 02RO	0	1	2.12987613678	None	None	None	None	1
2.7	2015_Jun_03_1451	s	s	20	3	SIC	473	ABS	1	0	02VD 02VO 02VC 02MD 02MO 10MC 02RD 02RO	0	1	2.21829104424	None	None	None	None	1
2.7	2015_Jun_03_1451	s	s	20	3	SIC	474	ABS	2	2	10VD 02VO 02VC 02MD 02MO 02MC 02RD 02RO	0	1	2.56087994576	None	None	None	None	1
2.7	2015_Jun_03_1451	s	s	20	3	SIC	475	RC	0	2	02VD 02VO 02VC 02MD 02MO 02MC 09RD 02RO	1	0	1.0506529808	248.0	-31.0	241	-28	1
2.7	2015_Jun_03_1451	s	s	20	3	SIC	476	ABS	1	2	02VD 02VO 02VC 10MD 02MO 02MC 02RD 02RO	0	1	2.21592712402	None	None	None	None	1
2.7	2015_Jun_03_1451	s	s	20	3	SIC	477	RC	2	0	02VD 02VO 09VC 02MD 02MO 02MC 02RD 02RO	1	0	1.69429898262	374.0	-310.0	379	-310	1
2.7	2015_Jun_03_1451	s	s	20	3	SIC	478	ABS	0	2	02VD 02VO 02VC 02MD 02MO 02MC 10RD 02RO	0	1	3.53049612045	None	None	None	None	1
2.7	2015_Jun_03_1451	s	s	20	3	SIC	479	RC	2	2	09VD 02VO 02VC 02MD 02MO 02MC 02RD 02RO	1	0	1.87794613838	207.0	-378.0	218	-371	1
2.7	2015_Jun_03_1451	s	s	20	3	SIC	480	RC	2	1	02VD 09VO 02VC 02MD 02MO 02MC 02RD 02RO	1	0	0.834992170334	-89.0	184.0	-91	173	1
