Version	Date	Stimuli	Method	Subject	Session	Condition	Trial	Target	Channel1	Channel2	Distractors	LMouseButton	RMouseButton	RT	TargetX	TargetY	ResponseX	ResponseY	Correct
2.7	2015_Jun_02_1448	s	s	20	2	Capacity	1	ABS	2	0	16VC 08MC	0	1	4.0464618206	None	None	None	None	1
2.7	2015_Jun_02_1448	s	s	20	2	Capacity	2	RC	1	0	08VC 15MC	1	0	2.08976507187	-65.0	223.0	-62	222	1
2.7	2015_Jun_02_1448	s	s	20	2	Capacity	3	ABS	1	0	08VC 16MC	0	1	2.98679804802	None	None	None	None	1
2.7	2015_Jun_02_1448	s	s	20	2	Capacity	4	RC	2	0	15VC 08MC	1	0	0.787971019745	-366.0	288.0	-373	285	1
2.7	2015_Jun_02_1448	s	s	20	2	Capacity	5	RC	1	0	08VC 15MC	1	0	0.76443195343	-313.0	-9.0	-318	-7	1
2.7	2015_Jun_02_1448	s	s	20	2	Capacity	6	RC	2	0	15VC 08MC	1	0	1.14113092422	433.0	-354.0	433	-356	1
2.7	2015_Jun_02_1448	s	s	20	2	Capacity	7	ABS	1	0	08VC 16MC	0	1	3.38926100731	None	None	None	None	1
2.7	2015_Jun_02_1448	s	s	20	2	Capacity	8	ABS	2	0	16VC 08MC	0	1	5.97636795044	None	None	None	None	1
2.7	2015_Jun_02_1448	s	s	20	2	Capacity	9	RC	2	0	15VC 08MC	1	0	1.0705139637	307.0	162.0	312	155	1
2.7	2015_Jun_02_1448	s	s	20	2	Capacity	10	ABS	1	0	08VC 16MC	0	1	3.98460006714	None	None	None	None	1
2.7	2015_Jun_02_1448	s	s	20	2	Capacity	11	ABS	2	0	16VC 08MC	0	1	3.0782930851	None	None	None	None	1
2.7	2015_Jun_02_1448	s	s	20	2	Capacity	12	RC	1	0	08VC 15MC	1	0	1.30250716209	252.0	200.0	256	193	1
2.7	2015_Jun_02_1448	s	s	20	2	Capacity	13	ABS	1	0	08VC 16MC	0	1	2.15044593811	None	None	None	None	1
2.7	2015_Jun_02_1448	s	s	20	2	Capacity	14	ABS	2	0	16VC 08MC	0	1	3.18961691856	None	None	None	None	1
2.7	2015_Jun_02_1448	s	s	20	2	Capacity	15	RC	1	0	08VC 15MC	1	0	3.12622690201	-3.0	-325.0	-2	-324	1
2.7	2015_Jun_02_1448	s	s	20	2	Capacity	16	RC	2	0	15VC 08MC	1	0	0.744683027267	213.0	58.0	210	55	1
2.7	2015_Jun_02_1448	s	s	20	2	Capacity	17	RC	1	0	08VC 15MC	1	0	0.576551914215	40.0	-81.0	44	-85	1
2.7	2015_Jun_02_1448	s	s	20	2	Capacity	18	ABS	2	0	16VC 08MC	0	1	2.87127900124	None	None	None	None	1
2.7	2015_Jun_02_1448	s	s	20	2	Capacity	19	RC	2	0	15VC 08MC	1	0	0.799669027328	371.0	-155.0	377	-159	1
2.7	2015_Jun_02_1448	s	s	20	2	Capacity	20	ABS	1	0	08VC 16MC	0	1	3.31434392929	None	None	None	None	1
2.7	2015_Jun_02_1448	s	s	20	2	Capacity	21	RC	1	0	08VC 15MC	1	0	1.63011908531	-224.0	188.0	-229	190	1
2.7	2015_Jun_02_1448	s	s	20	2	Capacity	22	RC	2	0	15VC 08MC	1	0	6.00012612343	518.0	160.0	515	156	1
2.7	2015_Jun_02_1448	s	s	20	2	Capacity	23	ABS	2	0	16VC 08MC	0	1	3.43638205528	None	None	None	None	1
2.7	2015_Jun_02_1448	s	s	20	2	Capacity	24	ABS	1	0	08VC 16MC	0	1	2.48297691345	None	None	None	None	1
2.7	2015_Jun_02_1448	s	s	20	2	Capacity	25	RC	2	0	15VC 08MC	1	0	1.51762604713	-23.0	-14.0	-27	-14	1
2.7	2015_Jun_02_1448	s	s	20	2	Capacity	26	ABS	2	0	16VC 08MC	0	1	2.25456190109	None	None	None	None	1
2.7	2015_Jun_02_1448	s	s	20	2	Capacity	27	RC	1	0	08VC 15MC	1	0	2.13676309586	-405.0	125.0	-408	122	1
2.7	2015_Jun_02_1448	s	s	20	2	Capacity	28	ABS	1	0	08VC 16MC	0	1	2.50145101547	None	None	None	None	1
2.7	2015_Jun_02_1448	s	s	20	2	Capacity	29	ABS	1	0	08VC 16MC	0	1	2.87819814682	None	None	None	None	1
2.7	2015_Jun_02_1448	s	s	20	2	Capacity	30	RC	1	0	08VC 15MC	1	0	1.05076003075	-403.0	-4.0	-392	0	1
2.7	2015_Jun_02_1448	s	s	20	2	Capacity	31	RC	2	0	15VC 08MC	1	0	0.51301407814	63.0	32.0	70	39	1
2.7	2015_Jun_02_1448	s	s	20	2	Capacity	32	ABS	2	0	16VC 08MC	0	1	3.87190294266	None	None	None	None	1
2.7	2015_Jun_02_1448	s	s	20	2	Capacity	33	RC	2	0	15VC 08MC	1	0	0.643451213837	428.0	215.0	420	212	1
2.7	2015_Jun_02_1448	s	s	20	2	Capacity	34	ABS	1	0	08VC 16MC	0	1	3.11390995979	None	None	None	None	1
2.7	2015_Jun_02_1448	s	s	20	2	Capacity	35	ABS	2	0	16VC 08MC	0	1	3.38590407372	None	None	None	None	1
2.7	2015_Jun_02_1448	s	s	20	2	Capacity	36	RC	1	0	08VC 15MC	1	0	3.58450818062	-112.0	-44.0	-106	-39	1
2.7	2015_Jun_02_1448	s	s	20	2	Capacity	37	RC	2	0	15VC 08MC	1	0	3.26660990715	239.0	294.0	240	287	1
2.7	2015_Jun_02_1448	s	s	20	2	Capacity	38	RC	1	0	08VC 15MC	1	0	2.24751996994	521.0	-212.0	527	-208	1
2.7	2015_Jun_02_1448	s	s	20	2	Capacity	39	ABS	2	0	16VC 08MC	0	1	3.46661305428	None	None	None	None	1
2.7	2015_Jun_02_1448	s	s	20	2	Capacity	40	ABS	1	0	08VC 16MC	0	1	3.52496409416	None	None	None	None	1
2.7	2015_Jun_02_1448	s	s	20	2	Capacity	41	ABS	1	0	08VC 16MC	0	1	1.98859405518	None	None	None	None	1
2.7	2015_Jun_02_1448	s	s	20	2	Capacity	42	ABS	2	0	16VC 08MC	0	1	2.59520697594	None	None	None	None	1
2.7	2015_Jun_02_1448	s	s	20	2	Capacity	43	RC	2	0	15VC 08MC	1	0	1.56482219696	-470.0	-293.0	-474	-289	1
2.7	2015_Jun_02_1448	s	s	20	2	Capacity	44	RC	1	0	08VC 15MC	1	0	0.803541898727	-285.0	26.0	-282	30	1
2.7	2015_Jun_02_1448	s	s	20	2	Capacity	45	ABS	2	0	16VC 08MC	0	1	2.30641293526	None	None	None	None	1
2.7	2015_Jun_02_1448	s	s	20	2	Capacity	46	ABS	1	0	08VC 16MC	0	1	3.6431479454	None	None	None	None	1
2.7	2015_Jun_02_1448	s	s	20	2	Capacity	47	RC	1	0	08VC 15MC	1	0	0.785450220108	-163.0	111.0	-166	112	1
2.7	2015_Jun_02_1448	s	s	20	2	Capacity	48	RC	2	0	15VC 08MC	1	0	1.1239221096	359.0	288.0	359	280	1
2.7	2015_Jun_02_1448	s	s	20	2	Capacity	49	ABS	1	0	08VC 16MC	0	1	2.67128396034	None	None	None	None	1
2.7	2015_Jun_02_1448	s	s	20	2	Capacity	50	ABS	2	0	16VC 08MC	0	1	2.85955405235	None	None	None	None	1
2.7	2015_Jun_02_1448	s	s	20	2	Capacity	51	RC	1	0	08VC 15MC	1	0	0.995309114456	68.0	172.0	82	178	1
2.7	2015_Jun_02_1448	s	s	20	2	Capacity	52	RC	2	0	15VC 08MC	1	0	0.493782997131	-116.0	-27.0	-120	-37	1
2.7	2015_Jun_02_1448	s	s	20	2	Capacity	53	ABS	2	0	16VC 08MC	0	1	1.62993383408	None	None	None	None	1
2.7	2015_Jun_02_1448	s	s	20	2	Capacity	54	RC	1	0	08VC 15MC	1	0	1.51774001122	454.0	248.0	452	246	1
2.7	2015_Jun_02_1448	s	s	20	2	Capacity	55	RC	2	0	15VC 08MC	1	0	0.988125801086	537.0	-46.0	538	-46	1
2.7	2015_Jun_02_1448	s	s	20	2	Capacity	56	ABS	1	0	08VC 16MC	0	1	2.8007671833	None	None	None	None	1
2.7	2015_Jun_02_1448	s	s	20	2	Capacity	57	RC	2	0	15VC 08MC	1	0	0.787998914719	-2.0	108.0	-7	106	1
2.7	2015_Jun_02_1448	s	s	20	2	Capacity	58	ABS	1	0	08VC 16MC	0	1	1.55304908752	None	None	None	None	1
2.7	2015_Jun_02_1448	s	s	20	2	Capacity	59	ABS	2	0	16VC 08MC	0	1	2.90663480759	None	None	None	None	1
2.7	2015_Jun_02_1448	s	s	20	2	Capacity	60	RC	1	0	08VC 15MC	1	0	0.994910001755	157.0	261.0	160	253	1
2.7	2015_Jun_02_1448	s	s	20	2	Capacity	61	RC	2	0	15VC 08MC	1	0	0.682100057602	139.0	-108.0	139	-102	1
2.7	2015_Jun_02_1448	s	s	20	2	Capacity	62	RC	1	0	08VC 15MC	1	0	1.64720392227	-161.0	368.0	-154	367	1
2.7	2015_Jun_02_1448	s	s	20	2	Capacity	63	ABS	1	0	08VC 16MC	0	1	3.23623108864	None	None	None	None	1
2.7	2015_Jun_02_1448	s	s	20	2	Capacity	64	ABS	2	0	16VC 08MC	0	1	1.91790509224	None	None	None	None	1
2.7	2015_Jun_02_1448	s	s	20	2	Capacity	1	ABS	0	2	16RD 08RO	0	1	2.87157988548	None	None	None	None	1
2.7	2015_Jun_02_1448	s	s	20	2	Capacity	2	RC	0	2	15RD 08RO	1	0	1.29407000542	19.0	338.0	29	337	1
2.7	2015_Jun_02_1448	s	s	20	2	Capacity	3	ABS	0	1	08RD 16RO	0	1	4.09543395042	None	None	None	None	1
2.7	2015_Jun_02_1448	s	s	20	2	Capacity	4	RC	0	1	08RD 15RO	1	0	2.34845900536	-336.0	-128.0	-325	-119	1
2.7	2015_Jun_02_1448	s	s	20	2	Capacity	5	ABS	0	1	08RD 16RO	0	1	5.11957907677	None	None	None	None	1
2.7	2015_Jun_02_1448	s	s	20	2	Capacity	6	RC	0	2	15RD 08RO	1	0	1.55120921135	461.0	-114.0	467	-112	1
2.7	2015_Jun_02_1448	s	s	20	2	Capacity	7	RC	0	1	08RD 15RO	1	0	1.34809494019	-136.0	-55.0	-140	-47	1
2.7	2015_Jun_02_1448	s	s	20	2	Capacity	8	ABS	0	2	16RD 08RO	0	1	2.1602101326	None	None	None	None	1
2.7	2015_Jun_02_1448	s	s	20	2	Capacity	9	ABS	0	2	16RD 08RO	0	1	3.89067411423	None	None	None	None	1
2.7	2015_Jun_02_1448	s	s	20	2	Capacity	10	ABS	0	1	08RD 16RO	0	1	8.26906204224	None	None	None	None	1
2.7	2015_Jun_02_1448	s	s	20	2	Capacity	11	RC	0	1	08RD 15RO	1	0	1.29065012932	-444.0	-153.0	-443	-148	1
2.7	2015_Jun_02_1448	s	s	20	2	Capacity	12	RC	0	2	15RD 08RO	1	0	0.747611999512	103.0	63.0	108	69	1
2.7	2015_Jun_02_1448	s	s	20	2	Capacity	13	ABS	0	1	08RD 16RO	0	1	5.72423481941	None	None	None	None	1
2.7	2015_Jun_02_1448	s	s	20	2	Capacity	14	RC	0	1	08RD 15RO	1	0	1.6438369751	-438.0	324.0	-441	316	1
2.7	2015_Jun_02_1448	s	s	20	2	Capacity	15	ABS	0	2	16RD 08RO	0	1	2.88311505318	None	None	None	None	1
2.7	2015_Jun_02_1448	s	s	20	2	Capacity	16	RC	0	2	15RD 08RO	1	0	0.79456615448	-130.0	117.0	-126	120	1
2.7	2015_Jun_02_1448	s	s	20	2	Capacity	17	ABS	0	2	16RD 08RO	0	1	4.28385305405	None	None	None	None	1
2.7	2015_Jun_02_1448	s	s	20	2	Capacity	18	RC	0	2	15RD 08RO	1	0	0.705572843552	-90.0	-30.0	-90	-32	1
2.7	2015_Jun_02_1448	s	s	20	2	Capacity	19	ABS	0	1	08RD 16RO	0	1	6.35544705391	None	None	None	None	1
2.7	2015_Jun_02_1448	s	s	20	2	Capacity	20	RC	0	1	08RD 15RO	1	0	2.3371450901	507.0	192.0	510	190	1
2.7	2015_Jun_02_1448	s	s	20	2	Capacity	21	RC	0	1	08RD 15RO	1	0	2.66610002518	-345.0	168.0	-345	162	1
2.7	2015_Jun_02_1448	s	s	20	2	Capacity	22	ABS	0	1	08RD 16RO	0	1	6.44726014137	None	None	None	None	1
2.7	2015_Jun_02_1448	s	s	20	2	Capacity	23	RC	0	2	15RD 08RO	1	0	2.57750988007	180.0	18.0	174	21	1
2.7	2015_Jun_02_1448	s	s	20	2	Capacity	24	ABS	0	2	16RD 08RO	0	1	3.4484629631	None	None	None	None	1
2.7	2015_Jun_02_1448	s	s	20	2	Capacity	25	RC	0	2	15RD 08RO	1	0	1.99620985985	-85.0	-379.0	-82	-373	1
2.7	2015_Jun_02_1448	s	s	20	2	Capacity	26	RC	0	1	08RD 15RO	1	0	3.9135620594	412.0	67.0	408	69	1
2.7	2015_Jun_02_1448	s	s	20	2	Capacity	27	ABS	0	1	08RD 16RO	0	1	6.35550689697	None	None	None	None	1
2.7	2015_Jun_02_1448	s	s	20	2	Capacity	28	ABS	0	2	16RD 08RO	0	1	3.74239611626	None	None	None	None	1
2.7	2015_Jun_02_1448	s	s	20	2	Capacity	29	ABS	0	2	16RD 08RO	0	1	4.75474905968	None	None	None	None	1
2.7	2015_Jun_02_1448	s	s	20	2	Capacity	30	RC	0	2	15RD 08RO	1	0	1.12965393066	169.0	-86.0	167	-83	1
2.7	2015_Jun_02_1448	s	s	20	2	Capacity	31	ABS	0	1	08RD 16RO	0	1	5.22016191483	None	None	None	None	1
2.7	2015_Jun_02_1448	s	s	20	2	Capacity	32	RC	0	1	08RD 15RO	1	0	1.54924511909	-111.0	151.0	-110	143	1
2.7	2015_Jun_02_1448	s	s	20	2	Capacity	33	ABS	0	2	16RD 08RO	0	1	2.91413903236	None	None	None	None	1
2.7	2015_Jun_02_1448	s	s	20	2	Capacity	34	RC	0	1	08RD 15RO	1	0	2.47798514366	340.0	309.0	341	303	1
2.7	2015_Jun_02_1448	s	s	20	2	Capacity	35	ABS	0	1	08RD 16RO	0	1	5.99963498116	None	None	None	None	1
2.7	2015_Jun_02_1448	s	s	20	2	Capacity	36	RC	0	2	15RD 08RO	1	0	1.45472311974	-167.0	278.0	-162	286	1
2.7	2015_Jun_02_1448	s	s	20	2	Capacity	37	ABS	0	2	16RD 08RO	0	1	3.09504318237	None	None	None	None	1
2.7	2015_Jun_02_1448	s	s	20	2	Capacity	38	ABS	0	1	08RD 16RO	0	1	6.27335906029	None	None	None	None	1
2.7	2015_Jun_02_1448	s	s	20	2	Capacity	39	RC	0	1	08RD 15RO	1	0	3.61289310455	-202.0	-378.0	-198	-376	1
2.7	2015_Jun_02_1448	s	s	20	2	Capacity	40	RC	0	2	15RD 08RO	1	0	1.58841013908	366.0	397.0	365	391	1
2.7	2015_Jun_02_1448	s	s	20	2	Capacity	41	RC	0	2	15RD 08RO	1	0	1.92386198044	372.0	-203.0	362	-201	1
2.7	2015_Jun_02_1448	s	s	20	2	Capacity	42	RC	0	1	08RD 15RO	1	0	2.40760207176	-477.0	-317.0	-480	-321	1
2.7	2015_Jun_02_1448	s	s	20	2	Capacity	43	ABS	0	1	08RD 16RO	0	1	6.18753290176	None	None	None	None	1
2.7	2015_Jun_02_1448	s	s	20	2	Capacity	44	ABS	0	2	16RD 08RO	0	1	3.98452591896	None	None	None	None	1
2.7	2015_Jun_02_1448	s	s	20	2	Capacity	45	RC	0	2	15RD 08RO	1	0	3.61290407181	-501.0	255.0	-491	263	1
2.7	2015_Jun_02_1448	s	s	20	2	Capacity	46	ABS	0	2	16RD 08RO	0	1	2.70663380623	None	None	None	None	1
2.7	2015_Jun_02_1448	s	s	20	2	Capacity	47	RC	0	1	08RD 15RO	1	0	1.3482401371	-369.0	-204.0	-368	-197	1
2.7	2015_Jun_02_1448	s	s	20	2	Capacity	48	ABS	0	1	08RD 16RO	0	1	4.86658501625	None	None	None	None	1
2.7	2015_Jun_02_1448	s	s	20	2	Capacity	49	RC	0	2	15RD 08RO	1	0	2.49087691307	-462.0	-228.0	-466	-220	1
2.7	2015_Jun_02_1448	s	s	20	2	Capacity	50	ABS	0	2	16RD 08RO	0	1	3.9493470192	None	None	None	None	1
2.7	2015_Jun_02_1448	s	s	20	2	Capacity	51	ABS	0	1	08RD 16RO	0	1	5.24905800819	None	None	None	None	1
2.7	2015_Jun_02_1448	s	s	20	2	Capacity	52	RC	0	1	08RD 15RO	1	0	1.22353291512	283.0	-205.0	290	-209	1
2.7	2015_Jun_02_1448	s	s	20	2	Capacity	53	RC	0	2	15RD 08RO	1	0	0.721098899841	-53.0	65.0	-50	53	1
2.7	2015_Jun_02_1448	s	s	20	2	Capacity	54	ABS	0	1	08RD 16RO	0	1	7.03818392754	None	None	None	None	1
2.7	2015_Jun_02_1448	s	s	20	2	Capacity	55	RC	0	1	08RD 15RO	1	0	1.30594110489	-310.0	345.0	-305	351	1
2.7	2015_Jun_02_1448	s	s	20	2	Capacity	56	ABS	0	2	16RD 08RO	0	1	3.22449803352	None	None	None	None	1
2.7	2015_Jun_02_1448	s	s	20	2	Capacity	57	RC	0	2	15RD 08RO	1	0	1.05872988701	288.0	-109.0	280	-112	1
2.7	2015_Jun_02_1448	s	s	20	2	Capacity	58	ABS	0	2	16RD 08RO	0	1	4.68777704239	None	None	None	None	1
2.7	2015_Jun_02_1448	s	s	20	2	Capacity	59	ABS	0	1	08RD 16RO	0	1	5.82073903084	None	None	None	None	1
2.7	2015_Jun_02_1448	s	s	20	2	Capacity	60	RC	0	1	08RD 15RO	1	0	0.79465508461	-157.0	-24.0	-162	-26	1
2.7	2015_Jun_02_1448	s	s	20	2	Capacity	61	ABS	0	2	16RD 08RO	0	1	3.30691194534	None	None	None	None	1
2.7	2015_Jun_02_1448	s	s	20	2	Capacity	62	RC	0	2	15RD 08RO	1	0	1.7767868042	464.0	-51.0	462	-56	1
2.7	2015_Jun_02_1448	s	s	20	2	Capacity	63	RC	0	1	08RD 15RO	1	0	1.21172499657	200.0	-181.0	203	-182	1
2.7	2015_Jun_02_1448	s	s	20	2	Capacity	64	ABS	0	1	08RD 16RO	0	1	4.96102905273	None	None	None	None	1
2.7	2015_Jun_02_1448	s	s	20	2	SIC	1	RC	0	1	02VD 02VO 02VC 02MD 02MO 02MC 02RD 09RO	1	0	1.65658807755	-14.0	-206.0	-12	-206	1
2.7	2015_Jun_02_1448	s	s	20	2	SIC	2	ABS	1	2	02VD 02VO 02VC 10MD 02MO 02MC 02RD 02RO	0	1	2.10636615753	None	None	None	None	1
2.7	2015_Jun_02_1448	s	s	20	2	SIC	3	RC	2	2	09VD 02VO 02VC 02MD 02MO 02MC 02RD 02RO	1	0	0.923944950104	122.0	232.0	117	226	1
2.7	2015_Jun_02_1448	s	s	20	2	SIC	4	RC	0	2	02VD 02VO 02VC 02MD 02MO 02MC 09RD 02RO	1	0	0.525686979294	-123.0	50.0	-121	48	1
2.7	2015_Jun_02_1448	s	s	20	2	SIC	5	RC	1	0	02VD 02VO 02VC 02MD 02MO 09MC 02RD 02RO	0	1	2.09457302094	-213.0	-387.0	None	None	0
2.7	2015_Jun_02_1448	s	s	20	2	SIC	6	ABS	2	1	02VD 10VO 02VC 02MD 02MO 02MC 02RD 02RO	0	1	2.31554198265	None	None	None	None	1
2.7	2015_Jun_02_1448	s	s	20	2	SIC	7	ABS	2	0	02VD 02VO 10VC 02MD 02MO 02MC 02RD 02RO	0	1	2.3484120369	None	None	None	None	1
2.7	2015_Jun_02_1448	s	s	20	2	SIC	8	RC	2	0	02VD 02VO 09VC 02MD 02MO 02MC 02RD 02RO	1	0	0.776223897934	-54.0	-342.0	188	-406	0
2.7	2015_Jun_02_1448	s	s	20	2	SIC	9	RC	1	2	02VD 02VO 02VC 09MD 02MO 02MC 02RD 02RO	1	0	1.32446193695	283.0	32.0	286	23	1
2.7	2015_Jun_02_1448	s	s	20	2	SIC	10	ABS	1	0	02VD 02VO 02VC 02MD 02MO 10MC 02RD 02RO	0	1	3.00079512596	None	None	None	None	1
2.7	2015_Jun_02_1448	s	s	20	2	SIC	11	ABS	2	2	10VD 02VO 02VC 02MD 02MO 02MC 02RD 02RO	0	1	1.87088799477	None	None	None	None	1
2.7	2015_Jun_02_1448	s	s	20	2	SIC	12	ABS	1	1	02VD 02VO 02VC 02MD 10MO 02MC 02RD 02RO	0	1	6.17553114891	None	None	None	None	1
2.7	2015_Jun_02_1448	s	s	20	2	SIC	13	RC	1	1	02VD 02VO 02VC 02MD 09MO 02MC 02RD 02RO	1	0	2.22421693802	-396.0	245.0	-389	247	1
2.7	2015_Jun_02_1448	s	s	20	2	SIC	14	ABS	0	2	02VD 02VO 02VC 02MD 02MO 02MC 10RD 02RO	0	1	2.89967012405	None	None	None	None	1
2.7	2015_Jun_02_1448	s	s	20	2	SIC	15	ABS	0	1	02VD 02VO 02VC 02MD 02MO 02MC 02RD 10RO	0	1	5.06073594093	None	None	None	None	1
2.7	2015_Jun_02_1448	s	s	20	2	SIC	16	RC	2	1	02VD 09VO 02VC 02MD 02MO 02MC 02RD 02RO	1	0	0.893857955933	183.0	288.0	183	286	1
2.7	2015_Jun_02_1448	s	s	20	2	SIC	17	RC	2	2	09VD 02VO 02VC 02MD 02MO 02MC 02RD 02RO	1	0	0.799746990204	240.0	255.0	247	263	1
2.7	2015_Jun_02_1448	s	s	20	2	SIC	18	RC	1	2	02VD 02VO 02VC 09MD 02MO 02MC 02RD 02RO	1	0	1.50607800484	-185.0	-377.0	-179	-384	1
2.7	2015_Jun_02_1448	s	s	20	2	SIC	19	RC	0	2	02VD 02VO 02VC 02MD 02MO 02MC 09RD 02RO	1	0	0.630034923553	-121.0	-78.0	-119	-82	1
2.7	2015_Jun_02_1448	s	s	20	2	SIC	20	ABS	2	2	10VD 02VO 02VC 02MD 02MO 02MC 02RD 02RO	0	1	1.92967200279	None	None	None	None	1
2.7	2015_Jun_02_1448	s	s	20	2	SIC	21	ABS	1	0	02VD 02VO 02VC 02MD 02MO 10MC 02RD 02RO	0	1	2.38115501404	None	None	None	None	1
2.7	2015_Jun_02_1448	s	s	20	2	SIC	22	ABS	0	1	02VD 02VO 02VC 02MD 02MO 02MC 02RD 10RO	0	1	4.30787706375	None	None	None	None	1
2.7	2015_Jun_02_1448	s	s	20	2	SIC	23	ABS	0	2	02VD 02VO 02VC 02MD 02MO 02MC 10RD 02RO	0	1	2.10141301155	None	None	None	None	1
2.7	2015_Jun_02_1448	s	s	20	2	SIC	24	ABS	2	0	02VD 02VO 10VC 02MD 02MO 02MC 02RD 02RO	0	1	3.21276402473	None	None	None	None	1
2.7	2015_Jun_02_1448	s	s	20	2	SIC	25	RC	2	0	02VD 02VO 09VC 02MD 02MO 02MC 02RD 02RO	1	0	1.16471099854	-179.0	366.0	-180	361	1
2.7	2015_Jun_02_1448	s	s	20	2	SIC	26	RC	2	1	02VD 09VO 02VC 02MD 02MO 02MC 02RD 02RO	1	0	1.15852093697	237.0	175.0	237	173	1
2.7	2015_Jun_02_1448	s	s	20	2	SIC	27	RC	0	1	02VD 02VO 02VC 02MD 02MO 02MC 02RD 09RO	1	0	2.11321115494	-277.0	-44.0	-271	-48	1
2.7	2015_Jun_02_1448	s	s	20	2	SIC	28	ABS	1	1	02VD 02VO 02VC 02MD 10MO 02MC 02RD 02RO	0	1	3.13704895973	None	None	None	None	1
2.7	2015_Jun_02_1448	s	s	20	2	SIC	29	RC	1	0	02VD 02VO 02VC 02MD 02MO 09MC 02RD 02RO	1	0	2.49474787712	491.0	-331.0	492	-332	1
2.7	2015_Jun_02_1448	s	s	20	2	SIC	30	ABS	1	2	02VD 02VO 02VC 10MD 02MO 02MC 02RD 02RO	0	1	2.11264395714	None	None	None	None	1
2.7	2015_Jun_02_1448	s	s	20	2	SIC	31	ABS	2	1	02VD 10VO 02VC 02MD 02MO 02MC 02RD 02RO	0	1	2.64777898788	None	None	None	None	1
2.7	2015_Jun_02_1448	s	s	20	2	SIC	32	RC	1	1	02VD 02VO 02VC 02MD 09MO 02MC 02RD 02RO	1	0	1.21924495697	266.0	183.0	267	182	1
2.7	2015_Jun_02_1448	s	s	20	2	SIC	33	ABS	1	1	02VD 02VO 02VC 02MD 10MO 02MC 02RD 02RO	0	1	2.57224488258	None	None	None	None	1
2.7	2015_Jun_02_1448	s	s	20	2	SIC	34	ABS	2	2	10VD 02VO 02VC 02MD 02MO 02MC 02RD 02RO	0	1	1.67077803612	None	None	None	None	1
2.7	2015_Jun_02_1448	s	s	20	2	SIC	35	ABS	1	0	02VD 02VO 02VC 02MD 02MO 10MC 02RD 02RO	0	1	2.31314992905	None	None	None	None	1
2.7	2015_Jun_02_1448	s	s	20	2	SIC	36	ABS	2	0	02VD 02VO 10VC 02MD 02MO 02MC 02RD 02RO	0	1	2.18389797211	None	None	None	None	1
2.7	2015_Jun_02_1448	s	s	20	2	SIC	37	RC	2	1	02VD 09VO 02VC 02MD 02MO 02MC 02RD 02RO	1	0	1.50111103058	-285.0	76.0	-289	81	1
2.7	2015_Jun_02_1448	s	s	20	2	SIC	38	ABS	1	2	02VD 02VO 02VC 10MD 02MO 02MC 02RD 02RO	0	1	2.36525797844	None	None	None	None	1
2.7	2015_Jun_02_1448	s	s	20	2	SIC	39	RC	2	2	09VD 02VO 02VC 02MD 02MO 02MC 02RD 02RO	1	0	2.06503486633	-475.0	-221.0	-474	-225	1
2.7	2015_Jun_02_1448	s	s	20	2	SIC	40	RC	0	1	02VD 02VO 02VC 02MD 02MO 02MC 02RD 09RO	1	0	2.31022787094	395.0	30.0	394	35	1
2.7	2015_Jun_02_1448	s	s	20	2	SIC	41	RC	0	2	02VD 02VO 02VC 02MD 02MO 02MC 09RD 02RO	1	0	1.64383816719	-1.0	-358.0	-9	-352	1
2.7	2015_Jun_02_1448	s	s	20	2	SIC	42	ABS	2	1	02VD 10VO 02VC 02MD 02MO 02MC 02RD 02RO	0	1	2.47785210609	None	None	None	None	1
2.7	2015_Jun_02_1448	s	s	20	2	SIC	43	RC	1	0	02VD 02VO 02VC 02MD 02MO 09MC 02RD 02RO	0	1	3.91410899162	-248.0	-361.0	None	None	0
2.7	2015_Jun_02_1448	s	s	20	2	SIC	44	ABS	0	2	02VD 02VO 02VC 02MD 02MO 02MC 10RD 02RO	0	1	2.10187387466	None	None	None	None	1
2.7	2015_Jun_02_1448	s	s	20	2	SIC	45	RC	2	0	02VD 02VO 09VC 02MD 02MO 02MC 02RD 02RO	1	0	0.865422010422	-62.0	112.0	-59	113	1
2.7	2015_Jun_02_1448	s	s	20	2	SIC	46	ABS	0	1	02VD 02VO 02VC 02MD 02MO 02MC 02RD 10RO	0	1	2.7839140892	None	None	None	None	1
2.7	2015_Jun_02_1448	s	s	20	2	SIC	47	RC	1	1	02VD 02VO 02VC 02MD 09MO 02MC 02RD 02RO	1	0	1.23563814163	466.0	79.0	464	78	1
2.7	2015_Jun_02_1448	s	s	20	2	SIC	48	RC	1	2	02VD 02VO 02VC 09MD 02MO 02MC 02RD 02RO	1	0	1.2535200119	351.0	250.0	351	249	1
2.7	2015_Jun_02_1448	s	s	20	2	SIC	49	RC	1	1	02VD 02VO 02VC 02MD 09MO 02MC 02RD 02RO	1	0	1.01821780205	-240.0	-333.0	-228	-331	1
2.7	2015_Jun_02_1448	s	s	20	2	SIC	50	RC	2	1	02VD 09VO 02VC 02MD 02MO 02MC 02RD 02RO	1	0	2.47944784164	417.0	-386.0	410	-381	1
2.7	2015_Jun_02_1448	s	s	20	2	SIC	51	ABS	2	1	02VD 10VO 02VC 02MD 02MO 02MC 02RD 02RO	0	1	1.6775188446	None	None	None	None	1
2.7	2015_Jun_02_1448	s	s	20	2	SIC	52	ABS	1	1	02VD 02VO 02VC 02MD 10MO 02MC 02RD 02RO	0	1	2.01886582375	None	None	None	None	1
2.7	2015_Jun_02_1448	s	s	20	2	SIC	53	RC	2	0	02VD 02VO 09VC 02MD 02MO 02MC 02RD 02RO	1	0	11.4941132069	267.0	140.0	272	142	1
2.7	2015_Jun_02_1448	s	s	20	2	SIC	54	RC	0	1	02VD 02VO 02VC 02MD 02MO 02MC 02RD 09RO	0	1	2.71839904785	130.0	303.0	None	None	0
2.7	2015_Jun_02_1448	s	s	20	2	SIC	55	RC	1	2	02VD 02VO 02VC 09MD 02MO 02MC 02RD 02RO	1	0	2.00029706955	488.0	-279.0	490	-276	1
2.7	2015_Jun_02_1448	s	s	20	2	SIC	56	ABS	2	0	02VD 02VO 10VC 02MD 02MO 02MC 02RD 02RO	0	1	1.9600789547	None	None	None	None	1
2.7	2015_Jun_02_1448	s	s	20	2	SIC	57	RC	2	2	09VD 02VO 02VC 02MD 02MO 02MC 02RD 02RO	1	0	0.776196956635	509.0	116.0	516	110	1
2.7	2015_Jun_02_1448	s	s	20	2	SIC	58	ABS	0	1	02VD 02VO 02VC 02MD 02MO 02MC 02RD 10RO	0	1	3.17299818993	None	None	None	None	1
2.7	2015_Jun_02_1448	s	s	20	2	SIC	59	RC	1	0	02VD 02VO 02VC 02MD 02MO 09MC 02RD 02RO	1	0	1.34119796753	-536.0	-196.0	-536	-191	1
2.7	2015_Jun_02_1448	s	s	20	2	SIC	60	ABS	1	0	02VD 02VO 02VC 02MD 02MO 10MC 02RD 02RO	0	1	1.8562579155	None	None	None	None	1
2.7	2015_Jun_02_1448	s	s	20	2	SIC	61	ABS	2	2	10VD 02VO 02VC 02MD 02MO 02MC 02RD 02RO	0	1	2.18372297287	None	None	None	None	1
2.7	2015_Jun_02_1448	s	s	20	2	SIC	62	ABS	1	2	02VD 02VO 02VC 10MD 02MO 02MC 02RD 02RO	0	1	2.03091812134	None	None	None	None	1
2.7	2015_Jun_02_1448	s	s	20	2	SIC	63	ABS	0	2	02VD 02VO 02VC 02MD 02MO 02MC 10RD 02RO	0	1	2.51834392548	None	None	None	None	1
2.7	2015_Jun_02_1448	s	s	20	2	SIC	64	RC	0	2	02VD 02VO 02VC 02MD 02MO 02MC 09RD 02RO	0	1	2.08292794228	-303.0	-89.0	None	None	0
2.7	2015_Jun_02_1448	s	s	20	2	SIC	65	RC	1	0	02VD 02VO 02VC 02MD 02MO 09MC 02RD 02RO	1	0	1.98372602463	397.0	167.0	392	173	1
2.7	2015_Jun_02_1448	s	s	20	2	SIC	66	ABS	1	1	02VD 02VO 02VC 02MD 10MO 02MC 02RD 02RO	0	1	4.15203905106	None	None	None	None	1
2.7	2015_Jun_02_1448	s	s	20	2	SIC	67	ABS	0	1	02VD 02VO 02VC 02MD 02MO 02MC 02RD 10RO	0	1	5.06069898605	None	None	None	None	1
2.7	2015_Jun_02_1448	s	s	20	2	SIC	68	RC	2	2	09VD 02VO 02VC 02MD 02MO 02MC 02RD 02RO	1	0	1.35966396332	-287.0	-24.0	-277	-21	1
2.7	2015_Jun_02_1448	s	s	20	2	SIC	69	RC	2	0	02VD 02VO 09VC 02MD 02MO 02MC 02RD 02RO	1	0	0.900660991669	47.0	-157.0	55	-158	1
2.7	2015_Jun_02_1448	s	s	20	2	SIC	70	RC	0	2	02VD 02VO 02VC 02MD 02MO 02MC 09RD 02RO	1	0	0.623310089111	211.0	18.0	198	21	1
2.7	2015_Jun_02_1448	s	s	20	2	SIC	71	ABS	0	2	02VD 02VO 02VC 02MD 02MO 02MC 10RD 02RO	0	1	2.51342511177	None	None	None	None	1
2.7	2015_Jun_02_1448	s	s	20	2	SIC	72	RC	1	2	02VD 02VO 02VC 09MD 02MO 02MC 02RD 02RO	1	0	0.741273880005	-203.0	-86.0	-205	-80	1
2.7	2015_Jun_02_1448	s	s	20	2	SIC	73	ABS	2	1	02VD 10VO 02VC 02MD 02MO 02MC 02RD 02RO	0	1	1.70208597183	None	None	None	None	1
2.7	2015_Jun_02_1448	s	s	20	2	SIC	74	RC	2	1	02VD 09VO 02VC 02MD 02MO 02MC 02RD 02RO	1	0	0.92923784256	344.0	-212.0	340	-210	1
2.7	2015_Jun_02_1448	s	s	20	2	SIC	75	ABS	2	2	10VD 02VO 02VC 02MD 02MO 02MC 02RD 02RO	0	1	2.09486484528	None	None	None	None	1
2.7	2015_Jun_02_1448	s	s	20	2	SIC	76	ABS	1	2	02VD 02VO 02VC 10MD 02MO 02MC 02RD 02RO	0	1	1.77348685265	None	None	None	None	1
2.7	2015_Jun_02_1448	s	s	20	2	SIC	77	RC	0	1	02VD 02VO 02VC 02MD 02MO 02MC 02RD 09RO	1	0	1.3477370739	-449.0	-152.0	-443	-149	1
2.7	2015_Jun_02_1448	s	s	20	2	SIC	78	ABS	1	0	02VD 02VO 02VC 02MD 02MO 10MC 02RD 02RO	0	1	3.20909714699	None	None	None	None	1
2.7	2015_Jun_02_1448	s	s	20	2	SIC	79	ABS	2	0	02VD 02VO 10VC 02MD 02MO 02MC 02RD 02RO	0	1	2.22019100189	None	None	None	None	1
2.7	2015_Jun_02_1448	s	s	20	2	SIC	80	RC	1	1	02VD 02VO 02VC 02MD 09MO 02MC 02RD 02RO	1	0	3.15388703346	-222.0	378.0	-222	373	1
2.7	2015_Jun_02_1448	s	s	20	2	SIC	81	ABS	1	2	02VD 02VO 02VC 10MD 02MO 02MC 02RD 02RO	0	1	1.61855101585	None	None	None	None	1
2.7	2015_Jun_02_1448	s	s	20	2	SIC	82	RC	2	0	02VD 02VO 09VC 02MD 02MO 02MC 02RD 02RO	1	0	1.06548976898	366.0	-277.0	371	-288	1
2.7	2015_Jun_02_1448	s	s	20	2	SIC	83	RC	2	2	09VD 02VO 02VC 02MD 02MO 02MC 02RD 02RO	1	0	0.682089090347	-2.0	-173.0	9	-164	1
2.7	2015_Jun_02_1448	s	s	20	2	SIC	84	ABS	2	2	10VD 02VO 02VC 02MD 02MO 02MC 02RD 02RO	0	1	2.12571883202	None	None	None	None	1
2.7	2015_Jun_02_1448	s	s	20	2	SIC	85	ABS	2	1	02VD 10VO 02VC 02MD 02MO 02MC 02RD 02RO	0	1	7.27361297607	None	None	None	None	1
2.7	2015_Jun_02_1448	s	s	20	2	SIC	86	RC	0	1	02VD 02VO 02VC 02MD 02MO 02MC 02RD 09RO	1	0	2.37741208076	-451.0	-138.0	-460	-141	1
2.7	2015_Jun_02_1448	s	s	20	2	SIC	87	RC	1	2	02VD 02VO 02VC 09MD 02MO 02MC 02RD 02RO	1	0	1.71256399155	-191.0	361.0	-185	355	1
2.7	2015_Jun_02_1448	s	s	20	2	SIC	88	RC	0	2	02VD 02VO 02VC 02MD 02MO 02MC 09RD 02RO	1	0	1.80032396317	400.0	-281.0	405	-289	1
2.7	2015_Jun_02_1448	s	s	20	2	SIC	89	ABS	1	1	02VD 02VO 02VC 02MD 10MO 02MC 02RD 02RO	0	1	5.59729599953	None	None	None	None	1
2.7	2015_Jun_02_1448	s	s	20	2	SIC	90	RC	1	0	02VD 02VO 02VC 02MD 02MO 09MC 02RD 02RO	1	0	1.31283593178	399.0	-104.0	400	-107	1
2.7	2015_Jun_02_1448	s	s	20	2	SIC	91	ABS	1	0	02VD 02VO 02VC 02MD 02MO 10MC 02RD 02RO	0	1	4.82032489777	None	None	None	None	1
2.7	2015_Jun_02_1448	s	s	20	2	SIC	92	ABS	2	0	02VD 02VO 10VC 02MD 02MO 02MC 02RD 02RO	0	1	3.26408004761	None	None	None	None	1
2.7	2015_Jun_02_1448	s	s	20	2	SIC	93	RC	1	1	02VD 02VO 02VC 02MD 09MO 02MC 02RD 02RO	1	0	2.04290914536	-273.0	298.0	-273	296	1
2.7	2015_Jun_02_1448	s	s	20	2	SIC	94	ABS	0	1	02VD 02VO 02VC 02MD 02MO 02MC 02RD 10RO	1	0	2.24748802185	None	None	350	-188	0
2.7	2015_Jun_02_1448	s	s	20	2	SIC	95	RC	2	1	02VD 09VO 02VC 02MD 02MO 02MC 02RD 02RO	1	0	1.08227109909	266.0	102.0	263	98	1
2.7	2015_Jun_02_1448	s	s	20	2	SIC	96	ABS	0	2	02VD 02VO 02VC 02MD 02MO 02MC 10RD 02RO	0	1	1.86629104614	None	None	None	None	1
2.7	2015_Jun_02_1448	s	s	20	2	SIC	97	ABS	1	2	02VD 02VO 02VC 10MD 02MO 02MC 02RD 02RO	0	1	2.08967709541	None	None	None	None	1
2.7	2015_Jun_02_1448	s	s	20	2	SIC	98	RC	1	2	02VD 02VO 02VC 09MD 02MO 02MC 02RD 02RO	1	0	1.34122300148	400.0	-354.0	390	-356	1
2.7	2015_Jun_02_1448	s	s	20	2	SIC	99	RC	2	2	09VD 02VO 02VC 02MD 02MO 02MC 02RD 02RO	1	0	2.9258210659	103.0	260.0	107	250	1
2.7	2015_Jun_02_1448	s	s	20	2	SIC	100	RC	1	1	02VD 02VO 02VC 02MD 09MO 02MC 02RD 02RO	1	0	1.09403395653	402.0	243.0	405	242	1
2.7	2015_Jun_02_1448	s	s	20	2	SIC	101	ABS	1	1	02VD 02VO 02VC 02MD 10MO 02MC 02RD 02RO	0	1	2.84785699844	None	None	None	None	1
2.7	2015_Jun_02_1448	s	s	20	2	SIC	102	RC	2	0	02VD 02VO 09VC 02MD 02MO 02MC 02RD 02RO	1	0	3.3775138855	-380.0	252.0	-390	254	1
2.7	2015_Jun_02_1448	s	s	20	2	SIC	103	ABS	2	0	02VD 02VO 10VC 02MD 02MO 02MC 02RD 02RO	0	1	2.31311202049	None	None	None	None	1
2.7	2015_Jun_02_1448	s	s	20	2	SIC	104	RC	0	2	02VD 02VO 02VC 02MD 02MO 02MC 09RD 02RO	1	0	2.7157959938	-210.0	-344.0	-204	-348	1
2.7	2015_Jun_02_1448	s	s	20	2	SIC	105	ABS	2	2	10VD 02VO 02VC 02MD 02MO 02MC 02RD 02RO	0	1	2.26601791382	None	None	None	None	1
2.7	2015_Jun_02_1448	s	s	20	2	SIC	106	RC	0	1	02VD 02VO 02VC 02MD 02MO 02MC 02RD 09RO	1	0	1.25375914574	-75.0	-176.0	-74	-178	1
2.7	2015_Jun_02_1448	s	s	20	2	SIC	107	RC	1	0	02VD 02VO 02VC 02MD 02MO 09MC 02RD 02RO	1	0	1.40009403229	-119.0	-185.0	-123	-176	1
2.7	2015_Jun_02_1448	s	s	20	2	SIC	108	ABS	1	0	02VD 02VO 02VC 02MD 02MO 10MC 02RD 02RO	0	1	3.98530316353	None	None	None	None	1
2.7	2015_Jun_02_1448	s	s	20	2	SIC	109	ABS	2	1	02VD 10VO 02VC 02MD 02MO 02MC 02RD 02RO	0	1	2.73684000969	None	None	None	None	1
2.7	2015_Jun_02_1448	s	s	20	2	SIC	110	ABS	0	1	02VD 02VO 02VC 02MD 02MO 02MC 02RD 10RO	0	1	14.4245409966	None	None	None	None	1
2.7	2015_Jun_02_1448	s	s	20	2	SIC	111	ABS	0	2	02VD 02VO 02VC 02MD 02MO 02MC 10RD 02RO	0	1	15.1895020008	None	None	None	None	1
2.7	2015_Jun_02_1448	s	s	20	2	SIC	112	RC	2	1	02VD 09VO 02VC 02MD 02MO 02MC 02RD 02RO	1	0	2.15352106094	228.0	249.0	236	244	1
2.7	2015_Jun_02_1448	s	s	20	2	SIC	113	ABS	1	2	02VD 02VO 02VC 10MD 02MO 02MC 02RD 02RO	0	1	2.96294999123	None	None	None	None	1
2.7	2015_Jun_02_1448	s	s	20	2	SIC	114	RC	2	2	09VD 02VO 02VC 02MD 02MO 02MC 02RD 02RO	1	0	1.3144299984	288.0	-91.0	277	-91	1
2.7	2015_Jun_02_1448	s	s	20	2	SIC	115	ABS	2	0	02VD 02VO 10VC 02MD 02MO 02MC 02RD 02RO	1	0	10.1758670807	None	None	179	-257	0
2.7	2015_Jun_02_1448	s	s	20	2	SIC	116	ABS	2	2	10VD 02VO 02VC 02MD 02MO 02MC 02RD 02RO	1	0	2.43079304695	None	None	-26	-272	0
2.7	2015_Jun_02_1448	s	s	20	2	SIC	117	RC	1	0	02VD 02VO 02VC 02MD 02MO 09MC 02RD 02RO	1	0	1.41179394722	120.0	192.0	109	199	1
2.7	2015_Jun_02_1448	s	s	20	2	SIC	118	ABS	0	1	02VD 02VO 02VC 02MD 02MO 02MC 02RD 10RO	0	1	4.24856090546	None	None	None	None	1
2.7	2015_Jun_02_1448	s	s	20	2	SIC	119	ABS	0	2	02VD 02VO 02VC 02MD 02MO 02MC 10RD 02RO	0	1	2.51580381393	None	None	None	None	1
2.7	2015_Jun_02_1448	s	s	20	2	SIC	120	ABS	2	1	02VD 10VO 02VC 02MD 02MO 02MC 02RD 02RO	0	1	2.74830794334	None	None	None	None	1
2.7	2015_Jun_02_1448	s	s	20	2	SIC	121	ABS	1	0	02VD 02VO 02VC 02MD 02MO 10MC 02RD 02RO	0	1	2.8180000782	None	None	None	None	1
2.7	2015_Jun_02_1448	s	s	20	2	SIC	122	RC	1	2	02VD 02VO 02VC 09MD 02MO 02MC 02RD 02RO	1	0	0.983141183853	232.0	-102.0	232	-100	1
2.7	2015_Jun_02_1448	s	s	20	2	SIC	123	RC	2	0	02VD 02VO 09VC 02MD 02MO 02MC 02RD 02RO	1	0	1.02344107628	263.0	-154.0	264	-154	1
2.7	2015_Jun_02_1448	s	s	20	2	SIC	124	RC	1	1	02VD 02VO 02VC 02MD 09MO 02MC 02RD 02RO	1	0	0.776235103607	239.0	-76.0	235	-79	1
2.7	2015_Jun_02_1448	s	s	20	2	SIC	125	RC	2	1	02VD 09VO 02VC 02MD 02MO 02MC 02RD 02RO	1	0	1.92965698242	-396.0	-397.0	-404	-398	1
2.7	2015_Jun_02_1448	s	s	20	2	SIC	126	RC	0	1	02VD 02VO 02VC 02MD 02MO 02MC 02RD 09RO	1	0	2.55362606049	-404.0	-410.0	-408	-411	1
2.7	2015_Jun_02_1448	s	s	20	2	SIC	127	RC	0	2	02VD 02VO 02VC 02MD 02MO 02MC 09RD 02RO	1	0	1.6472530365	-458.0	-263.0	-464	-271	1
2.7	2015_Jun_02_1448	s	s	20	2	SIC	128	ABS	1	1	02VD 02VO 02VC 02MD 10MO 02MC 02RD 02RO	0	1	3.67186307907	None	None	None	None	1
2.7	2015_Jun_02_1448	s	s	20	2	SIC	129	ABS	1	0	02VD 02VO 02VC 02MD 02MO 10MC 02RD 02RO	0	1	3.39603304863	None	None	None	None	1
2.7	2015_Jun_02_1448	s	s	20	2	SIC	130	ABS	0	1	02VD 02VO 02VC 02MD 02MO 02MC 02RD 10RO	0	1	4.11904501915	None	None	None	None	1
2.7	2015_Jun_02_1448	s	s	20	2	SIC	131	RC	0	2	02VD 02VO 02VC 02MD 02MO 02MC 09RD 02RO	1	0	1.14114904404	455.0	-2.0	450	-3	1
2.7	2015_Jun_02_1448	s	s	20	2	SIC	132	RC	2	0	02VD 02VO 09VC 02MD 02MO 02MC 02RD 02RO	1	0	1.54755616188	107.0	-221.0	111	-226	1
2.7	2015_Jun_02_1448	s	s	20	2	SIC	133	ABS	1	1	02VD 02VO 02VC 02MD 10MO 02MC 02RD 02RO	0	1	2.39256095886	None	None	None	None	1
2.7	2015_Jun_02_1448	s	s	20	2	SIC	134	ABS	2	2	10VD 02VO 02VC 02MD 02MO 02MC 02RD 02RO	0	1	1.76182699203	None	None	None	None	1
2.7	2015_Jun_02_1448	s	s	20	2	SIC	135	RC	2	1	02VD 09VO 02VC 02MD 02MO 02MC 02RD 02RO	1	0	1.32939100266	398.0	202.0	388	201	1
2.7	2015_Jun_02_1448	s	s	20	2	SIC	136	ABS	2	1	02VD 10VO 02VC 02MD 02MO 02MC 02RD 02RO	0	1	4.61346316338	None	None	None	None	1
2.7	2015_Jun_02_1448	s	s	20	2	SIC	137	RC	1	2	02VD 02VO 02VC 09MD 02MO 02MC 02RD 02RO	1	0	1.31768393517	161.0	211.0	155	218	1
2.7	2015_Jun_02_1448	s	s	20	2	SIC	138	ABS	2	0	02VD 02VO 10VC 02MD 02MO 02MC 02RD 02RO	0	1	3.54867601395	None	None	None	None	1
2.7	2015_Jun_02_1448	s	s	20	2	SIC	139	RC	0	1	02VD 02VO 02VC 02MD 02MO 02MC 02RD 09RO	1	0	2.38322591782	309.0	195.0	316	193	1
2.7	2015_Jun_02_1448	s	s	20	2	SIC	140	RC	1	0	02VD 02VO 02VC 02MD 02MO 09MC 02RD 02RO	1	0	0.91250705719	239.0	186.0	247	192	1
2.7	2015_Jun_02_1448	s	s	20	2	SIC	141	ABS	0	2	02VD 02VO 02VC 02MD 02MO 02MC 10RD 02RO	0	1	1.74756407738	None	None	None	None	1
2.7	2015_Jun_02_1448	s	s	20	2	SIC	142	RC	1	1	02VD 02VO 02VC 02MD 09MO 02MC 02RD 02RO	1	0	0.806890010834	76.0	-214.0	67	-206	1
2.7	2015_Jun_02_1448	s	s	20	2	SIC	143	RC	2	2	09VD 02VO 02VC 02MD 02MO 02MC 02RD 02RO	1	0	0.90568113327	137.0	-85.0	143	-76	1
2.7	2015_Jun_02_1448	s	s	20	2	SIC	144	ABS	1	2	02VD 02VO 02VC 10MD 02MO 02MC 02RD 02RO	0	1	2.04742288589	None	None	None	None	1
2.7	2015_Jun_02_1448	s	s	20	2	SIC	145	ABS	2	1	02VD 10VO 02VC 02MD 02MO 02MC 02RD 02RO	0	1	2.98914003372	None	None	None	None	1
2.7	2015_Jun_02_1448	s	s	20	2	SIC	146	RC	2	0	02VD 02VO 09VC 02MD 02MO 02MC 02RD 02RO	1	0	0.561100006104	-32.0	10.0	-38	12	1
2.7	2015_Jun_02_1448	s	s	20	2	SIC	147	ABS	1	0	02VD 02VO 02VC 02MD 02MO 10MC 02RD 02RO	0	1	3.35428094864	None	None	None	None	1
2.7	2015_Jun_02_1448	s	s	20	2	SIC	148	ABS	0	2	02VD 02VO 02VC 02MD 02MO 02MC 10RD 02RO	0	1	2.07085609436	None	None	None	None	1
2.7	2015_Jun_02_1448	s	s	20	2	SIC	149	RC	2	1	02VD 09VO 02VC 02MD 02MO 02MC 02RD 02RO	1	0	1.70606899261	-376.0	29.0	-377	29	1
2.7	2015_Jun_02_1448	s	s	20	2	SIC	150	ABS	1	1	02VD 02VO 02VC 02MD 10MO 02MC 02RD 02RO	0	1	3.93761205673	None	None	None	None	1
2.7	2015_Jun_02_1448	s	s	20	2	SIC	151	ABS	2	2	10VD 02VO 02VC 02MD 02MO 02MC 02RD 02RO	0	1	2.94895005226	None	None	None	None	1
2.7	2015_Jun_02_1448	s	s	20	2	SIC	152	RC	1	0	02VD 02VO 02VC 02MD 02MO 09MC 02RD 02RO	1	0	7.16204404831	116.0	-318.0	114	-317	1
2.7	2015_Jun_02_1448	s	s	20	2	SIC	153	ABS	1	2	02VD 02VO 02VC 10MD 02MO 02MC 02RD 02RO	0	1	7.88087892532	None	None	None	None	1
2.7	2015_Jun_02_1448	s	s	20	2	SIC	154	RC	2	2	09VD 02VO 02VC 02MD 02MO 02MC 02RD 02RO	0	1	4.33784914017	-220.0	-249.0	None	None	0
2.7	2015_Jun_02_1448	s	s	20	2	SIC	155	RC	1	2	02VD 02VO 02VC 09MD 02MO 02MC 02RD 02RO	1	0	2.03088903427	427.0	274.0	430	281	1
2.7	2015_Jun_02_1448	s	s	20	2	SIC	156	RC	0	2	02VD 02VO 02VC 02MD 02MO 02MC 09RD 02RO	1	0	5.04888176918	-488.0	-117.0	-490	-124	1
2.7	2015_Jun_02_1448	s	s	20	2	SIC	157	RC	0	1	02VD 02VO 02VC 02MD 02MO 02MC 02RD 09RO	1	0	2.65612101555	-143.0	120.0	-135	122	1
2.7	2015_Jun_02_1448	s	s	20	2	SIC	158	ABS	2	0	02VD 02VO 10VC 02MD 02MO 02MC 02RD 02RO	0	1	2.86790394783	None	None	None	None	1
2.7	2015_Jun_02_1448	s	s	20	2	SIC	159	ABS	0	1	02VD 02VO 02VC 02MD 02MO 02MC 02RD 10RO	0	1	10.2701349258	None	None	None	None	1
2.7	2015_Jun_02_1448	s	s	20	2	SIC	160	RC	1	1	02VD 02VO 02VC 02MD 09MO 02MC 02RD 02RO	1	0	2.00957489014	536.0	-112.0	539	-106	1
2.7	2015_Jun_02_1448	s	s	20	2	SIC	161	ABS	1	2	02VD 02VO 02VC 10MD 02MO 02MC 02RD 02RO	0	1	2.84275794029	None	None	None	None	1
2.7	2015_Jun_02_1448	s	s	20	2	SIC	162	RC	0	1	02VD 02VO 02VC 02MD 02MO 02MC 02RD 09RO	1	0	1.38267588615	20.0	-220.0	17	-215	1
2.7	2015_Jun_02_1448	s	s	20	2	SIC	163	ABS	2	1	02VD 10VO 02VC 02MD 02MO 02MC 02RD 02RO	0	1	2.51822900772	None	None	None	None	1
2.7	2015_Jun_02_1448	s	s	20	2	SIC	164	ABS	1	0	02VD 02VO 02VC 02MD 02MO 10MC 02RD 02RO	0	1	3.92828297615	None	None	None	None	1
2.7	2015_Jun_02_1448	s	s	20	2	SIC	165	ABS	1	1	02VD 02VO 02VC 02MD 10MO 02MC 02RD 02RO	0	1	6.39780092239	None	None	None	None	1
2.7	2015_Jun_02_1448	s	s	20	2	SIC	166	RC	1	2	02VD 02VO 02VC 09MD 02MO 02MC 02RD 02RO	1	0	1.44223809242	-402.0	-3.0	-411	1	1
2.7	2015_Jun_02_1448	s	s	20	2	SIC	167	RC	1	0	02VD 02VO 02VC 02MD 02MO 09MC 02RD 02RO	1	0	0.870522975922	103.0	-134.0	113	-127	1
2.7	2015_Jun_02_1448	s	s	20	2	SIC	168	ABS	2	0	02VD 02VO 10VC 02MD 02MO 02MC 02RD 02RO	0	1	2.32525897026	None	None	None	None	1
2.7	2015_Jun_02_1448	s	s	20	2	SIC	169	RC	2	0	02VD 02VO 09VC 02MD 02MO 02MC 02RD 02RO	1	0	0.58792591095	122.0	-62.0	126	-64	1
2.7	2015_Jun_02_1448	s	s	20	2	SIC	170	ABS	0	1	02VD 02VO 02VC 02MD 02MO 02MC 02RD 10RO	0	1	4.52643299103	None	None	None	None	1
2.7	2015_Jun_02_1448	s	s	20	2	SIC	171	ABS	0	2	02VD 02VO 02VC 02MD 02MO 02MC 10RD 02RO	0	1	1.71281504631	None	None	None	None	1
2.7	2015_Jun_02_1448	s	s	20	2	SIC	172	ABS	2	2	10VD 02VO 02VC 02MD 02MO 02MC 02RD 02RO	0	1	3.69057798386	None	None	None	None	1
2.7	2015_Jun_02_1448	s	s	20	2	SIC	173	RC	2	2	09VD 02VO 02VC 02MD 02MO 02MC 02RD 02RO	1	0	1.23020410538	227.0	-156.0	220	-154	1
2.7	2015_Jun_02_1448	s	s	20	2	SIC	174	RC	0	2	02VD 02VO 02VC 02MD 02MO 02MC 09RD 02RO	1	0	1.74683785439	-372.0	-289.0	-375	-281	1
2.7	2015_Jun_02_1448	s	s	20	2	SIC	175	RC	2	1	02VD 09VO 02VC 02MD 02MO 02MC 02RD 02RO	1	0	1.04695415497	318.0	159.0	315	157	1
2.7	2015_Jun_02_1448	s	s	20	2	SIC	176	RC	1	1	02VD 02VO 02VC 02MD 09MO 02MC 02RD 02RO	1	0	0.517362833023	44.0	11.0	41	9	1
2.7	2015_Jun_02_1448	s	s	20	2	SIC	177	ABS	2	1	02VD 10VO 02VC 02MD 02MO 02MC 02RD 02RO	0	1	1.88974785805	None	None	None	None	1
2.7	2015_Jun_02_1448	s	s	20	2	SIC	178	ABS	0	1	02VD 02VO 02VC 02MD 02MO 02MC 02RD 10RO	0	1	6.92817592621	None	None	None	None	1
2.7	2015_Jun_02_1448	s	s	20	2	SIC	179	RC	0	1	02VD 02VO 02VC 02MD 02MO 02MC 02RD 09RO	1	0	3.76099705696	-471.0	-96.0	-471	-96	1
2.7	2015_Jun_02_1448	s	s	20	2	SIC	180	RC	0	2	02VD 02VO 02VC 02MD 02MO 02MC 09RD 02RO	1	0	1.09398698807	297.0	-233.0	303	-225	1
2.7	2015_Jun_02_1448	s	s	20	2	SIC	181	RC	1	2	02VD 02VO 02VC 09MD 02MO 02MC 02RD 02RO	1	0	0.725104093552	23.0	116.0	24	117	1
2.7	2015_Jun_02_1448	s	s	20	2	SIC	182	RC	2	1	02VD 09VO 02VC 02MD 02MO 02MC 02RD 02RO	1	0	0.717576980591	-121.0	184.0	-124	173	1
2.7	2015_Jun_02_1448	s	s	20	2	SIC	183	RC	1	0	02VD 02VO 02VC 02MD 02MO 09MC 02RD 02RO	1	0	2.10620594025	13.0	-230.0	13	-233	1
2.7	2015_Jun_02_1448	s	s	20	2	SIC	184	RC	1	1	02VD 02VO 02VC 02MD 09MO 02MC 02RD 02RO	1	0	1.20670294762	501.0	-210.0	507	-205	1
2.7	2015_Jun_02_1448	s	s	20	2	SIC	185	ABS	1	2	02VD 02VO 02VC 10MD 02MO 02MC 02RD 02RO	0	1	1.98603916168	None	None	None	None	1
2.7	2015_Jun_02_1448	s	s	20	2	SIC	186	RC	2	0	02VD 02VO 09VC 02MD 02MO 02MC 02RD 02RO	1	0	1.48236012459	254.0	189.0	248	193	1
2.7	2015_Jun_02_1448	s	s	20	2	SIC	187	ABS	0	2	02VD 02VO 02VC 02MD 02MO 02MC 10RD 02RO	0	1	2.45439100266	None	None	None	None	1
2.7	2015_Jun_02_1448	s	s	20	2	SIC	188	ABS	2	2	10VD 02VO 02VC 02MD 02MO 02MC 02RD 02RO	0	1	1.5846259594	None	None	None	None	1
2.7	2015_Jun_02_1448	s	s	20	2	SIC	189	ABS	1	1	02VD 02VO 02VC 02MD 10MO 02MC 02RD 02RO	0	1	2.43159413338	None	None	None	None	1
2.7	2015_Jun_02_1448	s	s	20	2	SIC	190	RC	2	2	09VD 02VO 02VC 02MD 02MO 02MC 02RD 02RO	1	0	1.23563218117	349.0	-30.0	361	-23	1
2.7	2015_Jun_02_1448	s	s	20	2	SIC	191	ABS	2	0	02VD 02VO 10VC 02MD 02MO 02MC 02RD 02RO	0	1	2.04253101349	None	None	None	None	1
2.7	2015_Jun_02_1448	s	s	20	2	SIC	192	ABS	1	0	02VD 02VO 02VC 02MD 02MO 10MC 02RD 02RO	0	1	2.90182805061	None	None	None	None	1
2.7	2015_Jun_02_1448	s	s	20	2	SIC	193	RC	2	1	02VD 09VO 02VC 02MD 02MO 02MC 02RD 02RO	1	0	0.835049152374	-521.0	19.0	-518	21	1
2.7	2015_Jun_02_1448	s	s	20	2	SIC	194	RC	2	2	09VD 02VO 02VC 02MD 02MO 02MC 02RD 02RO	1	0	1.51777100563	-222.0	129.0	-212	128	1
2.7	2015_Jun_02_1448	s	s	20	2	SIC	195	ABS	1	0	02VD 02VO 02VC 02MD 02MO 10MC 02RD 02RO	0	1	2.23188591003	None	None	None	None	1
2.7	2015_Jun_02_1448	s	s	20	2	SIC	196	ABS	0	2	02VD 02VO 02VC 02MD 02MO 02MC 10RD 02RO	0	1	2.48319911957	None	None	None	None	1
2.7	2015_Jun_02_1448	s	s	20	2	SIC	197	RC	1	0	02VD 02VO 02VC 02MD 02MO 09MC 02RD 02RO	1	0	1.07050299644	94.0	-294.0	109	-288	1
2.7	2015_Jun_02_1448	s	s	20	2	SIC	198	RC	1	2	02VD 02VO 02VC 09MD 02MO 02MC 02RD 02RO	1	0	1.58838009834	386.0	386.0	391	388	1
2.7	2015_Jun_02_1448	s	s	20	2	SIC	199	ABS	2	2	10VD 02VO 02VC 02MD 02MO 02MC 02RD 02RO	0	1	1.74143409729	None	None	None	None	1
2.7	2015_Jun_02_1448	s	s	20	2	SIC	200	ABS	1	1	02VD 02VO 02VC 02MD 10MO 02MC 02RD 02RO	0	1	4.37295293808	None	None	None	None	1
2.7	2015_Jun_02_1448	s	s	20	2	SIC	201	ABS	2	0	02VD 02VO 10VC 02MD 02MO 02MC 02RD 02RO	0	1	2.12660098076	None	None	None	None	1
2.7	2015_Jun_02_1448	s	s	20	2	SIC	202	ABS	2	1	02VD 10VO 02VC 02MD 02MO 02MC 02RD 02RO	0	1	1.91317105293	None	None	None	None	1
2.7	2015_Jun_02_1448	s	s	20	2	SIC	203	RC	0	1	02VD 02VO 02VC 02MD 02MO 02MC 02RD 09RO	1	0	5.2607960701	415.0	-285.0	406	-285	1
2.7	2015_Jun_02_1448	s	s	20	2	SIC	204	RC	2	0	02VD 02VO 09VC 02MD 02MO 02MC 02RD 02RO	1	0	2.04512310028	-284.0	114.0	-291	121	1
2.7	2015_Jun_02_1448	s	s	20	2	SIC	205	ABS	0	1	02VD 02VO 02VC 02MD 02MO 02MC 02RD 10RO	0	1	3.19804596901	None	None	None	None	1
2.7	2015_Jun_02_1448	s	s	20	2	SIC	206	RC	0	2	02VD 02VO 02VC 02MD 02MO 02MC 09RD 02RO	1	0	1.34897994995	-256.0	-284.0	-262	-278	1
2.7	2015_Jun_02_1448	s	s	20	2	SIC	207	ABS	1	2	02VD 02VO 02VC 10MD 02MO 02MC 02RD 02RO	0	1	1.75315690041	None	None	None	None	1
2.7	2015_Jun_02_1448	s	s	20	2	SIC	208	RC	1	1	02VD 02VO 02VC 02MD 09MO 02MC 02RD 02RO	1	0	0.947383880615	360.0	0.0	354	3	1
2.7	2015_Jun_02_1448	s	s	20	2	SIC	209	ABS	2	1	02VD 10VO 02VC 02MD 02MO 02MC 02RD 02RO	0	1	2.55357599258	None	None	None	None	1
2.7	2015_Jun_02_1448	s	s	20	2	SIC	210	ABS	0	1	02VD 02VO 02VC 02MD 02MO 02MC 02RD 10RO	0	1	4.06019997597	None	None	None	None	1
2.7	2015_Jun_02_1448	s	s	20	2	SIC	211	RC	1	0	02VD 02VO 02VC 02MD 02MO 09MC 02RD 02RO	1	0	0.947068929672	117.0	351.0	112	354	1
2.7	2015_Jun_02_1448	s	s	20	2	SIC	212	RC	0	2	02VD 02VO 02VC 02MD 02MO 02MC 09RD 02RO	1	0	2.54175400734	-495.0	-22.0	-490	-28	1
2.7	2015_Jun_02_1448	s	s	20	2	SIC	213	RC	2	0	02VD 02VO 09VC 02MD 02MO 02MC 02RD 02RO	1	0	0.799767017365	-422.0	-82.0	-412	-79	1
2.7	2015_Jun_02_1448	s	s	20	2	SIC	214	RC	2	2	09VD 02VO 02VC 02MD 02MO 02MC 02RD 02RO	1	0	1.98858785629	48.0	188.0	54	190	1
2.7	2015_Jun_02_1448	s	s	20	2	SIC	215	ABS	2	0	02VD 02VO 10VC 02MD 02MO 02MC 02RD 02RO	0	1	2.0188498497	None	None	None	None	1
2.7	2015_Jun_02_1448	s	s	20	2	SIC	216	ABS	2	2	10VD 02VO 02VC 02MD 02MO 02MC 02RD 02RO	0	1	2.30136704445	None	None	None	None	1
2.7	2015_Jun_02_1448	s	s	20	2	SIC	217	RC	0	1	02VD 02VO 02VC 02MD 02MO 02MC 02RD 09RO	1	0	3.31871914864	-507.0	329.0	-513	336	1
2.7	2015_Jun_02_1448	s	s	20	2	SIC	218	ABS	1	2	02VD 02VO 02VC 10MD 02MO 02MC 02RD 02RO	0	1	1.75327301025	None	None	None	None	1
2.7	2015_Jun_02_1448	s	s	20	2	SIC	219	RC	1	1	02VD 02VO 02VC 02MD 09MO 02MC 02RD 02RO	1	0	1.74807310104	-524.0	-61.0	-527	-63	1
2.7	2015_Jun_02_1448	s	s	20	2	SIC	220	RC	1	2	02VD 02VO 02VC 09MD 02MO 02MC 02RD 02RO	1	0	1.15285301208	-47.0	185.0	-46	185	1
2.7	2015_Jun_02_1448	s	s	20	2	SIC	221	ABS	1	1	02VD 02VO 02VC 02MD 10MO 02MC 02RD 02RO	0	1	1.74828100204	None	None	None	None	1
2.7	2015_Jun_02_1448	s	s	20	2	SIC	222	RC	2	1	02VD 09VO 02VC 02MD 02MO 02MC 02RD 02RO	1	0	1.57363009453	471.0	259.0	477	253	1
2.7	2015_Jun_02_1448	s	s	20	2	SIC	223	ABS	0	2	02VD 02VO 02VC 02MD 02MO 02MC 10RD 02RO	0	1	1.39543414116	None	None	None	None	1
2.7	2015_Jun_02_1448	s	s	20	2	SIC	224	ABS	1	0	02VD 02VO 02VC 02MD 02MO 10MC 02RD 02RO	0	1	2.0780351162	None	None	None	None	1
2.7	2015_Jun_02_1448	s	s	20	2	SIC	225	ABS	2	0	02VD 02VO 10VC 02MD 02MO 02MC 02RD 02RO	0	1	1.43530201912	None	None	None	None	1
2.7	2015_Jun_02_1448	s	s	20	2	SIC	226	ABS	0	1	02VD 02VO 02VC 02MD 02MO 02MC 02RD 10RO	0	1	4.03123497963	None	None	None	None	1
2.7	2015_Jun_02_1448	s	s	20	2	SIC	227	RC	1	0	02VD 02VO 02VC 02MD 02MO 09MC 02RD 02RO	1	0	0.882073163986	-303.0	131.0	-306	119	1
2.7	2015_Jun_02_1448	s	s	20	2	SIC	228	ABS	0	2	02VD 02VO 02VC 02MD 02MO 02MC 10RD 02RO	0	1	1.94781494141	None	None	None	None	1
2.7	2015_Jun_02_1448	s	s	20	2	SIC	229	RC	1	1	02VD 02VO 02VC 02MD 09MO 02MC 02RD 02RO	1	0	1.04688811302	-420.0	-88.0	-423	-95	1
2.7	2015_Jun_02_1448	s	s	20	2	SIC	230	ABS	1	1	02VD 02VO 02VC 02MD 10MO 02MC 02RD 02RO	0	1	3.64819693565	None	None	None	None	1
2.7	2015_Jun_02_1448	s	s	20	2	SIC	231	RC	0	1	02VD 02VO 02VC 02MD 02MO 02MC 02RD 09RO	1	0	1.67624092102	233.0	189.0	230	194	1
2.7	2015_Jun_02_1448	s	s	20	2	SIC	232	ABS	1	2	02VD 02VO 02VC 10MD 02MO 02MC 02RD 02RO	0	1	1.7959830761	None	None	None	None	1
2.7	2015_Jun_02_1448	s	s	20	2	SIC	233	ABS	1	0	02VD 02VO 02VC 02MD 02MO 10MC 02RD 02RO	0	1	2.02140402794	None	None	None	None	1
2.7	2015_Jun_02_1448	s	s	20	2	SIC	234	RC	1	2	02VD 02VO 02VC 09MD 02MO 02MC 02RD 02RO	1	0	1.25403904915	-234.0	-364.0	-236	-360	1
2.7	2015_Jun_02_1448	s	s	20	2	SIC	235	ABS	2	1	02VD 10VO 02VC 02MD 02MO 02MC 02RD 02RO	0	1	1.8070538044	None	None	None	None	1
2.7	2015_Jun_02_1448	s	s	20	2	SIC	236	RC	2	0	02VD 02VO 09VC 02MD 02MO 02MC 02RD 02RO	1	0	1.79704499245	-422.0	345.0	-421	349	1
2.7	2015_Jun_02_1448	s	s	20	2	SIC	237	RC	2	1	02VD 09VO 02VC 02MD 02MO 02MC 02RD 02RO	1	0	1.29415106773	408.0	-381.0	412	-382	1
2.7	2015_Jun_02_1448	s	s	20	2	SIC	238	ABS	2	2	10VD 02VO 02VC 02MD 02MO 02MC 02RD 02RO	0	1	1.97203803062	None	None	None	None	1
2.7	2015_Jun_02_1448	s	s	20	2	SIC	239	RC	0	2	02VD 02VO 02VC 02MD 02MO 02MC 09RD 02RO	1	0	2.5734910965	-526.0	-260.0	-518	-256	1
2.7	2015_Jun_02_1448	s	s	20	2	SIC	240	RC	2	2	09VD 02VO 02VC 02MD 02MO 02MC 02RD 02RO	1	0	2.18056988716	206.0	-281.0	209	-273	1
2.7	2015_Jun_02_1448	s	s	20	2	SIC	241	RC	1	0	02VD 02VO 02VC 02MD 02MO 09MC 02RD 02RO	1	0	1.88942408562	335.0	-222.0	337	-227	1
2.7	2015_Jun_02_1448	s	s	20	2	SIC	242	ABS	2	1	02VD 10VO 02VC 02MD 02MO 02MC 02RD 02RO	0	1	1.48247098923	None	None	None	None	1
2.7	2015_Jun_02_1448	s	s	20	2	SIC	243	ABS	2	2	10VD 02VO 02VC 02MD 02MO 02MC 02RD 02RO	0	1	1.89816403389	None	None	None	None	1
2.7	2015_Jun_02_1448	s	s	20	2	SIC	244	ABS	1	1	02VD 02VO 02VC 02MD 10MO 02MC 02RD 02RO	0	1	1.63054299355	None	None	None	None	1
2.7	2015_Jun_02_1448	s	s	20	2	SIC	245	RC	2	1	02VD 09VO 02VC 02MD 02MO 02MC 02RD 02RO	1	0	0.964520931244	342.0	216.0	353	217	1
2.7	2015_Jun_02_1448	s	s	20	2	SIC	246	ABS	1	2	02VD 02VO 02VC 10MD 02MO 02MC 02RD 02RO	0	1	2.61971306801	None	None	None	None	1
2.7	2015_Jun_02_1448	s	s	20	2	SIC	247	ABS	0	2	02VD 02VO 02VC 02MD 02MO 02MC 10RD 02RO	0	1	5.30794692039	None	None	None	None	1
2.7	2015_Jun_02_1448	s	s	20	2	SIC	248	ABS	1	0	02VD 02VO 02VC 02MD 02MO 10MC 02RD 02RO	0	1	3.03619289398	None	None	None	None	1
2.7	2015_Jun_02_1448	s	s	20	2	SIC	249	RC	2	2	09VD 02VO 02VC 02MD 02MO 02MC 02RD 02RO	1	0	0.664807081223	-328.0	-110.0	-339	-110	1
2.7	2015_Jun_02_1448	s	s	20	2	SIC	250	RC	0	1	02VD 02VO 02VC 02MD 02MO 02MC 02RD 09RO	1	0	2.07986617088	57.0	-318.0	59	-317	1
2.7	2015_Jun_02_1448	s	s	20	2	SIC	251	RC	1	1	02VD 02VO 02VC 02MD 09MO 02MC 02RD 02RO	1	0	2.59557890892	-435.0	-350.0	-435	-351	1
2.7	2015_Jun_02_1448	s	s	20	2	SIC	252	RC	1	2	02VD 02VO 02VC 09MD 02MO 02MC 02RD 02RO	1	0	0.867115974426	-21.0	-270.0	-10	-266	1
2.7	2015_Jun_02_1448	s	s	20	2	SIC	253	RC	2	0	02VD 02VO 09VC 02MD 02MO 02MC 02RD 02RO	1	0	0.741242170334	56.0	-256.0	63	-247	1
2.7	2015_Jun_02_1448	s	s	20	2	SIC	254	ABS	0	1	02VD 02VO 02VC 02MD 02MO 02MC 02RD 10RO	0	1	2.50144100189	None	None	None	None	1
2.7	2015_Jun_02_1448	s	s	20	2	SIC	255	RC	0	2	02VD 02VO 02VC 02MD 02MO 02MC 09RD 02RO	1	0	1.4186360836	54.0	-312.0	57	-307	1
2.7	2015_Jun_02_1448	s	s	20	2	SIC	256	ABS	2	0	02VD 02VO 10VC 02MD 02MO 02MC 02RD 02RO	0	1	1.91799402237	None	None	None	None	1
2.7	2015_Jun_02_1448	s	s	20	2	SIC	257	RC	0	2	02VD 02VO 02VC 02MD 02MO 02MC 09RD 02RO	1	0	1.97133183479	-477.0	-284.0	-484	-281	1
2.7	2015_Jun_02_1448	s	s	20	2	SIC	258	RC	0	1	02VD 02VO 02VC 02MD 02MO 02MC 02RD 09RO	1	0	2.3417468071	488.0	196.0	479	202	1
2.7	2015_Jun_02_1448	s	s	20	2	SIC	259	ABS	1	2	02VD 02VO 02VC 10MD 02MO 02MC 02RD 02RO	0	1	1.60695290565	None	None	None	None	1
2.7	2015_Jun_02_1448	s	s	20	2	SIC	260	ABS	0	2	02VD 02VO 02VC 02MD 02MO 02MC 10RD 02RO	0	1	1.94842290878	None	None	None	None	1
2.7	2015_Jun_02_1448	s	s	20	2	SIC	261	RC	2	2	09VD 02VO 02VC 02MD 02MO 02MC 02RD 02RO	1	0	0.878547906876	118.0	117.0	124	117	1
2.7	2015_Jun_02_1448	s	s	20	2	SIC	262	RC	1	1	02VD 02VO 02VC 02MD 09MO 02MC 02RD 02RO	1	0	1.03012609482	163.0	408.0	173	409	1
2.7	2015_Jun_02_1448	s	s	20	2	SIC	263	ABS	0	1	02VD 02VO 02VC 02MD 02MO 02MC 02RD 10RO	0	1	2.41606593132	None	None	None	None	1
2.7	2015_Jun_02_1448	s	s	20	2	SIC	264	RC	1	2	02VD 02VO 02VC 09MD 02MO 02MC 02RD 02RO	1	0	0.794845104218	-264.0	130.0	-261	128	1
2.7	2015_Jun_02_1448	s	s	20	2	SIC	265	RC	1	0	02VD 02VO 02VC 02MD 02MO 09MC 02RD 02RO	0	1	2.71339392662	-420.0	114.0	None	None	0
2.7	2015_Jun_02_1448	s	s	20	2	SIC	266	RC	2	1	02VD 09VO 02VC 02MD 02MO 02MC 02RD 02RO	1	0	0.912617921829	132.0	-262.0	128	-257	1
2.7	2015_Jun_02_1448	s	s	20	2	SIC	267	ABS	2	2	10VD 02VO 02VC 02MD 02MO 02MC 02RD 02RO	0	1	1.50094890594	None	None	None	None	1
2.7	2015_Jun_02_1448	s	s	20	2	SIC	268	ABS	1	1	02VD 02VO 02VC 02MD 10MO 02MC 02RD 02RO	0	1	2.077491045	None	None	None	None	1
2.7	2015_Jun_02_1448	s	s	20	2	SIC	269	ABS	1	0	02VD 02VO 02VC 02MD 02MO 10MC 02RD 02RO	0	1	3.02449011803	None	None	None	None	1
2.7	2015_Jun_02_1448	s	s	20	2	SIC	270	RC	2	0	02VD 02VO 09VC 02MD 02MO 02MC 02RD 02RO	1	0	1.08225011826	-261.0	-387.0	-254	-389	1
2.7	2015_Jun_02_1448	s	s	20	2	SIC	271	ABS	2	1	02VD 10VO 02VC 02MD 02MO 02MC 02RD 02RO	0	1	1.70113921165	None	None	None	None	1
2.7	2015_Jun_02_1448	s	s	20	2	SIC	272	ABS	2	0	02VD 02VO 10VC 02MD 02MO 02MC 02RD 02RO	0	1	1.6306040287	None	None	None	None	1
2.7	2015_Jun_02_1448	s	s	20	2	SIC	273	RC	0	1	02VD 02VO 02VC 02MD 02MO 02MC 02RD 09RO	1	0	2.6900100708	432.0	393.0	432	386	1
2.7	2015_Jun_02_1448	s	s	20	2	SIC	274	RC	2	0	02VD 02VO 09VC 02MD 02MO 02MC 02RD 02RO	1	0	0.74773812294	-239.0	93.0	-246	86	1
2.7	2015_Jun_02_1448	s	s	20	2	SIC	275	ABS	1	1	02VD 02VO 02VC 02MD 10MO 02MC 02RD 02RO	0	1	1.39362812042	None	None	None	None	1
2.7	2015_Jun_02_1448	s	s	20	2	SIC	276	ABS	0	1	02VD 02VO 02VC 02MD 02MO 02MC 02RD 10RO	0	1	4.4957318306	None	None	None	None	1
2.7	2015_Jun_02_1448	s	s	20	2	SIC	277	ABS	2	2	10VD 02VO 02VC 02MD 02MO 02MC 02RD 02RO	0	1	2.74606704712	None	None	None	None	1
2.7	2015_Jun_02_1448	s	s	20	2	SIC	278	RC	2	2	09VD 02VO 02VC 02MD 02MO 02MC 02RD 02RO	1	0	1.82093095779	-441.0	245.0	-439	242	1
2.7	2015_Jun_02_1448	s	s	20	2	SIC	279	RC	2	1	02VD 09VO 02VC 02MD 02MO 02MC 02RD 02RO	1	0	1.61915206909	305.0	363.0	309	361	1
2.7	2015_Jun_02_1448	s	s	20	2	SIC	280	RC	0	2	02VD 02VO 02VC 02MD 02MO 02MC 09RD 02RO	1	0	0.74786400795	-338.0	-262.0	-334	-270	1
2.7	2015_Jun_02_1448	s	s	20	2	SIC	281	ABS	0	2	02VD 02VO 02VC 02MD 02MO 02MC 10RD 02RO	1	0	1.98855996132	None	None	-258	131	0
2.7	2015_Jun_02_1448	s	s	20	2	SIC	282	RC	1	0	02VD 02VO 02VC 02MD 02MO 09MC 02RD 02RO	1	0	0.98267698288	-523.0	-79.0	-519	-77	1
2.7	2015_Jun_02_1448	s	s	20	2	SIC	283	RC	1	1	02VD 02VO 02VC 02MD 09MO 02MC 02RD 02RO	1	0	2.19554209709	200.0	361.0	193	360	1
2.7	2015_Jun_02_1448	s	s	20	2	SIC	284	RC	1	2	02VD 02VO 02VC 09MD 02MO 02MC 02RD 02RO	1	0	1.41819000244	-353.0	-74.0	-349	-71	1
2.7	2015_Jun_02_1448	s	s	20	2	SIC	285	ABS	2	0	02VD 02VO 10VC 02MD 02MO 02MC 02RD 02RO	0	1	1.61785006523	None	None	None	None	1
2.7	2015_Jun_02_1448	s	s	20	2	SIC	286	ABS	2	1	02VD 10VO 02VC 02MD 02MO 02MC 02RD 02RO	0	1	1.43081092834	None	None	None	None	1
2.7	2015_Jun_02_1448	s	s	20	2	SIC	287	ABS	1	0	02VD 02VO 02VC 02MD 02MO 10MC 02RD 02RO	1	0	1.4118039608	None	None	505	-396	0
2.7	2015_Jun_02_1448	s	s	20	2	SIC	288	ABS	1	2	02VD 02VO 02VC 10MD 02MO 02MC 02RD 02RO	0	1	1.72477221489	None	None	None	None	1
2.7	2015_Jun_02_1448	s	s	20	2	SIC	289	RC	1	1	02VD 02VO 02VC 02MD 09MO 02MC 02RD 02RO	1	0	1.21840405464	-462.0	407.0	-456	409	1
2.7	2015_Jun_02_1448	s	s	20	2	SIC	290	RC	2	2	09VD 02VO 02VC 02MD 02MO 02MC 02RD 02RO	1	0	1.30623006821	504.0	-256.0	506	-252	1
2.7	2015_Jun_02_1448	s	s	20	2	SIC	291	ABS	0	1	02VD 02VO 02VC 02MD 02MO 02MC 02RD 10RO	0	1	3.31352996826	None	None	None	None	1
2.7	2015_Jun_02_1448	s	s	20	2	SIC	292	RC	0	2	02VD 02VO 02VC 02MD 02MO 02MC 09RD 02RO	1	0	0.96456193924	87.0	178.0	86	173	1
2.7	2015_Jun_02_1448	s	s	20	2	SIC	293	ABS	2	0	02VD 02VO 10VC 02MD 02MO 02MC 02RD 02RO	0	1	1.72967481613	None	None	None	None	1
2.7	2015_Jun_02_1448	s	s	20	2	SIC	294	RC	2	1	02VD 09VO 02VC 02MD 02MO 02MC 02RD 02RO	1	0	0.834999799728	323.0	96.0	317	92	1
2.7	2015_Jun_02_1448	s	s	20	2	SIC	295	ABS	2	1	02VD 10VO 02VC 02MD 02MO 02MC 02RD 02RO	0	1	2.03062987328	None	None	None	None	1
2.7	2015_Jun_02_1448	s	s	20	2	SIC	296	ABS	0	2	02VD 02VO 02VC 02MD 02MO 02MC 10RD 02RO	1	0	1.58347582817	None	None	-219	300	0
2.7	2015_Jun_02_1448	s	s	20	2	SIC	297	RC	2	0	02VD 02VO 09VC 02MD 02MO 02MC 02RD 02RO	0	1	1.91792297363	-237.0	-69.0	None	None	0
2.7	2015_Jun_02_1448	s	s	20	2	SIC	298	ABS	1	1	02VD 02VO 02VC 02MD 10MO 02MC 02RD 02RO	0	1	2.60753297806	None	None	None	None	1
2.7	2015_Jun_02_1448	s	s	20	2	SIC	299	RC	0	1	02VD 02VO 02VC 02MD 02MO 02MC 02RD 09RO	1	0	1.34123587608	-248.0	14.0	-251	8	1
2.7	2015_Jun_02_1448	s	s	20	2	SIC	300	ABS	1	0	02VD 02VO 02VC 02MD 02MO 10MC 02RD 02RO	0	1	1.67078185081	None	None	None	None	1
2.7	2015_Jun_02_1448	s	s	20	2	SIC	301	ABS	2	2	10VD 02VO 02VC 02MD 02MO 02MC 02RD 02RO	0	1	1.65905284882	None	None	None	None	1
2.7	2015_Jun_02_1448	s	s	20	2	SIC	302	RC	1	0	02VD 02VO 02VC 02MD 02MO 09MC 02RD 02RO	1	0	1.17145204544	52.0	227.0	57	222	1
2.7	2015_Jun_02_1448	s	s	20	2	SIC	303	RC	1	2	02VD 02VO 02VC 09MD 02MO 02MC 02RD 02RO	1	0	1.36029195786	-452.0	-347.0	-463	-340	1
2.7	2015_Jun_02_1448	s	s	20	2	SIC	304	ABS	1	2	02VD 02VO 02VC 10MD 02MO 02MC 02RD 02RO	0	1	2.15343904495	None	None	None	None	1
2.7	2015_Jun_02_1448	s	s	20	2	SIC	305	RC	1	2	02VD 02VO 02VC 09MD 02MO 02MC 02RD 02RO	1	0	0.846845149994	-40.0	-324.0	-37	-321	1
2.7	2015_Jun_02_1448	s	s	20	2	SIC	306	RC	2	1	02VD 09VO 02VC 02MD 02MO 02MC 02RD 02RO	1	0	0.70072221756	242.0	-199.0	233	-203	1
2.7	2015_Jun_02_1448	s	s	20	2	SIC	307	ABS	1	1	02VD 02VO 02VC 02MD 10MO 02MC 02RD 02RO	0	1	2.16145300865	None	None	None	None	1
2.7	2015_Jun_02_1448	s	s	20	2	SIC	308	RC	1	1	02VD 02VO 02VC 02MD 09MO 02MC 02RD 02RO	1	0	0.729143857956	183.0	64.0	181	69	1
2.7	2015_Jun_02_1448	s	s	20	2	SIC	309	ABS	2	0	02VD 02VO 10VC 02MD 02MO 02MC 02RD 02RO	0	1	2.10122895241	None	None	None	None	1
2.7	2015_Jun_02_1448	s	s	20	2	SIC	310	RC	1	0	02VD 02VO 02VC 02MD 02MO 09MC 02RD 02RO	1	0	0.846791982651	68.0	358.0	80	365	1
2.7	2015_Jun_02_1448	s	s	20	2	SIC	311	RC	2	0	02VD 02VO 09VC 02MD 02MO 02MC 02RD 02RO	1	0	0.702970981598	-150.0	310.0	-150	310	1
2.7	2015_Jun_02_1448	s	s	20	2	SIC	312	RC	0	2	02VD 02VO 02VC 02MD 02MO 02MC 09RD 02RO	1	0	0.8703789711	189.0	135.0	183	140	1
2.7	2015_Jun_02_1448	s	s	20	2	SIC	313	RC	2	2	09VD 02VO 02VC 02MD 02MO 02MC 02RD 02RO	0	1	1.43017101288	-438.0	371.0	None	None	0
2.7	2015_Jun_02_1448	s	s	20	2	SIC	314	ABS	0	1	02VD 02VO 02VC 02MD 02MO 02MC 02RD 10RO	0	1	3.73518300056	None	None	None	None	1
2.7	2015_Jun_02_1448	s	s	20	2	SIC	315	ABS	2	2	10VD 02VO 02VC 02MD 02MO 02MC 02RD 02RO	0	1	2.13662099838	None	None	None	None	1
2.7	2015_Jun_02_1448	s	s	20	2	SIC	316	ABS	0	2	02VD 02VO 02VC 02MD 02MO 02MC 10RD 02RO	0	1	2.13652610779	None	None	None	None	1
2.7	2015_Jun_02_1448	s	s	20	2	SIC	317	ABS	2	1	02VD 10VO 02VC 02MD 02MO 02MC 02RD 02RO	0	1	2.2004609108	None	None	None	None	1
2.7	2015_Jun_02_1448	s	s	20	2	SIC	318	ABS	1	0	02VD 02VO 02VC 02MD 02MO 10MC 02RD 02RO	0	1	2.91357207298	None	None	None	None	1
2.7	2015_Jun_02_1448	s	s	20	2	SIC	319	ABS	1	2	02VD 02VO 02VC 10MD 02MO 02MC 02RD 02RO	0	1	1.77669882774	None	None	None	None	1
2.7	2015_Jun_02_1448	s	s	20	2	SIC	320	RC	0	1	02VD 02VO 02VC 02MD 02MO 02MC 02RD 09RO	1	0	0.976173877716	259.0	50.0	251	57	1
2.7	2015_Jun_02_1448	s	s	20	2	SIC	321	RC	1	1	02VD 02VO 02VC 02MD 09MO 02MC 02RD 02RO	1	0	0.926661014557	-323.0	15.0	-314	23	1
2.7	2015_Jun_02_1448	s	s	20	2	SIC	322	RC	0	1	02VD 02VO 02VC 02MD 02MO 02MC 02RD 09RO	1	0	0.797224998474	311.0	46.0	301	47	1
2.7	2015_Jun_02_1448	s	s	20	2	SIC	323	RC	2	1	02VD 09VO 02VC 02MD 02MO 02MC 02RD 02RO	1	0	0.740897893906	462.0	-166.0	449	-158	1
2.7	2015_Jun_02_1448	s	s	20	2	SIC	324	ABS	0	1	02VD 02VO 02VC 02MD 02MO 02MC 02RD 10RO	0	1	4.02490901947	None	None	None	None	1
2.7	2015_Jun_02_1448	s	s	20	2	SIC	325	RC	2	2	09VD 02VO 02VC 02MD 02MO 02MC 02RD 02RO	1	0	1.17159199715	398.0	129.0	397	132	1
2.7	2015_Jun_02_1448	s	s	20	2	SIC	326	RC	1	0	02VD 02VO 02VC 02MD 02MO 09MC 02RD 02RO	0	1	1.98857808113	493.0	187.0	None	None	0
2.7	2015_Jun_02_1448	s	s	20	2	SIC	327	ABS	1	0	02VD 02VO 02VC 02MD 02MO 10MC 02RD 02RO	0	1	2.75364613533	None	None	None	None	1
2.7	2015_Jun_02_1448	s	s	20	2	SIC	328	ABS	1	1	02VD 02VO 02VC 02MD 10MO 02MC 02RD 02RO	0	1	2.61243987083	None	None	None	None	1
2.7	2015_Jun_02_1448	s	s	20	2	SIC	329	ABS	1	2	02VD 02VO 02VC 10MD 02MO 02MC 02RD 02RO	0	1	1.7476348877	None	None	None	None	1
2.7	2015_Jun_02_1448	s	s	20	2	SIC	330	RC	0	2	02VD 02VO 02VC 02MD 02MO 02MC 09RD 02RO	1	0	1.21166110039	-243.0	-226.0	-249	-234	1
2.7	2015_Jun_02_1448	s	s	20	2	SIC	331	RC	2	0	02VD 02VO 09VC 02MD 02MO 02MC 02RD 02RO	1	0	0.947178840637	329.0	-61.0	322	-56	1
2.7	2015_Jun_02_1448	s	s	20	2	SIC	332	RC	1	2	02VD 02VO 02VC 09MD 02MO 02MC 02RD 02RO	1	0	1.58842301369	-134.0	83.0	-139	78	1
2.7	2015_Jun_02_1448	s	s	20	2	SIC	333	ABS	0	2	02VD 02VO 02VC 02MD 02MO 02MC 10RD 02RO	0	1	2.00033593178	None	None	None	None	1
2.7	2015_Jun_02_1448	s	s	20	2	SIC	334	ABS	2	2	10VD 02VO 02VC 02MD 02MO 02MC 02RD 02RO	0	1	1.90622711182	None	None	None	None	1
2.7	2015_Jun_02_1448	s	s	20	2	SIC	335	ABS	2	0	02VD 02VO 10VC 02MD 02MO 02MC 02RD 02RO	0	1	2.11808109283	None	None	None	None	1
2.7	2015_Jun_02_1448	s	s	20	2	SIC	336	ABS	2	1	02VD 10VO 02VC 02MD 02MO 02MC 02RD 02RO	0	1	1.65905094147	None	None	None	None	1
2.7	2015_Jun_02_1448	s	s	20	2	SIC	337	ABS	2	0	02VD 02VO 10VC 02MD 02MO 02MC 02RD 02RO	1	0	6.19067406654	None	None	301	-387	0
2.7	2015_Jun_02_1448	s	s	20	2	SIC	338	RC	2	1	02VD 09VO 02VC 02MD 02MO 02MC 02RD 02RO	1	0	1.56482887268	60.0	382.0	59	383	1
2.7	2015_Jun_02_1448	s	s	20	2	SIC	339	ABS	2	1	02VD 10VO 02VC 02MD 02MO 02MC 02RD 02RO	0	1	1.57659482956	None	None	None	None	1
2.7	2015_Jun_02_1448	s	s	20	2	SIC	340	RC	2	0	02VD 02VO 09VC 02MD 02MO 02MC 02RD 02RO	1	0	1.38832402229	307.0	242.0	314	241	1
2.7	2015_Jun_02_1448	s	s	20	2	SIC	341	ABS	0	1	02VD 02VO 02VC 02MD 02MO 02MC 02RD 10RO	0	1	3.21967697144	None	None	None	None	1
2.7	2015_Jun_02_1448	s	s	20	2	SIC	342	ABS	1	2	02VD 02VO 02VC 10MD 02MO 02MC 02RD 02RO	0	1	2.11807703972	None	None	None	None	1
2.7	2015_Jun_02_1448	s	s	20	2	SIC	343	RC	0	1	02VD 02VO 02VC 02MD 02MO 02MC 02RD 09RO	1	0	1.47739887238	336.0	-305.0	336	-304	1
2.7	2015_Jun_02_1448	s	s	20	2	SIC	344	RC	1	0	02VD 02VO 02VC 02MD 02MO 09MC 02RD 02RO	1	0	1.47741293907	403.0	104.0	407	96	1
2.7	2015_Jun_02_1448	s	s	20	2	SIC	345	ABS	0	2	02VD 02VO 02VC 02MD 02MO 02MC 10RD 02RO	0	1	2.71823596954	None	None	None	None	1
2.7	2015_Jun_02_1448	s	s	20	2	SIC	346	RC	1	2	02VD 02VO 02VC 09MD 02MO 02MC 02RD 02RO	1	0	0.864794969559	116.0	-321.0	112	-315	1
2.7	2015_Jun_02_1448	s	s	20	2	SIC	347	RC	2	2	09VD 02VO 02VC 02MD 02MO 02MC 02RD 02RO	1	0	0.890646219254	-107.0	-14.0	-106	-15	1
2.7	2015_Jun_02_1448	s	s	20	2	SIC	348	ABS	2	2	10VD 02VO 02VC 02MD 02MO 02MC 02RD 02RO	0	1	2.3838698864	None	None	None	None	1
2.7	2015_Jun_02_1448	s	s	20	2	SIC	349	RC	1	1	02VD 02VO 02VC 02MD 09MO 02MC 02RD 02RO	1	0	0.952605009079	339.0	-163.0	350	-163	1
2.7	2015_Jun_02_1448	s	s	20	2	SIC	350	ABS	1	0	02VD 02VO 02VC 02MD 02MO 10MC 02RD 02RO	0	1	3.53752803802	None	None	None	None	1
2.7	2015_Jun_02_1448	s	s	20	2	SIC	351	ABS	1	1	02VD 02VO 02VC 02MD 10MO 02MC 02RD 02RO	0	1	4.02905297279	None	None	None	None	1
2.7	2015_Jun_02_1448	s	s	20	2	SIC	352	RC	0	2	02VD 02VO 02VC 02MD 02MO 02MC 09RD 02RO	1	0	1.76494312286	325.0	164.0	329	158	1
2.7	2015_Jun_02_1448	s	s	20	2	SIC	353	RC	1	2	02VD 02VO 02VC 09MD 02MO 02MC 02RD 02RO	1	0	1.40672183037	-160.0	327.0	-171	334	1
2.7	2015_Jun_02_1448	s	s	20	2	SIC	354	RC	2	2	09VD 02VO 02VC 02MD 02MO 02MC 02RD 02RO	1	0	0.549306869507	-129.0	-51.0	-131	-51	1
2.7	2015_Jun_02_1448	s	s	20	2	SIC	355	RC	2	0	02VD 02VO 09VC 02MD 02MO 02MC 02RD 02RO	1	0	0.510036945343	17.0	-146.0	16	-144	1
2.7	2015_Jun_02_1448	s	s	20	2	SIC	356	ABS	1	2	02VD 02VO 02VC 10MD 02MO 02MC 02RD 02RO	0	1	2.69485092163	None	None	None	None	1
2.7	2015_Jun_02_1448	s	s	20	2	SIC	357	RC	0	1	02VD 02VO 02VC 02MD 02MO 02MC 02RD 09RO	1	0	2.18486094475	-46.0	186.0	-44	180	1
2.7	2015_Jun_02_1448	s	s	20	2	SIC	358	RC	2	1	02VD 09VO 02VC 02MD 02MO 02MC 02RD 02RO	1	0	1.83053088188	197.0	-154.0	195	-155	1
2.7	2015_Jun_02_1448	s	s	20	2	SIC	359	ABS	0	1	02VD 02VO 02VC 02MD 02MO 02MC 02RD 10RO	1	0	4.06676006317	None	None	407	-269	0
2.7	2015_Jun_02_1448	s	s	20	2	SIC	360	ABS	0	2	02VD 02VO 02VC 02MD 02MO 02MC 10RD 02RO	0	1	2.25380706787	None	None	None	None	1
2.7	2015_Jun_02_1448	s	s	20	2	SIC	361	ABS	1	0	02VD 02VO 02VC 02MD 02MO 10MC 02RD 02RO	0	1	2.39714813232	None	None	None	None	1
2.7	2015_Jun_02_1448	s	s	20	2	SIC	362	ABS	1	1	02VD 02VO 02VC 02MD 10MO 02MC 02RD 02RO	0	1	2.28282094002	None	None	None	None	1
2.7	2015_Jun_02_1448	s	s	20	2	SIC	363	RC	1	0	02VD 02VO 02VC 02MD 02MO 09MC 02RD 02RO	1	0	2.17328596115	-33.0	129.0	-30	130	1
2.7	2015_Jun_02_1448	s	s	20	2	SIC	364	RC	1	1	02VD 02VO 02VC 02MD 09MO 02MC 02RD 02RO	1	0	1.37134790421	-497.0	102.0	-492	99	1
2.7	2015_Jun_02_1448	s	s	20	2	SIC	365	ABS	2	1	02VD 10VO 02VC 02MD 02MO 02MC 02RD 02RO	0	1	2.11333489418	None	None	None	None	1
2.7	2015_Jun_02_1448	s	s	20	2	SIC	366	RC	0	2	02VD 02VO 02VC 02MD 02MO 02MC 09RD 02RO	1	0	0.900180101395	187.0	-192.0	187	-186	1
2.7	2015_Jun_02_1448	s	s	20	2	SIC	367	ABS	2	2	10VD 02VO 02VC 02MD 02MO 02MC 02RD 02RO	0	1	1.92970705032	None	None	None	None	1
2.7	2015_Jun_02_1448	s	s	20	2	SIC	368	ABS	2	0	02VD 02VO 10VC 02MD 02MO 02MC 02RD 02RO	0	1	1.37687087059	None	None	None	None	1
2.7	2015_Jun_02_1448	s	s	20	2	SIC	369	RC	1	1	02VD 02VO 02VC 02MD 09MO 02MC 02RD 02RO	1	0	0.909834861755	-211.0	-390.0	-205	-392	1
2.7	2015_Jun_02_1448	s	s	20	2	SIC	370	RC	1	0	02VD 02VO 02VC 02MD 02MO 09MC 02RD 02RO	1	0	0.670249938965	128.0	64.0	140	65	1
2.7	2015_Jun_02_1448	s	s	20	2	SIC	371	ABS	1	2	02VD 02VO 02VC 10MD 02MO 02MC 02RD 02RO	0	1	1.84168100357	None	None	None	None	1
2.7	2015_Jun_02_1448	s	s	20	2	SIC	372	ABS	2	1	02VD 10VO 02VC 02MD 02MO 02MC 02RD 02RO	0	1	2.05341291428	None	None	None	None	1
2.7	2015_Jun_02_1448	s	s	20	2	SIC	373	ABS	1	0	02VD 02VO 02VC 02MD 02MO 10MC 02RD 02RO	0	1	2.10655999184	None	None	None	None	1
2.7	2015_Jun_02_1448	s	s	20	2	SIC	374	ABS	2	0	02VD 02VO 10VC 02MD 02MO 02MC 02RD 02RO	0	1	1.56482601166	None	None	None	None	1
2.7	2015_Jun_02_1448	s	s	20	2	SIC	375	ABS	2	2	10VD 02VO 02VC 02MD 02MO 02MC 02RD 02RO	0	1	1.75993299484	None	None	None	None	1
2.7	2015_Jun_02_1448	s	s	20	2	SIC	376	ABS	1	1	02VD 02VO 02VC 02MD 10MO 02MC 02RD 02RO	0	1	1.87763094902	None	None	None	None	1
2.7	2015_Jun_02_1448	s	s	20	2	SIC	377	ABS	0	1	02VD 02VO 02VC 02MD 02MO 02MC 02RD 10RO	0	1	3.26598310471	None	None	None	None	1
2.7	2015_Jun_02_1448	s	s	20	2	SIC	378	RC	0	1	02VD 02VO 02VC 02MD 02MO 02MC 02RD 09RO	0	1	4.13783216476	205.0	228.0	None	None	0
2.7	2015_Jun_02_1448	s	s	20	2	SIC	379	RC	2	2	09VD 02VO 02VC 02MD 02MO 02MC 02RD 02RO	1	0	1.3029692173	-356.0	-198.0	-358	-209	1
2.7	2015_Jun_02_1448	s	s	20	2	SIC	380	RC	1	2	02VD 02VO 02VC 09MD 02MO 02MC 02RD 02RO	1	0	0.853773117065	-65.0	24.0	-53	25	1
2.7	2015_Jun_02_1448	s	s	20	2	SIC	381	ABS	0	2	02VD 02VO 02VC 02MD 02MO 02MC 10RD 02RO	0	1	1.90154886246	None	None	None	None	1
2.7	2015_Jun_02_1448	s	s	20	2	SIC	382	RC	0	2	02VD 02VO 02VC 02MD 02MO 02MC 09RD 02RO	1	0	1.68304109573	-40.0	-291.0	-33	-295	1
2.7	2015_Jun_02_1448	s	s	20	2	SIC	383	RC	2	0	02VD 02VO 09VC 02MD 02MO 02MC 02RD 02RO	1	0	2.20702195168	-304.0	-130.0	-297	-122	1
2.7	2015_Jun_02_1448	s	s	20	2	SIC	384	RC	2	1	02VD 09VO 02VC 02MD 02MO 02MC 02RD 02RO	1	0	0.847123861313	-410.0	-313.0	-402	-318	1
2.7	2015_Jun_02_1448	s	s	20	2	SIC	385	ABS	1	1	02VD 02VO 02VC 02MD 10MO 02MC 02RD 02RO	0	1	2.9486079216	None	None	None	None	1
2.7	2015_Jun_02_1448	s	s	20	2	SIC	386	ABS	2	1	02VD 10VO 02VC 02MD 02MO 02MC 02RD 02RO	0	1	3.00808882713	None	None	None	None	1
2.7	2015_Jun_02_1448	s	s	20	2	SIC	387	RC	1	2	02VD 02VO 02VC 09MD 02MO 02MC 02RD 02RO	1	0	1.18288612366	379.0	-153.0	375	-150	1
2.7	2015_Jun_02_1448	s	s	20	2	SIC	388	RC	2	1	02VD 09VO 02VC 02MD 02MO 02MC 02RD 02RO	1	0	1.90619301796	-512.0	-207.0	-501	-207	1
2.7	2015_Jun_02_1448	s	s	20	2	SIC	389	RC	1	0	02VD 02VO 02VC 02MD 02MO 09MC 02RD 02RO	1	0	1.75997281075	-445.0	85.0	156	391	0
2.7	2015_Jun_02_1448	s	s	20	2	SIC	390	RC	0	2	02VD 02VO 02VC 02MD 02MO 02MC 09RD 02RO	0	1	1.44710803032	-516.0	-248.0	None	None	0
2.7	2015_Jun_02_1448	s	s	20	2	SIC	391	RC	2	0	02VD 02VO 09VC 02MD 02MO 02MC 02RD 02RO	1	0	1.55346488953	-208.0	362.0	-215	356	1
2.7	2015_Jun_02_1448	s	s	20	2	SIC	392	RC	1	1	02VD 02VO 02VC 02MD 09MO 02MC 02RD 02RO	1	0	0.899991989136	352.0	137.0	345	130	1
2.7	2015_Jun_02_1448	s	s	20	2	SIC	393	RC	0	1	02VD 02VO 02VC 02MD 02MO 02MC 02RD 09RO	1	0	0.893938064575	-183.0	-183.0	-181	-179	1
2.7	2015_Jun_02_1448	s	s	20	2	SIC	394	ABS	0	2	02VD 02VO 02VC 02MD 02MO 02MC 10RD 02RO	0	1	1.72732400894	None	None	None	None	1
2.7	2015_Jun_02_1448	s	s	20	2	SIC	395	ABS	2	0	02VD 02VO 10VC 02MD 02MO 02MC 02RD 02RO	0	1	1.524477005	None	None	None	None	1
2.7	2015_Jun_02_1448	s	s	20	2	SIC	396	ABS	1	0	02VD 02VO 02VC 02MD 02MO 10MC 02RD 02RO	0	1	1.96499800682	None	None	None	None	1
2.7	2015_Jun_02_1448	s	s	20	2	SIC	397	ABS	1	2	02VD 02VO 02VC 10MD 02MO 02MC 02RD 02RO	0	1	1.30592012405	None	None	None	None	1
2.7	2015_Jun_02_1448	s	s	20	2	SIC	398	ABS	2	2	10VD 02VO 02VC 02MD 02MO 02MC 02RD 02RO	1	0	1.4942009449	None	None	71	198	0
2.7	2015_Jun_02_1448	s	s	20	2	SIC	399	RC	2	2	09VD 02VO 02VC 02MD 02MO 02MC 02RD 02RO	1	0	1.03520703316	-483.0	-7.0	-481	-9	1
2.7	2015_Jun_02_1448	s	s	20	2	SIC	400	ABS	0	1	02VD 02VO 02VC 02MD 02MO 02MC 02RD 10RO	0	1	3.37179517746	None	None	None	None	1
2.7	2015_Jun_02_1448	s	s	20	2	SIC	401	RC	2	0	02VD 02VO 09VC 02MD 02MO 02MC 02RD 02RO	1	0	1.41161894798	-368.0	269.0	-368	270	1
2.7	2015_Jun_02_1448	s	s	20	2	SIC	402	RC	2	2	09VD 02VO 02VC 02MD 02MO 02MC 02RD 02RO	1	0	1.04691505432	-310.0	-394.0	-300	-389	1
2.7	2015_Jun_02_1448	s	s	20	2	SIC	403	RC	0	1	02VD 02VO 02VC 02MD 02MO 02MC 02RD 09RO	1	0	0.853698015213	-317.0	90.0	-317	91	1
2.7	2015_Jun_02_1448	s	s	20	2	SIC	404	RC	1	0	02VD 02VO 02VC 02MD 02MO 09MC 02RD 02RO	1	0	2.38381099701	-449.0	-406.0	-436	-397	1
2.7	2015_Jun_02_1448	s	s	20	2	SIC	405	RC	1	1	02VD 02VO 02VC 02MD 09MO 02MC 02RD 02RO	1	0	1.27054810524	342.0	-204.0	348	-204	1
2.7	2015_Jun_02_1448	s	s	20	2	SIC	406	RC	0	2	02VD 02VO 02VC 02MD 02MO 02MC 09RD 02RO	1	0	0.846878051758	-25.0	222.0	-22	216	1
2.7	2015_Jun_02_1448	s	s	20	2	SIC	407	ABS	2	0	02VD 02VO 10VC 02MD 02MO 02MC 02RD 02RO	0	1	1.71315097809	None	None	None	None	1
2.7	2015_Jun_02_1448	s	s	20	2	SIC	408	ABS	0	2	02VD 02VO 02VC 02MD 02MO 02MC 10RD 02RO	0	1	1.68628382683	None	None	None	None	1
2.7	2015_Jun_02_1448	s	s	20	2	SIC	409	ABS	0	1	02VD 02VO 02VC 02MD 02MO 02MC 02RD 10RO	0	1	2.85958003998	None	None	None	None	1
2.7	2015_Jun_02_1448	s	s	20	2	SIC	410	ABS	2	2	10VD 02VO 02VC 02MD 02MO 02MC 02RD 02RO	0	1	2.13347601891	None	None	None	None	1
2.7	2015_Jun_02_1448	s	s	20	2	SIC	411	RC	2	1	02VD 09VO 02VC 02MD 02MO 02MC 02RD 02RO	1	0	0.853579998016	69.0	106.0	77	105	1
2.7	2015_Jun_02_1448	s	s	20	2	SIC	412	ABS	2	1	02VD 10VO 02VC 02MD 02MO 02MC 02RD 02RO	0	1	1.67988300323	None	None	None	None	1
2.7	2015_Jun_02_1448	s	s	20	2	SIC	413	RC	1	2	02VD 02VO 02VC 09MD 02MO 02MC 02RD 02RO	0	1	1.74829506874	205.0	242.0	None	None	0
2.7	2015_Jun_02_1448	s	s	20	2	SIC	414	ABS	1	1	02VD 02VO 02VC 02MD 10MO 02MC 02RD 02RO	0	1	3.43378210068	None	None	None	None	1
2.7	2015_Jun_02_1448	s	s	20	2	SIC	415	ABS	1	2	02VD 02VO 02VC 10MD 02MO 02MC 02RD 02RO	0	1	2.43099308014	None	None	None	None	1
2.7	2015_Jun_02_1448	s	s	20	2	SIC	416	ABS	1	0	02VD 02VO 02VC 02MD 02MO 10MC 02RD 02RO	0	1	1.83561515808	None	None	None	None	1
2.7	2015_Jun_02_1448	s	s	20	2	SIC	417	ABS	1	2	02VD 02VO 02VC 10MD 02MO 02MC 02RD 02RO	0	1	1.35314893723	None	None	None	None	1
2.7	2015_Jun_02_1448	s	s	20	2	SIC	418	RC	2	1	02VD 09VO 02VC 02MD 02MO 02MC 02RD 02RO	1	0	1.01169991493	-392.0	-403.0	-399	-401	1
2.7	2015_Jun_02_1448	s	s	20	2	SIC	419	ABS	1	0	02VD 02VO 02VC 02MD 02MO 10MC 02RD 02RO	1	0	2.6101539135	None	None	-424	328	0
2.7	2015_Jun_02_1448	s	s	20	2	SIC	420	ABS	0	2	02VD 02VO 02VC 02MD 02MO 02MC 10RD 02RO	0	1	2.25441002846	None	None	None	None	1
2.7	2015_Jun_02_1448	s	s	20	2	SIC	421	ABS	2	0	02VD 02VO 10VC 02MD 02MO 02MC 02RD 02RO	1	0	1.33613991737	None	None	-362	-85	0
2.7	2015_Jun_02_1448	s	s	20	2	SIC	422	ABS	1	1	02VD 02VO 02VC 02MD 10MO 02MC 02RD 02RO	0	1	2.94731807709	None	None	None	None	1
2.7	2015_Jun_02_1448	s	s	20	2	SIC	423	ABS	0	1	02VD 02VO 02VC 02MD 02MO 02MC 02RD 10RO	0	1	2.96548008919	None	None	None	None	1
2.7	2015_Jun_02_1448	s	s	20	2	SIC	424	RC	2	0	02VD 02VO 09VC 02MD 02MO 02MC 02RD 02RO	1	0	0.651034116745	-65.0	-133.0	-65	-129	1
2.7	2015_Jun_02_1448	s	s	20	2	SIC	425	ABS	2	2	10VD 02VO 02VC 02MD 02MO 02MC 02RD 02RO	0	1	2.59675908089	None	None	None	None	1
2.7	2015_Jun_02_1448	s	s	20	2	SIC	426	RC	1	1	02VD 02VO 02VC 02MD 09MO 02MC 02RD 02RO	1	0	0.973086118698	-345.0	-180.0	-355	-181	1
2.7	2015_Jun_02_1448	s	s	20	2	SIC	427	ABS	2	1	02VD 10VO 02VC 02MD 02MO 02MC 02RD 02RO	0	1	1.64717698097	None	None	None	None	1
2.7	2015_Jun_02_1448	s	s	20	2	SIC	428	RC	1	2	02VD 02VO 02VC 09MD 02MO 02MC 02RD 02RO	1	0	0.847044944763	-6.0	-296.0	-4	-287	1
2.7	2015_Jun_02_1448	s	s	20	2	SIC	429	RC	1	0	02VD 02VO 02VC 02MD 02MO 09MC 02RD 02RO	1	0	0.747692108154	-216.0	-23.0	-229	-20	1
2.7	2015_Jun_02_1448	s	s	20	2	SIC	430	RC	0	1	02VD 02VO 02VC 02MD 02MO 02MC 02RD 09RO	1	0	1.60018706322	164.0	78.0	171	81	1
2.7	2015_Jun_02_1448	s	s	20	2	SIC	431	RC	2	2	09VD 02VO 02VC 02MD 02MO 02MC 02RD 02RO	1	0	0.529078006744	-86.0	64.0	-85	61	1
2.7	2015_Jun_02_1448	s	s	20	2	SIC	432	RC	0	2	02VD 02VO 02VC 02MD 02MO 02MC 09RD 02RO	1	0	1.00587296486	-52.0	230.0	-52	232	1
2.7	2015_Jun_02_1448	s	s	20	2	SIC	433	ABS	2	1	02VD 10VO 02VC 02MD 02MO 02MC 02RD 02RO	0	1	1.55310606956	None	None	None	None	1
2.7	2015_Jun_02_1448	s	s	20	2	SIC	434	RC	1	1	02VD 02VO 02VC 02MD 09MO 02MC 02RD 02RO	1	0	0.914639949799	0.0	170.0	-7	170	1
2.7	2015_Jun_02_1448	s	s	20	2	SIC	435	RC	0	2	02VD 02VO 02VC 02MD 02MO 02MC 09RD 02RO	0	1	1.55302405357	-498.0	157.0	None	None	0
2.7	2015_Jun_02_1448	s	s	20	2	SIC	436	RC	2	0	02VD 02VO 09VC 02MD 02MO 02MC 02RD 02RO	1	0	1.07511401176	-166.0	-225.0	-175	-227	1
2.7	2015_Jun_02_1448	s	s	20	2	SIC	437	ABS	1	0	02VD 02VO 02VC 02MD 02MO 10MC 02RD 02RO	0	1	3.17254114151	None	None	None	None	1
2.7	2015_Jun_02_1448	s	s	20	2	SIC	438	RC	1	2	02VD 02VO 02VC 09MD 02MO 02MC 02RD 02RO	1	0	0.818379163742	295.0	-287.0	293	-281	1
2.7	2015_Jun_02_1448	s	s	20	2	SIC	439	ABS	0	2	02VD 02VO 02VC 02MD 02MO 02MC 10RD 02RO	0	1	1.81203007698	None	None	None	None	1
2.7	2015_Jun_02_1448	s	s	20	2	SIC	440	RC	2	2	09VD 02VO 02VC 02MD 02MO 02MC 02RD 02RO	1	0	1.7062690258	396.0	-348.0	391	-348	1
2.7	2015_Jun_02_1448	s	s	20	2	SIC	441	ABS	0	1	02VD 02VO 02VC 02MD 02MO 02MC 02RD 10RO	0	1	3.91402816772	None	None	None	None	1
2.7	2015_Jun_02_1448	s	s	20	2	SIC	442	ABS	2	2	10VD 02VO 02VC 02MD 02MO 02MC 02RD 02RO	0	1	2.05927586555	None	None	None	None	1
2.7	2015_Jun_02_1448	s	s	20	2	SIC	443	RC	0	1	02VD 02VO 02VC 02MD 02MO 02MC 02RD 09RO	1	0	1.23526406288	110.0	-325.0	105	-324	1
2.7	2015_Jun_02_1448	s	s	20	2	SIC	444	ABS	1	2	02VD 02VO 02VC 10MD 02MO 02MC 02RD 02RO	0	1	1.51782083511	None	None	None	None	1
2.7	2015_Jun_02_1448	s	s	20	2	SIC	445	RC	1	0	02VD 02VO 02VC 02MD 02MO 09MC 02RD 02RO	1	0	1.36475801468	-271.0	-334.0	-273	-337	1
2.7	2015_Jun_02_1448	s	s	20	2	SIC	446	ABS	2	0	02VD 02VO 10VC 02MD 02MO 02MC 02RD 02RO	0	1	1.63548707962	None	None	None	None	1
2.7	2015_Jun_02_1448	s	s	20	2	SIC	447	ABS	1	1	02VD 02VO 02VC 02MD 10MO 02MC 02RD 02RO	0	1	1.81199288368	None	None	None	None	1
2.7	2015_Jun_02_1448	s	s	20	2	SIC	448	RC	2	1	02VD 09VO 02VC 02MD 02MO 02MC 02RD 02RO	1	0	0.655961990356	82.0	-55.0	91	-48	1
2.7	2015_Jun_02_1448	s	s	20	2	SIC	449	ABS	1	1	02VD 02VO 02VC 02MD 10MO 02MC 02RD 02RO	0	1	2.97225594521	None	None	None	None	1
2.7	2015_Jun_02_1448	s	s	20	2	SIC	450	ABS	0	2	02VD 02VO 02VC 02MD 02MO 02MC 10RD 02RO	0	1	1.51783418655	None	None	None	None	1
2.7	2015_Jun_02_1448	s	s	20	2	SIC	451	RC	0	2	02VD 02VO 02VC 02MD 02MO 02MC 09RD 02RO	1	0	1.9731490612	-494.0	253.0	-498	251	1
2.7	2015_Jun_02_1448	s	s	20	2	SIC	452	ABS	2	2	10VD 02VO 02VC 02MD 02MO 02MC 02RD 02RO	0	1	1.67076301575	None	None	None	None	1
2.7	2015_Jun_02_1448	s	s	20	2	SIC	453	RC	2	2	09VD 02VO 02VC 02MD 02MO 02MC 02RD 02RO	1	0	1.32942008972	477.0	38.0	473	40	1
2.7	2015_Jun_02_1448	s	s	20	2	SIC	454	RC	1	1	02VD 02VO 02VC 02MD 09MO 02MC 02RD 02RO	1	0	0.795814037323	375.0	-137.0	378	-132	1
2.7	2015_Jun_02_1448	s	s	20	2	SIC	455	RC	1	0	02VD 02VO 02VC 02MD 02MO 09MC 02RD 02RO	1	0	1.51269316673	-173.0	-356.0	-172	-357	1
2.7	2015_Jun_02_1448	s	s	20	2	SIC	456	ABS	0	1	02VD 02VO 02VC 02MD 02MO 02MC 02RD 10RO	0	1	3.70706796646	None	None	None	None	1
2.7	2015_Jun_02_1448	s	s	20	2	SIC	457	RC	2	0	02VD 02VO 09VC 02MD 02MO 02MC 02RD 02RO	1	0	0.60710310936	-137.0	-111.0	-134	-112	1
2.7	2015_Jun_02_1448	s	s	20	2	SIC	458	ABS	2	1	02VD 10VO 02VC 02MD 02MO 02MC 02RD 02RO	0	1	2.06547498703	None	None	None	None	1
2.7	2015_Jun_02_1448	s	s	20	2	SIC	459	RC	2	1	02VD 09VO 02VC 02MD 02MO 02MC 02RD 02RO	1	0	2.98912000656	-500.0	369.0	-505	359	1
2.7	2015_Jun_02_1448	s	s	20	2	SIC	460	RC	1	2	02VD 02VO 02VC 09MD 02MO 02MC 02RD 02RO	1	0	0.817701816559	-363.0	27.0	-364	22	1
2.7	2015_Jun_02_1448	s	s	20	2	SIC	461	RC	0	1	02VD 02VO 02VC 02MD 02MO 02MC 02RD 09RO	1	0	2.1533639431	-473.0	-390.0	-469	-393	1
2.7	2015_Jun_02_1448	s	s	20	2	SIC	462	ABS	2	0	02VD 02VO 10VC 02MD 02MO 02MC 02RD 02RO	0	1	2.49469280243	None	None	None	None	1
2.7	2015_Jun_02_1448	s	s	20	2	SIC	463	ABS	1	0	02VD 02VO 02VC 02MD 02MO 10MC 02RD 02RO	0	1	2.51827096939	None	None	None	None	1
2.7	2015_Jun_02_1448	s	s	20	2	SIC	464	ABS	1	2	02VD 02VO 02VC 10MD 02MO 02MC 02RD 02RO	0	1	1.66573405266	None	None	None	None	1
2.7	2015_Jun_02_1448	s	s	20	2	SIC	465	RC	0	1	02VD 02VO 02VC 02MD 02MO 02MC 02RD 09RO	1	0	2.48966693878	483.0	149.0	486	150	1
2.7	2015_Jun_02_1448	s	s	20	2	SIC	466	ABS	2	2	10VD 02VO 02VC 02MD 02MO 02MC 02RD 02RO	0	1	1.40009880066	None	None	None	None	1
2.7	2015_Jun_02_1448	s	s	20	2	SIC	467	RC	0	2	02VD 02VO 02VC 02MD 02MO 02MC 09RD 02RO	1	0	1.87685990334	-276.0	408.0	-272	410	1
2.7	2015_Jun_02_1448	s	s	20	2	SIC	468	RC	1	2	02VD 02VO 02VC 09MD 02MO 02MC 02RD 02RO	1	0	0.811578035355	-285.0	-83.0	-282	-77	1
2.7	2015_Jun_02_1448	s	s	20	2	SIC	469	ABS	2	0	02VD 02VO 10VC 02MD 02MO 02MC 02RD 02RO	0	1	1.42357110977	None	None	None	None	1
2.7	2015_Jun_02_1448	s	s	20	2	SIC	470	RC	2	1	02VD 09VO 02VC 02MD 02MO 02MC 02RD 02RO	1	0	1.10612916946	-216.0	-365.0	-215	-364	1
2.7	2015_Jun_02_1448	s	s	20	2	SIC	471	RC	2	0	02VD 02VO 09VC 02MD 02MO 02MC 02RD 02RO	1	0	1.31824398041	-524.0	218.0	-515	215	1
2.7	2015_Jun_02_1448	s	s	20	2	SIC	472	ABS	0	1	02VD 02VO 02VC 02MD 02MO 02MC 02RD 10RO	0	1	3.06650614738	None	None	None	None	1
2.7	2015_Jun_02_1448	s	s	20	2	SIC	473	ABS	1	2	02VD 02VO 02VC 10MD 02MO 02MC 02RD 02RO	0	1	2.25359392166	None	None	None	None	1
2.7	2015_Jun_02_1448	s	s	20	2	SIC	474	RC	1	1	02VD 02VO 02VC 02MD 09MO 02MC 02RD 02RO	1	0	1.18816900253	395.0	-109.0	392	-103	1
2.7	2015_Jun_02_1448	s	s	20	2	SIC	475	ABS	1	1	02VD 02VO 02VC 02MD 10MO 02MC 02RD 02RO	0	1	2.45431995392	None	None	None	None	1
2.7	2015_Jun_02_1448	s	s	20	2	SIC	476	RC	1	0	02VD 02VO 02VC 02MD 02MO 09MC 02RD 02RO	1	0	1.49420404434	-54.0	273.0	-58	264	1
2.7	2015_Jun_02_1448	s	s	20	2	SIC	477	RC	2	2	09VD 02VO 02VC 02MD 02MO 02MC 02RD 02RO	1	0	1.3597548008	-354.0	139.0	-350	148	1
2.7	2015_Jun_02_1448	s	s	20	2	SIC	478	ABS	2	1	02VD 10VO 02VC 02MD 02MO 02MC 02RD 02RO	0	1	1.6944000721	None	None	None	None	1
2.7	2015_Jun_02_1448	s	s	20	2	SIC	479	ABS	1	0	02VD 02VO 02VC 02MD 02MO 10MC 02RD 02RO	0	1	2.70659613609	None	None	None	None	1
2.7	2015_Jun_02_1448	s	s	20	2	SIC	480	ABS	0	2	02VD 02VO 02VC 02MD 02MO 02MC 10RD 02RO	0	1	1.85433793068	None	None	None	None	1
