Version	Date	Stimuli	Method	Subject	Session	Condition	Trial	Target	Channel1	Channel2	Distractors	LMouseButton	RMouseButton	RT	TargetX	TargetY	ResponseX	ResponseY	Correct
2.7	2015_Jun_05_0912	s	s	20	5	Capacity	1	RC	0	2	15RD 08RO	1	0	1.78295516968	336.0	-328.0	335	-337	1
2.7	2015_Jun_05_0912	s	s	20	5	Capacity	2	ABS	0	2	16RD 08RO	0	1	2.16031312943	None	None	None	None	1
2.7	2015_Jun_05_0912	s	s	20	5	Capacity	3	ABS	0	1	08RD 16RO	0	1	3.92432808876	None	None	None	None	1
2.7	2015_Jun_05_0912	s	s	20	5	Capacity	4	RC	0	1	08RD 15RO	1	0	2.28938508034	-144.0	380.0	-140	387	1
2.7	2015_Jun_05_0912	s	s	20	5	Capacity	5	RC	0	2	15RD 08RO	1	0	1.75320386887	494.0	-336.0	493	-329	1
2.7	2015_Jun_05_0912	s	s	20	5	Capacity	6	ABS	0	2	16RD 08RO	0	1	3.00774884224	None	None	None	None	1
2.7	2015_Jun_05_0912	s	s	20	5	Capacity	7	ABS	0	1	08RD 16RO	0	1	5.10151410103	None	None	None	None	1
2.7	2015_Jun_05_0912	s	s	20	5	Capacity	8	RC	0	1	08RD 15RO	1	0	0.594747781754	-68.0	26.0	-77	23	1
2.7	2015_Jun_05_0912	s	s	20	5	Capacity	9	RC	0	2	15RD 08RO	1	0	0.61129283905	-38.0	-123.0	-32	-122	1
2.7	2015_Jun_05_0912	s	s	20	5	Capacity	10	RC	0	1	08RD 15RO	1	0	1.4202029705	511.0	-146.0	510	-142	1
2.7	2015_Jun_05_0912	s	s	20	5	Capacity	11	ABS	0	1	08RD 16RO	0	0	-1	None	None	None	None	-1
2.7	2015_Jun_05_0912	s	s	20	5	Capacity	12	ABS	0	2	16RD 08RO	0	1	2.7622718811	None	None	None	None	1
2.7	2015_Jun_05_0912	s	s	20	5	Capacity	13	ABS	0	1	08RD 16RO	0	1	4.87228798866	None	None	None	None	1
2.7	2015_Jun_05_0912	s	s	20	5	Capacity	14	RC	0	1	08RD 15RO	1	0	0.843610048294	446.0	-66.0	449	-63	1
2.7	2015_Jun_05_0912	s	s	20	5	Capacity	15	ABS	0	2	16RD 08RO	0	1	3.08324098587	None	None	None	None	1
2.7	2015_Jun_05_0912	s	s	20	5	Capacity	16	RC	0	2	15RD 08RO	1	0	0.724185943604	-166.0	-215.0	-172	-215	1
2.7	2015_Jun_05_0912	s	s	20	5	Capacity	17	ABS	0	2	16RD 08RO	0	1	3.39529085159	None	None	None	None	1
2.7	2015_Jun_05_0912	s	s	20	5	Capacity	18	ABS	0	1	08RD 16RO	0	1	5.07009387016	None	None	None	None	1
2.7	2015_Jun_05_0912	s	s	20	5	Capacity	19	RC	0	1	08RD 15RO	1	0	1.7718398571	255.0	-15.0	252	-20	1
2.7	2015_Jun_05_0912	s	s	20	5	Capacity	20	RC	0	2	15RD 08RO	1	0	1.12433099747	121.0	250.0	116	254	1
2.7	2015_Jun_05_0912	s	s	20	5	Capacity	21	ABS	0	2	16RD 08RO	0	1	2.56057214737	None	None	None	None	1
2.7	2015_Jun_05_0912	s	s	20	5	Capacity	22	ABS	0	1	08RD 16RO	0	1	6.74390792847	None	None	None	None	1
2.7	2015_Jun_05_0912	s	s	20	5	Capacity	23	RC	0	2	15RD 08RO	1	0	1.78851699829	-317.0	-405.0	-317	-413	1
2.7	2015_Jun_05_0912	s	s	20	5	Capacity	24	RC	0	1	08RD 15RO	1	0	0.582892894745	-204.0	16.0	-211	13	1
2.7	2015_Jun_05_0912	s	s	20	5	Capacity	25	RC	0	2	15RD 08RO	1	0	2.38380384445	-419.0	-165.0	-412	-165	1
2.7	2015_Jun_05_0912	s	s	20	5	Capacity	26	RC	0	1	08RD 15RO	1	0	1.72967410088	177.0	85.0	181	86	1
2.7	2015_Jun_05_0912	s	s	20	5	Capacity	27	ABS	0	1	08RD 16RO	0	1	4.8557369709	None	None	None	None	1
2.7	2015_Jun_05_0912	s	s	20	5	Capacity	28	ABS	0	2	16RD 08RO	0	1	3.39619994164	None	None	None	None	1
2.7	2015_Jun_05_0912	s	s	20	5	Capacity	29	ABS	0	1	08RD 16RO	0	1	7.4453690052	None	None	None	None	1
2.7	2015_Jun_05_0912	s	s	20	5	Capacity	30	RC	0	2	15RD 08RO	1	0	1.29445791245	520.0	-138.0	523	-133	1
2.7	2015_Jun_05_0912	s	s	20	5	Capacity	31	ABS	0	2	16RD 08RO	0	1	3.596159935	None	None	None	None	1
2.7	2015_Jun_05_0912	s	s	20	5	Capacity	32	RC	0	1	08RD 15RO	1	0	2.55036401749	135.0	-124.0	143	-129	1
2.7	2015_Jun_05_0912	s	s	20	5	Capacity	33	RC	0	2	15RD 08RO	1	0	0.700825214386	173.0	9.0	169	14	1
2.7	2015_Jun_05_0912	s	s	20	5	Capacity	34	RC	0	1	08RD 15RO	1	0	1.54811906815	232.0	180.0	229	184	1
2.7	2015_Jun_05_0912	s	s	20	5	Capacity	35	ABS	0	2	16RD 08RO	0	1	3.40947890282	None	None	None	None	1
2.7	2015_Jun_05_0912	s	s	20	5	Capacity	36	ABS	0	1	08RD 16RO	0	1	6.07997488976	None	None	None	None	1
2.7	2015_Jun_05_0912	s	s	20	5	Capacity	37	RC	0	1	08RD 15RO	1	0	1.18341612816	-342.0	83.0	-341	79	1
2.7	2015_Jun_05_0912	s	s	20	5	Capacity	38	ABS	0	2	16RD 08RO	0	1	2.00715112686	None	None	None	None	1
2.7	2015_Jun_05_0912	s	s	20	5	Capacity	39	ABS	0	1	08RD 16RO	0	1	7.1276679039	None	None	None	None	1
2.7	2015_Jun_05_0912	s	s	20	5	Capacity	40	RC	0	2	15RD 08RO	1	0	2.38683986664	95.0	-389.0	98	-391	1
2.7	2015_Jun_05_0912	s	s	20	5	Capacity	41	ABS	0	2	16RD 08RO	0	1	4.8252799511	None	None	None	None	1
2.7	2015_Jun_05_0912	s	s	20	5	Capacity	42	RC	0	2	15RD 08RO	1	0	1.28238201141	509.0	-222.0	509	-226	1
2.7	2015_Jun_05_0912	s	s	20	5	Capacity	43	ABS	0	1	08RD 16RO	0	1	6.8969950676	None	None	None	None	1
2.7	2015_Jun_05_0912	s	s	20	5	Capacity	44	RC	0	1	08RD 15RO	1	0	2.76549100876	347.0	159.0	342	157	1
2.7	2015_Jun_05_0912	s	s	20	5	Capacity	45	RC	0	2	15RD 08RO	0	1	1.78608298302	410.0	-367.0	None	None	0
2.7	2015_Jun_05_0912	s	s	20	5	Capacity	46	ABS	0	1	08RD 16RO	0	1	6.2096259594	None	None	None	None	1
2.7	2015_Jun_05_0912	s	s	20	5	Capacity	47	ABS	0	2	16RD 08RO	0	1	3.23628592491	None	None	None	None	1
2.7	2015_Jun_05_0912	s	s	20	5	Capacity	48	RC	0	1	08RD 15RO	1	0	1.13610100746	-49.0	316.0	-53	313	1
2.7	2015_Jun_05_0912	s	s	20	5	Capacity	49	ABS	0	2	16RD 08RO	0	1	3.10199904442	None	None	None	None	1
2.7	2015_Jun_05_0912	s	s	20	5	Capacity	50	RC	0	2	15RD 08RO	1	0	0.799808979034	-445.0	221.0	-445	220	1
2.7	2015_Jun_05_0912	s	s	20	5	Capacity	51	ABS	0	1	08RD 16RO	0	1	6.53739213943	None	None	None	None	1
2.7	2015_Jun_05_0912	s	s	20	5	Capacity	52	RC	0	1	08RD 15RO	1	0	1.90123510361	7.0	285.0	6	278	1
2.7	2015_Jun_05_0912	s	s	20	5	Capacity	53	ABS	0	1	08RD 16RO	0	1	8.32113981247	None	None	None	None	1
2.7	2015_Jun_05_0912	s	s	20	5	Capacity	54	ABS	0	2	16RD 08RO	0	1	3.82487893105	None	None	None	None	1
2.7	2015_Jun_05_0912	s	s	20	5	Capacity	55	RC	0	2	15RD 08RO	1	0	1.18341994286	23.0	-333.0	26	-333	1
2.7	2015_Jun_05_0912	s	s	20	5	Capacity	56	RC	0	1	08RD 15RO	1	0	3.61673116684	-164.0	-194.0	-159	-191	1
2.7	2015_Jun_05_0912	s	s	20	5	Capacity	57	RC	0	1	08RD 15RO	1	0	1.47771716118	-402.0	289.0	-409	285	1
2.7	2015_Jun_05_0912	s	s	20	5	Capacity	58	ABS	0	2	16RD 08RO	0	1	2.61903095245	None	None	None	None	1
2.7	2015_Jun_05_0912	s	s	20	5	Capacity	59	RC	0	2	15RD 08RO	1	0	0.788115978241	80.0	-67.0	84	-65	1
2.7	2015_Jun_05_0912	s	s	20	5	Capacity	60	ABS	0	1	08RD 16RO	0	1	4.75473594666	None	None	None	None	1
2.7	2015_Jun_05_0912	s	s	20	5	Capacity	61	ABS	0	2	16RD 08RO	0	1	3.28089308739	None	None	None	None	1
2.7	2015_Jun_05_0912	s	s	20	5	Capacity	62	RC	0	2	15RD 08RO	1	0	0.894253969193	-83.0	-58.0	-77	-62	1
2.7	2015_Jun_05_0912	s	s	20	5	Capacity	63	ABS	0	1	08RD 16RO	0	1	5.12905406952	None	None	None	None	1
2.7	2015_Jun_05_0912	s	s	20	5	Capacity	64	RC	0	1	08RD 15RO	1	0	1.75983595848	180.0	-63.0	180	-60	1
2.7	2015_Jun_05_0912	s	s	20	5	Capacity	1	ABS	2	0	16VC 08MC	0	1	1.56176805496	None	None	None	None	1
2.7	2015_Jun_05_0912	s	s	20	5	Capacity	2	ABS	1	0	08VC 16MC	0	1	1.71770405769	None	None	None	None	1
2.7	2015_Jun_05_0912	s	s	20	5	Capacity	3	RC	1	0	08VC 15MC	1	0	0.882266044617	-101.0	376.0	-94	384	1
2.7	2015_Jun_05_0912	s	s	20	5	Capacity	4	RC	2	0	15VC 08MC	1	0	0.571367025375	-207.0	-129.0	-205	-135	1
2.7	2015_Jun_05_0912	s	s	20	5	Capacity	5	RC	2	0	15VC 08MC	1	0	1.01922392845	-215.0	308.0	-208	317	1
2.7	2015_Jun_05_0912	s	s	20	5	Capacity	6	RC	1	0	08VC 15MC	1	0	0.576438903809	-139.0	-101.0	-127	-100	1
2.7	2015_Jun_05_0912	s	s	20	5	Capacity	7	ABS	2	0	16VC 08MC	0	1	1.92455101013	None	None	None	None	1
2.7	2015_Jun_05_0912	s	s	20	5	Capacity	8	ABS	1	0	08VC 16MC	0	1	2.45464110374	None	None	None	None	1
2.7	2015_Jun_05_0912	s	s	20	5	Capacity	9	ABS	2	0	16VC 08MC	0	1	1.65712404251	None	None	None	None	1
2.7	2015_Jun_05_0912	s	s	20	5	Capacity	10	RC	1	0	08VC 15MC	1	0	2.0191719532	-51.0	-288.0	-50	-287	1
2.7	2015_Jun_05_0912	s	s	20	5	Capacity	11	RC	2	0	15VC 08MC	1	0	0.705585956573	337.0	-215.0	345	-220	1
2.7	2015_Jun_05_0912	s	s	20	5	Capacity	12	ABS	1	0	08VC 16MC	0	1	3.09305500984	None	None	None	None	1
2.7	2015_Jun_05_0912	s	s	20	5	Capacity	13	ABS	2	0	16VC 08MC	0	1	1.98863506317	None	None	None	None	1
2.7	2015_Jun_05_0912	s	s	20	5	Capacity	14	RC	1	0	08VC 15MC	1	0	0.594784975052	-23.0	-104.0	-26	-96	1
2.7	2015_Jun_05_0912	s	s	20	5	Capacity	15	RC	2	0	15VC 08MC	1	0	0.729160070419	140.0	328.0	143	325	1
2.7	2015_Jun_05_0912	s	s	20	5	Capacity	16	ABS	1	0	08VC 16MC	0	1	1.94682407379	None	None	None	None	1
2.7	2015_Jun_05_0912	s	s	20	5	Capacity	17	RC	2	0	15VC 08MC	1	0	0.611481189728	223.0	-3.0	216	0	1
2.7	2015_Jun_05_0912	s	s	20	5	Capacity	18	ABS	1	0	08VC 16MC	0	1	2.29147601128	None	None	None	None	1
2.7	2015_Jun_05_0912	s	s	20	5	Capacity	19	ABS	2	0	16VC 08MC	0	1	2.01829791069	None	None	None	None	1
2.7	2015_Jun_05_0912	s	s	20	5	Capacity	20	RC	1	0	08VC 15MC	1	0	1.32946205139	529.0	-46.0	525	-43	1
2.7	2015_Jun_05_0912	s	s	20	5	Capacity	21	ABS	2	0	16VC 08MC	0	1	1.81888604164	None	None	None	None	1
2.7	2015_Jun_05_0912	s	s	20	5	Capacity	22	RC	2	0	15VC 08MC	1	0	0.576103925705	138.0	-84.0	142	-90	1
2.7	2015_Jun_05_0912	s	s	20	5	Capacity	23	ABS	1	0	08VC 16MC	0	1	2.30665111542	None	None	None	None	1
2.7	2015_Jun_05_0912	s	s	20	5	Capacity	24	RC	1	0	08VC 15MC	1	0	0.665395021439	271.0	245.0	267	253	1
2.7	2015_Jun_05_0912	s	s	20	5	Capacity	25	ABS	1	0	08VC 16MC	0	1	2.4830520153	None	None	None	None	1
2.7	2015_Jun_05_0912	s	s	20	5	Capacity	26	RC	1	0	08VC 15MC	1	0	0.663947105408	-3.0	293.0	-10	291	1
2.7	2015_Jun_05_0912	s	s	20	5	Capacity	27	RC	2	0	15VC 08MC	1	0	0.772805929184	359.0	299.0	355	296	1
2.7	2015_Jun_05_0912	s	s	20	5	Capacity	28	ABS	2	0	16VC 08MC	0	1	1.43541502953	None	None	None	None	1
2.7	2015_Jun_05_0912	s	s	20	5	Capacity	29	RC	2	0	15VC 08MC	1	0	0.500594854355	-83.0	18.0	-89	22	1
2.7	2015_Jun_05_0912	s	s	20	5	Capacity	30	ABS	2	0	16VC 08MC	0	1	2.65945982933	None	None	None	None	1
2.7	2015_Jun_05_0912	s	s	20	5	Capacity	31	RC	1	0	08VC 15MC	1	0	0.4584171772	-3.0	-20.0	4	-23	1
2.7	2015_Jun_05_0912	s	s	20	5	Capacity	32	ABS	1	0	08VC 16MC	0	1	2.61626601219	None	None	None	None	1
2.7	2015_Jun_05_0912	s	s	20	5	Capacity	33	ABS	2	0	16VC 08MC	0	1	2.90119600296	None	None	None	None	1
2.7	2015_Jun_05_0912	s	s	20	5	Capacity	34	ABS	1	0	08VC 16MC	0	1	3.64187812805	None	None	None	None	1
2.7	2015_Jun_05_0912	s	s	20	5	Capacity	35	RC	1	0	08VC 15MC	1	0	0.646767139435	-79.0	-221.0	-87	-219	1
2.7	2015_Jun_05_0912	s	s	20	5	Capacity	36	RC	2	0	15VC 08MC	1	0	0.512386083603	-122.0	87.0	-117	95	1
2.7	2015_Jun_05_0912	s	s	20	5	Capacity	37	ABS	2	0	16VC 08MC	0	1	2.9929151535	None	None	None	None	1
2.7	2015_Jun_05_0912	s	s	20	5	Capacity	38	ABS	1	0	08VC 16MC	0	1	1.79534316063	None	None	None	None	1
2.7	2015_Jun_05_0912	s	s	20	5	Capacity	39	RC	1	0	08VC 15MC	1	0	0.938122987747	236.0	204.0	240	212	1
2.7	2015_Jun_05_0912	s	s	20	5	Capacity	40	RC	2	0	15VC 08MC	1	0	0.57111620903	91.0	-216.0	92	-207	1
2.7	2015_Jun_05_0912	s	s	20	5	Capacity	41	RC	2	0	15VC 08MC	1	0	0.768296003342	-425.0	317.0	-430	321	1
2.7	2015_Jun_05_0912	s	s	20	5	Capacity	42	ABS	2	0	16VC 08MC	0	1	1.82381820679	None	None	None	None	1
2.7	2015_Jun_05_0912	s	s	20	5	Capacity	43	RC	1	0	08VC 15MC	1	0	0.811448097229	-89.0	178.0	-98	181	1
2.7	2015_Jun_05_0912	s	s	20	5	Capacity	44	ABS	1	0	08VC 16MC	0	1	1.89436912537	None	None	None	None	1
2.7	2015_Jun_05_0912	s	s	20	5	Capacity	45	ABS	1	0	08VC 16MC	0	1	2.76206803322	None	None	None	None	1
2.7	2015_Jun_05_0912	s	s	20	5	Capacity	46	RC	1	0	08VC 15MC	1	0	0.497557878494	-83.0	62.0	-84	57	1
2.7	2015_Jun_05_0912	s	s	20	5	Capacity	47	ABS	2	0	16VC 08MC	0	1	2.34170913696	None	None	None	None	1
2.7	2015_Jun_05_0912	s	s	20	5	Capacity	48	RC	2	0	15VC 08MC	1	0	0.606504201889	289.0	94.0	285	103	1
2.7	2015_Jun_05_0912	s	s	20	5	Capacity	49	ABS	2	0	16VC 08MC	0	1	1.56171417236	None	None	None	None	1
2.7	2015_Jun_05_0912	s	s	20	5	Capacity	50	ABS	1	0	08VC 16MC	0	1	0.97629404068	None	None	None	None	1
2.7	2015_Jun_05_0912	s	s	20	5	Capacity	51	RC	2	0	15VC 08MC	1	0	0.599637985229	-165.0	-246.0	-168	-243	1
2.7	2015_Jun_05_0912	s	s	20	5	Capacity	52	RC	1	0	08VC 15MC	1	0	0.658539056778	-526.0	-103.0	-522	-101	1
2.7	2015_Jun_05_0912	s	s	20	5	Capacity	53	RC	2	0	15VC 08MC	1	0	0.477076053619	135.0	-67.0	137	-65	1
2.7	2015_Jun_05_0912	s	s	20	5	Capacity	54	ABS	1	0	08VC 16MC	0	1	3.50210690498	None	None	None	None	1
2.7	2015_Jun_05_0912	s	s	20	5	Capacity	55	RC	1	0	08VC 15MC	1	0	0.523667097092	142.0	-104.0	138	-101	1
2.7	2015_Jun_05_0912	s	s	20	5	Capacity	56	ABS	2	0	16VC 08MC	0	1	2.67963886261	None	None	None	None	1
2.7	2015_Jun_05_0912	s	s	20	5	Capacity	57	ABS	2	0	16VC 08MC	0	1	2.36527109146	None	None	None	None	1
2.7	2015_Jun_05_0912	s	s	20	5	Capacity	58	RC	2	0	15VC 08MC	1	0	0.446681022644	42.0	-221.0	47	-218	1
2.7	2015_Jun_05_0912	s	s	20	5	Capacity	59	ABS	1	0	08VC 16MC	0	1	1.94156694412	None	None	None	None	1
2.7	2015_Jun_05_0912	s	s	20	5	Capacity	60	RC	1	0	08VC 15MC	1	0	0.700685977936	410.0	261.0	414	260	1
2.7	2015_Jun_05_0912	s	s	20	5	Capacity	61	RC	1	0	08VC 15MC	1	0	1.04701900482	-415.0	18.0	-409	15	1
2.7	2015_Jun_05_0912	s	s	20	5	Capacity	62	RC	2	0	15VC 08MC	1	0	0.655816793442	96.0	-237.0	85	-233	1
2.7	2015_Jun_05_0912	s	s	20	5	Capacity	63	ABS	1	0	08VC 16MC	0	1	2.1924059391	None	None	None	None	1
2.7	2015_Jun_05_0912	s	s	20	5	Capacity	64	ABS	2	0	16VC 08MC	0	1	1.76186084747	None	None	None	None	1
2.7	2015_Jun_05_0912	s	s	20	5	SIC	1	ABS	2	2	10VD 02VO 02VC 02MD 02MO 02MC 02RD 02RO	0	1	2.20712518692	None	None	None	None	1
2.7	2015_Jun_05_0912	s	s	20	5	SIC	2	RC	0	1	02VD 02VO 02VC 02MD 02MO 02MC 02RD 09RO	1	0	2.83120107651	213.0	153.0	223	151	1
2.7	2015_Jun_05_0912	s	s	20	5	SIC	3	ABS	1	0	02VD 02VO 02VC 02MD 02MO 10MC 02RD 02RO	0	1	2.8451321125	None	None	None	None	1
2.7	2015_Jun_05_0912	s	s	20	5	SIC	4	ABS	0	1	02VD 02VO 02VC 02MD 02MO 02MC 02RD 10RO	0	1	3.9494240284	None	None	None	None	1
2.7	2015_Jun_05_0912	s	s	20	5	SIC	5	RC	1	2	02VD 02VO 02VC 09MD 02MO 02MC 02RD 02RO	1	0	1.67080307007	-468.0	-204.0	-459	-195	1
2.7	2015_Jun_05_0912	s	s	20	5	SIC	6	ABS	1	1	02VD 02VO 02VC 02MD 10MO 02MC 02RD 02RO	0	1	3.0915350914	None	None	None	None	1
2.7	2015_Jun_05_0912	s	s	20	5	SIC	7	ABS	0	2	02VD 02VO 02VC 02MD 02MO 02MC 10RD 02RO	0	1	2.08275198936	None	None	None	None	1
2.7	2015_Jun_05_0912	s	s	20	5	SIC	8	RC	2	1	02VD 09VO 02VC 02MD 02MO 02MC 02RD 02RO	1	0	1.06811094284	-319.0	-214.0	-318	-226	1
2.7	2015_Jun_05_0912	s	s	20	5	SIC	9	RC	0	2	02VD 02VO 02VC 02MD 02MO 02MC 09RD 02RO	1	0	1.0154440403	459.0	-200.0	458	-202	1
2.7	2015_Jun_05_0912	s	s	20	5	SIC	10	RC	2	0	02VD 02VO 09VC 02MD 02MO 02MC 02RD 02RO	1	0	0.846752166748	177.0	366.0	165	367	1
2.7	2015_Jun_05_0912	s	s	20	5	SIC	11	ABS	1	2	02VD 02VO 02VC 10MD 02MO 02MC 02RD 02RO	1	0	1.10582399368	None	None	48	-136	0
2.7	2015_Jun_05_0912	s	s	20	5	SIC	12	RC	2	2	09VD 02VO 02VC 02MD 02MO 02MC 02RD 02RO	1	0	0.89767408371	427.0	349.0	432	351	1
2.7	2015_Jun_05_0912	s	s	20	5	SIC	13	ABS	2	1	02VD 10VO 02VC 02MD 02MO 02MC 02RD 02RO	0	1	1.52441310883	None	None	None	None	1
2.7	2015_Jun_05_0912	s	s	20	5	SIC	14	RC	1	1	02VD 02VO 02VC 02MD 09MO 02MC 02RD 02RO	1	0	0.709373950958	-91.0	227.0	-96	225	1
2.7	2015_Jun_05_0912	s	s	20	5	SIC	15	RC	1	0	02VD 02VO 02VC 02MD 02MO 09MC 02RD 02RO	1	0	0.773730993271	-254.0	-197.0	-247	-201	1
2.7	2015_Jun_05_0912	s	s	20	5	SIC	16	ABS	2	0	02VD 02VO 10VC 02MD 02MO 02MC 02RD 02RO	0	1	1.67075204849	None	None	None	None	1
2.7	2015_Jun_05_0912	s	s	20	5	SIC	17	RC	1	0	02VD 02VO 02VC 02MD 02MO 09MC 02RD 02RO	1	0	0.799767971039	140.0	-121.0	137	-115	1
2.7	2015_Jun_05_0912	s	s	20	5	SIC	18	ABS	1	0	02VD 02VO 02VC 02MD 02MO 10MC 02RD 02RO	0	1	4.34897994995	None	None	None	None	1
2.7	2015_Jun_05_0912	s	s	20	5	SIC	19	ABS	1	2	02VD 02VO 02VC 10MD 02MO 02MC 02RD 02RO	0	1	2.24261808395	None	None	None	None	1
2.7	2015_Jun_05_0912	s	s	20	5	SIC	20	ABS	2	0	02VD 02VO 10VC 02MD 02MO 02MC 02RD 02RO	0	1	2.1249320507	None	None	None	None	1
2.7	2015_Jun_05_0912	s	s	20	5	SIC	21	ABS	2	2	10VD 02VO 02VC 02MD 02MO 02MC 02RD 02RO	0	1	1.87948894501	None	None	None	None	1
2.7	2015_Jun_05_0912	s	s	20	5	SIC	22	ABS	1	1	02VD 02VO 02VC 02MD 10MO 02MC 02RD 02RO	0	1	4.27206206322	None	None	None	None	1
2.7	2015_Jun_05_0912	s	s	20	5	SIC	23	RC	2	1	02VD 09VO 02VC 02MD 02MO 02MC 02RD 02RO	1	0	1.92177796364	236.0	63.0	239	72	1
2.7	2015_Jun_05_0912	s	s	20	5	SIC	24	RC	0	1	02VD 02VO 02VC 02MD 02MO 02MC 02RD 09RO	1	0	1.20037984848	331.0	-2.0	334	0	1
2.7	2015_Jun_05_0912	s	s	20	5	SIC	25	ABS	0	2	02VD 02VO 02VC 02MD 02MO 02MC 10RD 02RO	0	1	2.99646711349	None	None	None	None	1
2.7	2015_Jun_05_0912	s	s	20	5	SIC	26	ABS	0	1	02VD 02VO 02VC 02MD 02MO 02MC 02RD 10RO	0	1	4.59685301781	None	None	None	None	1
2.7	2015_Jun_05_0912	s	s	20	5	SIC	27	RC	1	1	02VD 02VO 02VC 02MD 09MO 02MC 02RD 02RO	1	0	1.11804699898	351.0	-151.0	353	-147	1
2.7	2015_Jun_05_0912	s	s	20	5	SIC	28	ABS	2	1	02VD 10VO 02VC 02MD 02MO 02MC 02RD 02RO	0	1	2.67122602463	None	None	None	None	1
2.7	2015_Jun_05_0912	s	s	20	5	SIC	29	RC	2	2	09VD 02VO 02VC 02MD 02MO 02MC 02RD 02RO	1	0	0.735291957855	179.0	156.0	183	158	1
2.7	2015_Jun_05_0912	s	s	20	5	SIC	30	RC	2	0	02VD 02VO 09VC 02MD 02MO 02MC 02RD 02RO	1	0	0.653008937836	-222.0	401.0	-226	397	1
2.7	2015_Jun_05_0912	s	s	20	5	SIC	31	RC	1	2	02VD 02VO 02VC 09MD 02MO 02MC 02RD 02RO	1	0	0.926834106445	218.0	-199.0	215	-203	1
2.7	2015_Jun_05_0912	s	s	20	5	SIC	32	RC	0	2	02VD 02VO 02VC 02MD 02MO 02MC 09RD 02RO	1	0	1.12443709373	186.0	-92.0	184	-96	1
2.7	2015_Jun_05_0912	s	s	20	5	SIC	33	ABS	2	1	02VD 10VO 02VC 02MD 02MO 02MC 02RD 02RO	0	1	3.08326101303	None	None	None	None	1
2.7	2015_Jun_05_0912	s	s	20	5	SIC	34	RC	0	2	02VD 02VO 02VC 02MD 02MO 02MC 09RD 02RO	1	0	0.658543109894	-278.0	-102.0	-279	-106	1
2.7	2015_Jun_05_0912	s	s	20	5	SIC	35	RC	1	2	02VD 02VO 02VC 09MD 02MO 02MC 02RD 02RO	1	0	0.740937948227	335.0	-62.0	337	-61	1
2.7	2015_Jun_05_0912	s	s	20	5	SIC	36	RC	2	2	09VD 02VO 02VC 02MD 02MO 02MC 02RD 02RO	1	0	1.11760592461	482.0	-323.0	493	-322	1
2.7	2015_Jun_05_0912	s	s	20	5	SIC	37	RC	0	1	02VD 02VO 02VC 02MD 02MO 02MC 02RD 09RO	1	0	0.618322134018	-120.0	-116.0	-119	-117	1
2.7	2015_Jun_05_0912	s	s	20	5	SIC	38	ABS	1	1	02VD 02VO 02VC 02MD 10MO 02MC 02RD 02RO	0	1	3.17252278328	None	None	None	None	1
2.7	2015_Jun_05_0912	s	s	20	5	SIC	39	RC	1	1	02VD 02VO 02VC 02MD 09MO 02MC 02RD 02RO	1	0	0.866935968399	130.0	201.0	132	202	1
2.7	2015_Jun_05_0912	s	s	20	5	SIC	40	ABS	0	2	02VD 02VO 02VC 02MD 02MO 02MC 10RD 02RO	0	1	3.11858105659	None	None	None	None	1
2.7	2015_Jun_05_0912	s	s	20	5	SIC	41	RC	2	0	02VD 02VO 09VC 02MD 02MO 02MC 02RD 02RO	1	0	0.570878982544	132.0	-137.0	131	-136	1
2.7	2015_Jun_05_0912	s	s	20	5	SIC	42	ABS	2	2	10VD 02VO 02VC 02MD 02MO 02MC 02RD 02RO	0	1	1.88266921043	None	None	None	None	1
2.7	2015_Jun_05_0912	s	s	20	5	SIC	43	RC	2	1	02VD 09VO 02VC 02MD 02MO 02MC 02RD 02RO	1	0	1.26569509506	-393.0	337.0	-403	338	1
2.7	2015_Jun_05_0912	s	s	20	5	SIC	44	ABS	2	0	02VD 02VO 10VC 02MD 02MO 02MC 02RD 02RO	0	1	2.02386307716	None	None	None	None	1
2.7	2015_Jun_05_0912	s	s	20	5	SIC	45	ABS	1	2	02VD 02VO 02VC 10MD 02MO 02MC 02RD 02RO	1	0	0.717348814011	None	None	42	-80	0
2.7	2015_Jun_05_0912	s	s	20	5	SIC	46	ABS	1	0	02VD 02VO 02VC 02MD 02MO 10MC 02RD 02RO	0	1	4.67002296448	None	None	None	None	1
2.7	2015_Jun_05_0912	s	s	20	5	SIC	47	ABS	0	1	02VD 02VO 02VC 02MD 02MO 02MC 02RD 10RO	0	1	4.25543808937	None	None	None	None	1
2.7	2015_Jun_05_0912	s	s	20	5	SIC	48	RC	1	0	02VD 02VO 02VC 02MD 02MO 09MC 02RD 02RO	1	0	0.905668973923	-1.0	-395.0	2	-399	1
2.7	2015_Jun_05_0912	s	s	20	5	SIC	49	RC	1	1	02VD 02VO 02VC 02MD 09MO 02MC 02RD 02RO	1	0	1.39505290985	-166.0	-367.0	-172	-358	1
2.7	2015_Jun_05_0912	s	s	20	5	SIC	50	ABS	2	1	02VD 10VO 02VC 02MD 02MO 02MC 02RD 02RO	0	1	1.94836592674	None	None	None	None	1
2.7	2015_Jun_05_0912	s	s	20	5	SIC	51	RC	0	2	02VD 02VO 02VC 02MD 02MO 02MC 09RD 02RO	1	0	1.10576701164	238.0	-272.0	247	-267	1
2.7	2015_Jun_05_0912	s	s	20	5	SIC	52	ABS	2	2	10VD 02VO 02VC 02MD 02MO 02MC 02RD 02RO	0	1	2.28663802147	None	None	None	None	1
2.7	2015_Jun_05_0912	s	s	20	5	SIC	53	ABS	0	1	02VD 02VO 02VC 02MD 02MO 02MC 02RD 10RO	0	1	4.48437809944	None	None	None	None	1
2.7	2015_Jun_05_0912	s	s	20	5	SIC	54	RC	2	0	02VD 02VO 09VC 02MD 02MO 02MC 02RD 02RO	1	0	1.29409503937	353.0	99.0	354	90	1
2.7	2015_Jun_05_0912	s	s	20	5	SIC	55	ABS	1	2	02VD 02VO 02VC 10MD 02MO 02MC 02RD 02RO	0	1	1.94154000282	None	None	None	None	1
2.7	2015_Jun_05_0912	s	s	20	5	SIC	56	ABS	1	1	02VD 02VO 02VC 02MD 10MO 02MC 02RD 02RO	0	1	4.86063504219	None	None	None	None	1
2.7	2015_Jun_05_0912	s	s	20	5	SIC	57	ABS	0	2	02VD 02VO 02VC 02MD 02MO 02MC 10RD 02RO	0	1	2.63598203659	None	None	None	None	1
2.7	2015_Jun_05_0912	s	s	20	5	SIC	58	ABS	1	0	02VD 02VO 02VC 02MD 02MO 10MC 02RD 02RO	0	1	2.96068692207	None	None	None	None	1
2.7	2015_Jun_05_0912	s	s	20	5	SIC	59	RC	0	1	02VD 02VO 02VC 02MD 02MO 02MC 02RD 09RO	1	0	3.15385699272	-261.0	122.0	-257	130	1
2.7	2015_Jun_05_0912	s	s	20	5	SIC	60	RC	1	2	02VD 02VO 02VC 09MD 02MO 02MC 02RD 02RO	1	0	0.646969079971	-435.0	-167.0	-437	-164	1
2.7	2015_Jun_05_0912	s	s	20	5	SIC	61	ABS	2	0	02VD 02VO 10VC 02MD 02MO 02MC 02RD 02RO	0	1	2.08276104927	None	None	None	None	1
2.7	2015_Jun_05_0912	s	s	20	5	SIC	62	RC	2	1	02VD 09VO 02VC 02MD 02MO 02MC 02RD 02RO	1	0	0.571220159531	-325.0	52.0	-315	50	1
2.7	2015_Jun_05_0912	s	s	20	5	SIC	63	RC	1	0	02VD 02VO 02VC 02MD 02MO 09MC 02RD 02RO	1	0	1.66585898399	-379.0	-245.0	-379	-250	1
2.7	2015_Jun_05_0912	s	s	20	5	SIC	64	RC	2	2	09VD 02VO 02VC 02MD 02MO 02MC 02RD 02RO	1	0	0.724411010742	455.0	84.0	456	80	1
2.7	2015_Jun_05_0912	s	s	20	5	SIC	65	RC	2	0	02VD 02VO 09VC 02MD 02MO 02MC 02RD 02RO	1	0	0.841491937637	-107.0	238.0	-111	234	1
2.7	2015_Jun_05_0912	s	s	20	5	SIC	66	RC	0	1	02VD 02VO 02VC 02MD 02MO 02MC 02RD 09RO	1	0	1.15973305702	-218.0	178.0	-225	187	1
2.7	2015_Jun_05_0912	s	s	20	5	SIC	67	ABS	0	2	02VD 02VO 02VC 02MD 02MO 02MC 10RD 02RO	0	1	2.44275403023	None	None	None	None	1
2.7	2015_Jun_05_0912	s	s	20	5	SIC	68	RC	2	2	09VD 02VO 02VC 02MD 02MO 02MC 02RD 02RO	1	0	0.537400007248	75.0	10.0	75	12	1
2.7	2015_Jun_05_0912	s	s	20	5	SIC	69	RC	2	1	02VD 09VO 02VC 02MD 02MO 02MC 02RD 02RO	1	0	0.693812131882	148.0	-86.0	142	-79	1
2.7	2015_Jun_05_0912	s	s	20	5	SIC	70	RC	1	2	02VD 02VO 02VC 09MD 02MO 02MC 02RD 02RO	1	0	1.52460384369	-481.0	185.0	-486	185	1
2.7	2015_Jun_05_0912	s	s	20	5	SIC	71	RC	1	0	02VD 02VO 02VC 02MD 02MO 09MC 02RD 02RO	1	0	1.69434809685	177.0	274.0	182	267	1
2.7	2015_Jun_05_0912	s	s	20	5	SIC	72	ABS	1	0	02VD 02VO 02VC 02MD 02MO 10MC 02RD 02RO	0	1	3.40105319023	None	None	None	None	1
2.7	2015_Jun_05_0912	s	s	20	5	SIC	73	ABS	2	1	02VD 10VO 02VC 02MD 02MO 02MC 02RD 02RO	0	1	2.27774906158	None	None	None	None	1
2.7	2015_Jun_05_0912	s	s	20	5	SIC	74	ABS	0	1	02VD 02VO 02VC 02MD 02MO 02MC 02RD 10RO	0	1	3.69031405449	None	None	None	None	1
2.7	2015_Jun_05_0912	s	s	20	5	SIC	75	ABS	1	1	02VD 02VO 02VC 02MD 10MO 02MC 02RD 02RO	0	1	2.49152898788	None	None	None	None	1
2.7	2015_Jun_05_0912	s	s	20	5	SIC	76	RC	0	2	02VD 02VO 02VC 02MD 02MO 02MC 09RD 02RO	1	0	0.937314033508	-2.0	226.0	6	230	1
2.7	2015_Jun_05_0912	s	s	20	5	SIC	77	ABS	1	2	02VD 02VO 02VC 10MD 02MO 02MC 02RD 02RO	0	1	1.64183807373	None	None	None	None	1
2.7	2015_Jun_05_0912	s	s	20	5	SIC	78	ABS	2	2	10VD 02VO 02VC 02MD 02MO 02MC 02RD 02RO	0	1	2.02390503883	None	None	None	None	1
2.7	2015_Jun_05_0912	s	s	20	5	SIC	79	RC	1	1	02VD 02VO 02VC 02MD 09MO 02MC 02RD 02RO	1	0	1.53655910492	461.0	-39.0	467	-34	1
2.7	2015_Jun_05_0912	s	s	20	5	SIC	80	ABS	2	0	02VD 02VO 10VC 02MD 02MO 02MC 02RD 02RO	0	1	2.36035299301	None	None	None	None	1
2.7	2015_Jun_05_0912	s	s	20	5	SIC	81	RC	0	1	02VD 02VO 02VC 02MD 02MO 02MC 02RD 09RO	1	0	2.4312582016	459.0	332.0	453	328	1
2.7	2015_Jun_05_0912	s	s	20	5	SIC	82	ABS	1	2	02VD 02VO 02VC 10MD 02MO 02MC 02RD 02RO	0	1	2.66641902924	None	None	None	None	1
2.7	2015_Jun_05_0912	s	s	20	5	SIC	83	RC	1	1	02VD 02VO 02VC 02MD 09MO 02MC 02RD 02RO	1	0	1.32478404045	451.0	-384.0	452	-380	1
2.7	2015_Jun_05_0912	s	s	20	5	SIC	84	ABS	0	2	02VD 02VO 02VC 02MD 02MO 02MC 10RD 02RO	0	1	2.02388000488	None	None	None	None	1
2.7	2015_Jun_05_0912	s	s	20	5	SIC	85	ABS	0	1	02VD 02VO 02VC 02MD 02MO 02MC 02RD 10RO	0	1	3.37253284454	None	None	None	None	1
2.7	2015_Jun_05_0912	s	s	20	5	SIC	86	ABS	2	0	02VD 02VO 10VC 02MD 02MO 02MC 02RD 02RO	0	1	1.7482919693	None	None	None	None	1
2.7	2015_Jun_05_0912	s	s	20	5	SIC	87	ABS	1	0	02VD 02VO 02VC 02MD 02MO 10MC 02RD 02RO	0	1	2.23032212257	None	None	None	None	1
2.7	2015_Jun_05_0912	s	s	20	5	SIC	88	RC	0	2	02VD 02VO 02VC 02MD 02MO 02MC 09RD 02RO	1	0	0.66570019722	134.0	150.0	123	151	1
2.7	2015_Jun_05_0912	s	s	20	5	SIC	89	ABS	2	1	02VD 10VO 02VC 02MD 02MO 02MC 02RD 02RO	0	1	5.55174612999	None	None	None	None	1
2.7	2015_Jun_05_0912	s	s	20	5	SIC	90	ABS	1	1	02VD 02VO 02VC 02MD 10MO 02MC 02RD 02RO	0	1	3.05762219429	None	None	None	None	1
2.7	2015_Jun_05_0912	s	s	20	5	SIC	91	RC	1	0	02VD 02VO 02VC 02MD 02MO 09MC 02RD 02RO	1	0	0.820579051971	112.0	77.0	122	76	1
2.7	2015_Jun_05_0912	s	s	20	5	SIC	92	RC	2	1	02VD 09VO 02VC 02MD 02MO 02MC 02RD 02RO	1	0	1.17640113831	416.0	315.0	408	315	1
2.7	2015_Jun_05_0912	s	s	20	5	SIC	93	RC	1	2	02VD 02VO 02VC 09MD 02MO 02MC 02RD 02RO	1	0	1.18815684319	367.0	-214.0	356	-211	1
2.7	2015_Jun_05_0912	s	s	20	5	SIC	94	ABS	2	2	10VD 02VO 02VC 02MD 02MO 02MC 02RD 02RO	0	1	1.76168084145	None	None	None	None	1
2.7	2015_Jun_05_0912	s	s	20	5	SIC	95	RC	2	2	09VD 02VO 02VC 02MD 02MO 02MC 02RD 02RO	1	0	0.564420938492	-21.0	-1.0	-28	3	1
2.7	2015_Jun_05_0912	s	s	20	5	SIC	96	RC	2	0	02VD 02VO 09VC 02MD 02MO 02MC 02RD 02RO	1	0	0.783087968826	36.0	326.0	37	325	1
2.7	2015_Jun_05_0912	s	s	20	5	SIC	97	RC	1	0	02VD 02VO 02VC 02MD 02MO 09MC 02RD 02RO	1	0	0.944828033447	273.0	262.0	266	266	1
2.7	2015_Jun_05_0912	s	s	20	5	SIC	98	ABS	2	1	02VD 10VO 02VC 02MD 02MO 02MC 02RD 02RO	0	1	3.07186198235	None	None	None	None	1
2.7	2015_Jun_05_0912	s	s	20	5	SIC	99	ABS	2	0	02VD 02VO 10VC 02MD 02MO 02MC 02RD 02RO	0	1	2.21223497391	None	None	None	None	1
2.7	2015_Jun_05_0912	s	s	20	5	SIC	100	ABS	1	0	02VD 02VO 02VC 02MD 02MO 10MC 02RD 02RO	0	1	3.43635392189	None	None	None	None	1
2.7	2015_Jun_05_0912	s	s	20	5	SIC	101	RC	1	2	02VD 02VO 02VC 09MD 02MO 02MC 02RD 02RO	1	0	1.30073785782	-405.0	89.0	-408	90	1
2.7	2015_Jun_05_0912	s	s	20	5	SIC	102	RC	1	1	02VD 02VO 02VC 02MD 09MO 02MC 02RD 02RO	1	0	0.482074975967	3.0	-59.0	1	-50	1
2.7	2015_Jun_05_0912	s	s	20	5	SIC	103	ABS	2	2	10VD 02VO 02VC 02MD 02MO 02MC 02RD 02RO	0	1	2.02939510345	None	None	None	None	1
2.7	2015_Jun_05_0912	s	s	20	5	SIC	104	ABS	1	1	02VD 02VO 02VC 02MD 10MO 02MC 02RD 02RO	0	1	2.33682608604	None	None	None	None	1
2.7	2015_Jun_05_0912	s	s	20	5	SIC	105	RC	0	2	02VD 02VO 02VC 02MD 02MO 02MC 09RD 02RO	1	0	1.71783089638	449.0	-246.0	447	-242	1
2.7	2015_Jun_05_0912	s	s	20	5	SIC	106	ABS	1	2	02VD 02VO 02VC 10MD 02MO 02MC 02RD 02RO	0	1	2.53686094284	None	None	None	None	1
2.7	2015_Jun_05_0912	s	s	20	5	SIC	107	ABS	0	1	02VD 02VO 02VC 02MD 02MO 02MC 02RD 10RO	0	1	6.63464903831	None	None	None	None	1
2.7	2015_Jun_05_0912	s	s	20	5	SIC	108	RC	0	1	02VD 02VO 02VC 02MD 02MO 02MC 02RD 09RO	1	0	0.729125022888	-175.0	3.0	-175	3	1
2.7	2015_Jun_05_0912	s	s	20	5	SIC	109	RC	2	1	02VD 09VO 02VC 02MD 02MO 02MC 02RD 02RO	1	0	1.11261296272	499.0	150.0	496	144	1
2.7	2015_Jun_05_0912	s	s	20	5	SIC	110	ABS	0	2	02VD 02VO 02VC 02MD 02MO 02MC 10RD 02RO	0	1	3.21955609322	None	None	None	None	1
2.7	2015_Jun_05_0912	s	s	20	5	SIC	111	RC	2	0	02VD 02VO 09VC 02MD 02MO 02MC 02RD 02RO	1	0	2.79552817345	366.0	388.0	365	379	1
2.7	2015_Jun_05_0912	s	s	20	5	SIC	112	RC	2	2	09VD 02VO 02VC 02MD 02MO 02MC 02RD 02RO	1	0	1.31496620178	-383.0	177.0	-376	181	1
2.7	2015_Jun_05_0912	s	s	20	5	SIC	113	RC	1	1	02VD 02VO 02VC 02MD 09MO 02MC 02RD 02RO	1	0	1.64232087135	505.0	-15.0	510	-6	1
2.7	2015_Jun_05_0912	s	s	20	5	SIC	114	ABS	0	2	02VD 02VO 02VC 02MD 02MO 02MC 10RD 02RO	0	1	2.16005301476	None	None	None	None	1
2.7	2015_Jun_05_0912	s	s	20	5	SIC	115	RC	2	2	09VD 02VO 02VC 02MD 02MO 02MC 02RD 02RO	1	0	0.6301009655	-492.0	136.0	249	78	0
2.7	2015_Jun_05_0912	s	s	20	5	SIC	116	RC	1	0	02VD 02VO 02VC 02MD 02MO 09MC 02RD 02RO	1	0	1.74828910828	-179.0	-349.0	-177	-354	1
2.7	2015_Jun_05_0912	s	s	20	5	SIC	117	ABS	1	2	02VD 02VO 02VC 10MD 02MO 02MC 02RD 02RO	0	1	1.97690010071	None	None	None	None	1
2.7	2015_Jun_05_0912	s	s	20	5	SIC	118	ABS	2	2	10VD 02VO 02VC 02MD 02MO 02MC 02RD 02RO	0	1	1.54795408249	None	None	None	None	1
2.7	2015_Jun_05_0912	s	s	20	5	SIC	119	RC	0	2	02VD 02VO 02VC 02MD 02MO 02MC 09RD 02RO	1	0	0.882157087326	475.0	-110.0	463	-108	1
2.7	2015_Jun_05_0912	s	s	20	5	SIC	120	RC	1	2	02VD 02VO 02VC 09MD 02MO 02MC 02RD 02RO	1	0	0.631795883179	-288.0	0.0	-288	-4	1
2.7	2015_Jun_05_0912	s	s	20	5	SIC	121	RC	0	1	02VD 02VO 02VC 02MD 02MO 02MC 02RD 09RO	1	0	1.96017098427	-166.0	-310.0	-171	-309	1
2.7	2015_Jun_05_0912	s	s	20	5	SIC	122	ABS	1	0	02VD 02VO 02VC 02MD 02MO 10MC 02RD 02RO	0	1	3.00088095665	None	None	None	None	1
2.7	2015_Jun_05_0912	s	s	20	5	SIC	123	ABS	2	1	02VD 10VO 02VC 02MD 02MO 02MC 02RD 02RO	0	1	2.42459392548	None	None	None	None	1
2.7	2015_Jun_05_0912	s	s	20	5	SIC	124	RC	2	1	02VD 09VO 02VC 02MD 02MO 02MC 02RD 02RO	1	0	1.38336801529	493.0	263.0	488	263	1
2.7	2015_Jun_05_0912	s	s	20	5	SIC	125	ABS	1	1	02VD 02VO 02VC 02MD 10MO 02MC 02RD 02RO	0	1	2.40053486824	None	None	None	None	1
2.7	2015_Jun_05_0912	s	s	20	5	SIC	126	ABS	2	0	02VD 02VO 10VC 02MD 02MO 02MC 02RD 02RO	0	1	1.75896811485	None	None	None	None	1
2.7	2015_Jun_05_0912	s	s	20	5	SIC	127	RC	2	0	02VD 02VO 09VC 02MD 02MO 02MC 02RD 02RO	1	0	1.00624299049	-203.0	-325.0	-200	-326	1
2.7	2015_Jun_05_0912	s	s	20	5	SIC	128	ABS	0	1	02VD 02VO 02VC 02MD 02MO 02MC 02RD 10RO	0	1	4.02491497993	None	None	None	None	1
2.7	2015_Jun_05_0912	s	s	20	5	SIC	129	RC	2	0	02VD 02VO 09VC 02MD 02MO 02MC 02RD 02RO	1	0	1.40699505806	-531.0	98.0	-538	91	1
2.7	2015_Jun_05_0912	s	s	20	5	SIC	130	ABS	1	1	02VD 02VO 02VC 02MD 10MO 02MC 02RD 02RO	0	1	2.33682990074	None	None	None	None	1
2.7	2015_Jun_05_0912	s	s	20	5	SIC	131	RC	1	1	02VD 02VO 02VC 02MD 09MO 02MC 02RD 02RO	1	0	1.70416688919	478.0	35.0	481	35	1
2.7	2015_Jun_05_0912	s	s	20	5	SIC	132	RC	0	2	02VD 02VO 02VC 02MD 02MO 02MC 09RD 02RO	1	0	1.21820306778	-386.0	246.0	-392	246	1
2.7	2015_Jun_05_0912	s	s	20	5	SIC	133	ABS	1	0	02VD 02VO 02VC 02MD 02MO 10MC 02RD 02RO	0	1	2.77723288536	None	None	None	None	1
2.7	2015_Jun_05_0912	s	s	20	5	SIC	134	ABS	0	2	02VD 02VO 02VC 02MD 02MO 02MC 10RD 02RO	0	1	2.12772107124	None	None	None	None	1
2.7	2015_Jun_05_0912	s	s	20	5	SIC	135	ABS	2	2	10VD 02VO 02VC 02MD 02MO 02MC 02RD 02RO	0	1	2.1953420639	None	None	None	None	1
2.7	2015_Jun_05_0912	s	s	20	5	SIC	136	ABS	1	2	02VD 02VO 02VC 10MD 02MO 02MC 02RD 02RO	0	1	1.74856686592	None	None	None	None	1
2.7	2015_Jun_05_0912	s	s	20	5	SIC	137	ABS	2	1	02VD 10VO 02VC 02MD 02MO 02MC 02RD 02RO	0	1	1.88269305229	None	None	None	None	1
2.7	2015_Jun_05_0912	s	s	20	5	SIC	138	ABS	2	0	02VD 02VO 10VC 02MD 02MO 02MC 02RD 02RO	0	1	1.3297522068	None	None	None	None	1
2.7	2015_Jun_05_0912	s	s	20	5	SIC	139	RC	0	1	02VD 02VO 02VC 02MD 02MO 02MC 02RD 09RO	1	0	2.48836088181	-223.0	291.0	-219	285	1
2.7	2015_Jun_05_0912	s	s	20	5	SIC	140	RC	1	2	02VD 02VO 02VC 09MD 02MO 02MC 02RD 02RO	1	0	1.01785492897	-347.0	52.0	-349	60	1
2.7	2015_Jun_05_0912	s	s	20	5	SIC	141	ABS	0	1	02VD 02VO 02VC 02MD 02MO 02MC 02RD 10RO	0	1	4.34271001816	None	None	None	None	1
2.7	2015_Jun_05_0912	s	s	20	5	SIC	142	RC	1	0	02VD 02VO 02VC 02MD 02MO 09MC 02RD 02RO	1	0	2.21912789345	405.0	231.0	403	228	1
2.7	2015_Jun_05_0912	s	s	20	5	SIC	143	RC	2	2	09VD 02VO 02VC 02MD 02MO 02MC 02RD 02RO	1	0	1.18352603912	-495.0	-286.0	-500	-287	1
2.7	2015_Jun_05_0912	s	s	20	5	SIC	144	RC	2	1	02VD 09VO 02VC 02MD 02MO 02MC 02RD 02RO	1	0	1.3834900856	412.0	314.0	413	309	1
2.7	2015_Jun_05_0912	s	s	20	5	SIC	145	RC	1	0	02VD 02VO 02VC 02MD 02MO 09MC 02RD 02RO	1	0	0.749991893768	-181.0	241.0	-193	249	1
2.7	2015_Jun_05_0912	s	s	20	5	SIC	146	RC	2	2	09VD 02VO 02VC 02MD 02MO 02MC 02RD 02RO	1	0	1.47919893265	-252.0	-363.0	-245	-366	1
2.7	2015_Jun_05_0912	s	s	20	5	SIC	147	ABS	1	1	02VD 02VO 02VC 02MD 10MO 02MC 02RD 02RO	0	1	4.00137686729	None	None	None	None	1
2.7	2015_Jun_05_0912	s	s	20	5	SIC	148	RC	2	1	02VD 09VO 02VC 02MD 02MO 02MC 02RD 02RO	1	0	0.682090044022	190.0	-163.0	193	-166	1
2.7	2015_Jun_05_0912	s	s	20	5	SIC	149	ABS	1	2	02VD 02VO 02VC 10MD 02MO 02MC 02RD 02RO	0	1	2.18855285645	None	None	None	None	1
2.7	2015_Jun_05_0912	s	s	20	5	SIC	150	ABS	1	0	02VD 02VO 02VC 02MD 02MO 10MC 02RD 02RO	0	1	2.16022586823	None	None	None	None	1
2.7	2015_Jun_05_0912	s	s	20	5	SIC	151	ABS	2	1	02VD 10VO 02VC 02MD 02MO 02MC 02RD 02RO	0	1	2.29461789131	None	None	None	None	1
2.7	2015_Jun_05_0912	s	s	20	5	SIC	152	ABS	2	2	10VD 02VO 02VC 02MD 02MO 02MC 02RD 02RO	1	0	1.62412595749	None	None	308	203	0
2.7	2015_Jun_05_0912	s	s	20	5	SIC	153	RC	2	0	02VD 02VO 09VC 02MD 02MO 02MC 02RD 02RO	1	0	1.47752690315	182.0	83.0	191	84	1
2.7	2015_Jun_05_0912	s	s	20	5	SIC	154	RC	1	2	02VD 02VO 02VC 09MD 02MO 02MC 02RD 02RO	1	0	0.938617229462	-168.0	-268.0	-180	-264	1
2.7	2015_Jun_05_0912	s	s	20	5	SIC	155	ABS	2	0	02VD 02VO 10VC 02MD 02MO 02MC 02RD 02RO	0	1	2.25374293327	None	None	None	None	1
2.7	2015_Jun_05_0912	s	s	20	5	SIC	156	ABS	0	2	02VD 02VO 02VC 02MD 02MO 02MC 10RD 02RO	0	1	1.99573206902	None	None	None	None	1
2.7	2015_Jun_05_0912	s	s	20	5	SIC	157	RC	0	1	02VD 02VO 02VC 02MD 02MO 02MC 02RD 09RO	1	0	1.56489491463	476.0	-121.0	486	-113	1
2.7	2015_Jun_05_0912	s	s	20	5	SIC	158	RC	0	2	02VD 02VO 02VC 02MD 02MO 02MC 09RD 02RO	1	0	1.47062301636	316.0	-211.0	321	-208	1
2.7	2015_Jun_05_0912	s	s	20	5	SIC	159	RC	1	1	02VD 02VO 02VC 02MD 09MO 02MC 02RD 02RO	1	0	1.28238296509	-502.0	91.0	-511	89	1
2.7	2015_Jun_05_0912	s	s	20	5	SIC	160	ABS	0	1	02VD 02VO 02VC 02MD 02MO 02MC 02RD 10RO	0	1	4.220058918	None	None	None	None	1
2.7	2015_Jun_05_0912	s	s	20	5	SIC	161	ABS	2	1	02VD 10VO 02VC 02MD 02MO 02MC 02RD 02RO	0	1	2.03235816956	None	None	None	None	1
2.7	2015_Jun_05_0912	s	s	20	5	SIC	162	RC	1	2	02VD 02VO 02VC 09MD 02MO 02MC 02RD 02RO	1	0	0.717393159866	247.0	-252.0	253	-252	1
2.7	2015_Jun_05_0912	s	s	20	5	SIC	163	ABS	2	0	02VD 02VO 10VC 02MD 02MO 02MC 02RD 02RO	0	1	2.30322480202	None	None	None	None	1
2.7	2015_Jun_05_0912	s	s	20	5	SIC	164	ABS	2	2	10VD 02VO 02VC 02MD 02MO 02MC 02RD 02RO	0	1	5.225522995	None	None	None	None	1
2.7	2015_Jun_05_0912	s	s	20	5	SIC	165	RC	2	2	09VD 02VO 02VC 02MD 02MO 02MC 02RD 02RO	1	0	0.606470108032	5.0	-13.0	9	-8	1
2.7	2015_Jun_05_0912	s	s	20	5	SIC	166	ABS	1	2	02VD 02VO 02VC 10MD 02MO 02MC 02RD 02RO	0	1	2.03563213348	None	None	None	None	1
2.7	2015_Jun_05_0912	s	s	20	5	SIC	167	RC	0	1	02VD 02VO 02VC 02MD 02MO 02MC 02RD 09RO	1	0	1.10577511787	-307.0	10.0	-308	10	1
2.7	2015_Jun_05_0912	s	s	20	5	SIC	168	ABS	1	1	02VD 02VO 02VC 02MD 10MO 02MC 02RD 02RO	0	1	3.9071059227	None	None	None	None	1
2.7	2015_Jun_05_0912	s	s	20	5	SIC	169	RC	1	1	02VD 02VO 02VC 02MD 09MO 02MC 02RD 02RO	1	0	1.60756897926	-395.0	299.0	-397	300	1
2.7	2015_Jun_05_0912	s	s	20	5	SIC	170	ABS	0	2	02VD 02VO 02VC 02MD 02MO 02MC 10RD 02RO	0	1	1.38828706741	None	None	None	None	1
2.7	2015_Jun_05_0912	s	s	20	5	SIC	171	RC	0	2	02VD 02VO 02VC 02MD 02MO 02MC 09RD 02RO	1	0	1.0822930336	503.0	-89.0	508	-82	1
2.7	2015_Jun_05_0912	s	s	20	5	SIC	172	ABS	1	0	02VD 02VO 02VC 02MD 02MO 10MC 02RD 02RO	0	1	5.82578086853	None	None	None	None	1
2.7	2015_Jun_05_0912	s	s	20	5	SIC	173	ABS	0	1	02VD 02VO 02VC 02MD 02MO 02MC 02RD 10RO	0	1	3.93783998489	None	None	None	None	1
2.7	2015_Jun_05_0912	s	s	20	5	SIC	174	RC	2	0	02VD 02VO 09VC 02MD 02MO 02MC 02RD 02RO	1	0	1.56486201286	142.0	-319.0	146	-320	1
2.7	2015_Jun_05_0912	s	s	20	5	SIC	175	RC	2	1	02VD 09VO 02VC 02MD 02MO 02MC 02RD 02RO	1	0	1.56486105919	193.0	355.0	188	353	1
2.7	2015_Jun_05_0912	s	s	20	5	SIC	176	RC	1	0	02VD 02VO 02VC 02MD 02MO 09MC 02RD 02RO	1	0	0.771322011948	-148.0	-180.0	-147	-177	1
2.7	2015_Jun_05_0912	s	s	20	5	SIC	177	RC	1	0	02VD 02VO 02VC 02MD 02MO 09MC 02RD 02RO	1	0	2.71346592903	-147.0	-407.0	-148	-404	1
2.7	2015_Jun_05_0912	s	s	20	5	SIC	178	ABS	1	0	02VD 02VO 02VC 02MD 02MO 10MC 02RD 02RO	0	1	3.81871509552	None	None	None	None	1
2.7	2015_Jun_05_0912	s	s	20	5	SIC	179	ABS	2	2	10VD 02VO 02VC 02MD 02MO 02MC 02RD 02RO	0	1	2.74893093109	None	None	None	None	1
2.7	2015_Jun_05_0912	s	s	20	5	SIC	180	RC	2	0	02VD 02VO 09VC 02MD 02MO 02MC 02RD 02RO	1	0	1.43916893005	454.0	-364.0	446	-356	1
2.7	2015_Jun_05_0912	s	s	20	5	SIC	181	RC	1	1	02VD 02VO 02VC 02MD 09MO 02MC 02RD 02RO	1	0	2.15336203575	-352.0	-159.0	-352	-165	1
2.7	2015_Jun_05_0912	s	s	20	5	SIC	182	RC	2	2	09VD 02VO 02VC 02MD 02MO 02MC 02RD 02RO	1	0	1.34937214851	488.0	-140.0	483	-132	1
2.7	2015_Jun_05_0912	s	s	20	5	SIC	183	RC	0	1	02VD 02VO 02VC 02MD 02MO 02MC 02RD 09RO	1	0	3.03348588943	-513.0	119.0	-519	117	1
2.7	2015_Jun_05_0912	s	s	20	5	SIC	184	RC	1	2	02VD 02VO 02VC 09MD 02MO 02MC 02RD 02RO	1	0	0.929305076599	323.0	18.0	321	22	1
2.7	2015_Jun_05_0912	s	s	20	5	SIC	185	ABS	1	2	02VD 02VO 02VC 10MD 02MO 02MC 02RD 02RO	0	1	1.87667512894	None	None	None	None	1
2.7	2015_Jun_05_0912	s	s	20	5	SIC	186	ABS	2	1	02VD 10VO 02VC 02MD 02MO 02MC 02RD 02RO	0	1	1.80708599091	None	None	None	None	1
2.7	2015_Jun_05_0912	s	s	20	5	SIC	187	RC	2	1	02VD 09VO 02VC 02MD 02MO 02MC 02RD 02RO	1	0	0.818181037903	411.0	57.0	409	58	1
2.7	2015_Jun_05_0912	s	s	20	5	SIC	188	ABS	1	1	02VD 02VO 02VC 02MD 10MO 02MC 02RD 02RO	0	1	2.02393698692	None	None	None	None	1
2.7	2015_Jun_05_0912	s	s	20	5	SIC	189	ABS	0	2	02VD 02VO 02VC 02MD 02MO 02MC 10RD 02RO	0	1	1.79520988464	None	None	None	None	1
2.7	2015_Jun_05_0912	s	s	20	5	SIC	190	RC	0	2	02VD 02VO 02VC 02MD 02MO 02MC 09RD 02RO	1	0	1.21949887276	106.0	-37.0	96	-36	1
2.7	2015_Jun_05_0912	s	s	20	5	SIC	191	ABS	2	0	02VD 02VO 10VC 02MD 02MO 02MC 02RD 02RO	0	1	1.84323811531	None	None	None	None	1
2.7	2015_Jun_05_0912	s	s	20	5	SIC	192	ABS	0	1	02VD 02VO 02VC 02MD 02MO 02MC 02RD 10RO	0	1	3.81337118149	None	None	None	None	1
2.7	2015_Jun_05_0912	s	s	20	5	SIC	193	ABS	2	1	02VD 10VO 02VC 02MD 02MO 02MC 02RD 02RO	0	1	2.03048300743	None	None	None	None	1
2.7	2015_Jun_05_0912	s	s	20	5	SIC	194	RC	0	2	02VD 02VO 02VC 02MD 02MO 02MC 09RD 02RO	1	0	2.00712680817	100.0	-379.0	107	-377	1
2.7	2015_Jun_05_0912	s	s	20	5	SIC	195	ABS	2	0	02VD 02VO 10VC 02MD 02MO 02MC 02RD 02RO	0	1	1.31793999672	None	None	None	None	1
2.7	2015_Jun_05_0912	s	s	20	5	SIC	196	ABS	0	1	02VD 02VO 02VC 02MD 02MO 02MC 02RD 10RO	0	1	3.67801308632	None	None	None	None	1
2.7	2015_Jun_05_0912	s	s	20	5	SIC	197	RC	2	2	09VD 02VO 02VC 02MD 02MO 02MC 02RD 02RO	1	0	0.785291910172	-73.0	-321.0	-64	-316	1
2.7	2015_Jun_05_0912	s	s	20	5	SIC	198	RC	1	1	02VD 02VO 02VC 02MD 09MO 02MC 02RD 02RO	1	0	1.05324602127	204.0	-6.0	210	-8	1
2.7	2015_Jun_05_0912	s	s	20	5	SIC	199	RC	1	2	02VD 02VO 02VC 09MD 02MO 02MC 02RD 02RO	1	0	0.688862085342	4.0	118.0	-2	113	1
2.7	2015_Jun_05_0912	s	s	20	5	SIC	200	ABS	0	2	02VD 02VO 02VC 02MD 02MO 02MC 10RD 02RO	0	1	1.8895008564	None	None	None	None	1
2.7	2015_Jun_05_0912	s	s	20	5	SIC	201	ABS	1	0	02VD 02VO 02VC 02MD 02MO 10MC 02RD 02RO	0	1	2.4244890213	None	None	None	None	1
2.7	2015_Jun_05_0912	s	s	20	5	SIC	202	ABS	2	2	10VD 02VO 02VC 02MD 02MO 02MC 02RD 02RO	0	1	1.41226816177	None	None	None	None	1
2.7	2015_Jun_05_0912	s	s	20	5	SIC	203	RC	0	1	02VD 02VO 02VC 02MD 02MO 02MC 02RD 09RO	1	0	1.05886697769	218.0	-50.0	217	-49	1
2.7	2015_Jun_05_0912	s	s	20	5	SIC	204	RC	2	0	02VD 02VO 09VC 02MD 02MO 02MC 02RD 02RO	1	0	0.611470937729	-172.0	147.0	-181	154	1
2.7	2015_Jun_05_0912	s	s	20	5	SIC	205	ABS	1	1	02VD 02VO 02VC 02MD 10MO 02MC 02RD 02RO	0	1	2.73696112633	None	None	None	None	1
2.7	2015_Jun_05_0912	s	s	20	5	SIC	206	ABS	1	2	02VD 02VO 02VC 10MD 02MO 02MC 02RD 02RO	0	1	2.57331705093	None	None	None	None	1
2.7	2015_Jun_05_0912	s	s	20	5	SIC	207	RC	2	1	02VD 09VO 02VC 02MD 02MO 02MC 02RD 02RO	1	0	0.691102027893	149.0	-8.0	147	-10	1
2.7	2015_Jun_05_0912	s	s	20	5	SIC	208	RC	1	0	02VD 02VO 02VC 02MD 02MO 09MC 02RD 02RO	1	0	0.902593135834	-248.0	111.0	-244	101	1
2.7	2015_Jun_05_0912	s	s	20	5	SIC	209	ABS	0	2	02VD 02VO 02VC 02MD 02MO 02MC 10RD 02RO	0	1	2.31314897537	None	None	None	None	1
2.7	2015_Jun_05_0912	s	s	20	5	SIC	210	RC	2	1	02VD 09VO 02VC 02MD 02MO 02MC 02RD 02RO	1	0	0.587740898132	-92.0	-106.0	-94	-104	1
2.7	2015_Jun_05_0912	s	s	20	5	SIC	211	RC	1	1	02VD 02VO 02VC 02MD 09MO 02MC 02RD 02RO	1	0	1.55304002762	341.0	338.0	344	338	1
2.7	2015_Jun_05_0912	s	s	20	5	SIC	212	RC	1	0	02VD 02VO 02VC 02MD 02MO 09MC 02RD 02RO	1	0	0.794839859009	-93.0	-270.0	-93	-271	1
2.7	2015_Jun_05_0912	s	s	20	5	SIC	213	ABS	1	0	02VD 02VO 02VC 02MD 02MO 10MC 02RD 02RO	0	1	2.3250181675	None	None	None	None	1
2.7	2015_Jun_05_0912	s	s	20	5	SIC	214	ABS	2	1	02VD 10VO 02VC 02MD 02MO 02MC 02RD 02RO	0	1	1.96059203148	None	None	None	None	1
2.7	2015_Jun_05_0912	s	s	20	5	SIC	215	ABS	0	1	02VD 02VO 02VC 02MD 02MO 02MC 02RD 10RO	0	1	3.73767995834	None	None	None	None	1
2.7	2015_Jun_05_0912	s	s	20	5	SIC	216	ABS	2	2	10VD 02VO 02VC 02MD 02MO 02MC 02RD 02RO	0	1	1.86754393578	None	None	None	None	1
2.7	2015_Jun_05_0912	s	s	20	5	SIC	217	RC	2	0	02VD 02VO 09VC 02MD 02MO 02MC 02RD 02RO	1	0	2.06557798386	34.0	357.0	39	355	1
2.7	2015_Jun_05_0912	s	s	20	5	SIC	218	ABS	1	2	02VD 02VO 02VC 10MD 02MO 02MC 02RD 02RO	0	1	2.24283790588	None	None	None	None	1
2.7	2015_Jun_05_0912	s	s	20	5	SIC	219	ABS	1	1	02VD 02VO 02VC 02MD 10MO 02MC 02RD 02RO	0	1	2.40443515778	None	None	None	None	1
2.7	2015_Jun_05_0912	s	s	20	5	SIC	220	RC	2	2	09VD 02VO 02VC 02MD 02MO 02MC 02RD 02RO	1	0	0.876553058624	-209.0	122.0	-205	120	1
2.7	2015_Jun_05_0912	s	s	20	5	SIC	221	RC	0	1	02VD 02VO 02VC 02MD 02MO 02MC 02RD 09RO	1	0	3.30682492256	-506.0	-46.0	-507	-45	1
2.7	2015_Jun_05_0912	s	s	20	5	SIC	222	RC	1	2	02VD 02VO 02VC 09MD 02MO 02MC 02RD 02RO	1	0	0.512303113937	-47.0	-84.0	-43	-87	1
2.7	2015_Jun_05_0912	s	s	20	5	SIC	223	RC	0	2	02VD 02VO 02VC 02MD 02MO 02MC 09RD 02RO	1	0	0.693825006485	-114.0	-262.0	-128	-254	1
2.7	2015_Jun_05_0912	s	s	20	5	SIC	224	ABS	2	0	02VD 02VO 10VC 02MD 02MO 02MC 02RD 02RO	0	1	2.00975990295	None	None	None	None	1
2.7	2015_Jun_05_0912	s	s	20	5	SIC	225	RC	1	0	02VD 02VO 02VC 02MD 02MO 09MC 02RD 02RO	1	0	0.740883111954	-68.0	-345.0	-70	-349	1
2.7	2015_Jun_05_0912	s	s	20	5	SIC	226	RC	2	2	09VD 02VO 02VC 02MD 02MO 02MC 02RD 02RO	1	0	1.21854901314	-373.0	225.0	-374	220	1
2.7	2015_Jun_05_0912	s	s	20	5	SIC	227	RC	0	1	02VD 02VO 02VC 02MD 02MO 02MC 02RD 09RO	1	0	1.34802913666	394.0	-319.0	392	-313	1
2.7	2015_Jun_05_0912	s	s	20	5	SIC	228	ABS	0	1	02VD 02VO 02VC 02MD 02MO 02MC 02RD 10RO	0	1	6.32696008682	None	None	None	None	1
2.7	2015_Jun_05_0912	s	s	20	5	SIC	229	ABS	2	2	10VD 02VO 02VC 02MD 02MO 02MC 02RD 02RO	0	1	2.90171098709	None	None	None	None	1
2.7	2015_Jun_05_0912	s	s	20	5	SIC	230	ABS	0	2	02VD 02VO 02VC 02MD 02MO 02MC 10RD 02RO	0	1	2.96275305748	None	None	None	None	1
2.7	2015_Jun_05_0912	s	s	20	5	SIC	231	ABS	1	2	02VD 02VO 02VC 10MD 02MO 02MC 02RD 02RO	0	1	1.71801519394	None	None	None	None	1
2.7	2015_Jun_05_0912	s	s	20	5	SIC	232	ABS	1	1	02VD 02VO 02VC 02MD 10MO 02MC 02RD 02RO	0	1	3.20138096809	None	None	None	None	1
2.7	2015_Jun_05_0912	s	s	20	5	SIC	233	RC	2	1	02VD 09VO 02VC 02MD 02MO 02MC 02RD 02RO	1	0	0.677526950836	282.0	67.0	288	72	1
2.7	2015_Jun_05_0912	s	s	20	5	SIC	234	RC	1	2	02VD 02VO 02VC 09MD 02MO 02MC 02RD 02RO	1	0	0.93768286705	-376.0	13.0	-377	7	1
2.7	2015_Jun_05_0912	s	s	20	5	SIC	235	RC	1	1	02VD 02VO 02VC 02MD 09MO 02MC 02RD 02RO	1	0	1.16461491585	393.0	-282.0	399	-274	1
2.7	2015_Jun_05_0912	s	s	20	5	SIC	236	RC	2	0	02VD 02VO 09VC 02MD 02MO 02MC 02RD 02RO	1	0	1.13763403893	414.0	-7.0	409	-10	1
2.7	2015_Jun_05_0912	s	s	20	5	SIC	237	RC	0	2	02VD 02VO 02VC 02MD 02MO 02MC 09RD 02RO	1	0	0.794821977615	-353.0	94.0	-358	99	1
2.7	2015_Jun_05_0912	s	s	20	5	SIC	238	ABS	2	1	02VD 10VO 02VC 02MD 02MO 02MC 02RD 02RO	0	1	2.36904001236	None	None	None	None	1
2.7	2015_Jun_05_0912	s	s	20	5	SIC	239	ABS	1	0	02VD 02VO 02VC 02MD 02MO 10MC 02RD 02RO	0	1	2.54909014702	None	None	None	None	1
2.7	2015_Jun_05_0912	s	s	20	5	SIC	240	ABS	2	0	02VD 02VO 10VC 02MD 02MO 02MC 02RD 02RO	1	0	5.50248193741	None	None	-19	-225	0
2.7	2015_Jun_05_0912	s	s	20	5	SIC	241	ABS	0	1	02VD 02VO 02VC 02MD 02MO 02MC 02RD 10RO	0	1	3.59563302994	None	None	None	None	1
2.7	2015_Jun_05_0912	s	s	20	5	SIC	242	RC	2	0	02VD 02VO 09VC 02MD 02MO 02MC 02RD 02RO	1	0	0.549593925476	-23.0	-54.0	-26	-52	1
2.7	2015_Jun_05_0912	s	s	20	5	SIC	243	RC	2	1	02VD 09VO 02VC 02MD 02MO 02MC 02RD 02RO	1	0	0.994834184647	375.0	-293.0	366	-288	1
2.7	2015_Jun_05_0912	s	s	20	5	SIC	244	ABS	2	0	02VD 02VO 10VC 02MD 02MO 02MC 02RD 02RO	0	1	2.60068297386	None	None	None	None	1
2.7	2015_Jun_05_0912	s	s	20	5	SIC	245	ABS	1	1	02VD 02VO 02VC 02MD 10MO 02MC 02RD 02RO	0	1	3.66684293747	None	None	None	None	1
2.7	2015_Jun_05_0912	s	s	20	5	SIC	246	RC	2	2	09VD 02VO 02VC 02MD 02MO 02MC 02RD 02RO	1	0	0.685878992081	-148.0	328.0	-145	324	1
2.7	2015_Jun_05_0912	s	s	20	5	SIC	247	ABS	1	0	02VD 02VO 02VC 02MD 02MO 10MC 02RD 02RO	0	1	2.07094502449	None	None	None	None	1
2.7	2015_Jun_05_0912	s	s	20	5	SIC	248	RC	1	1	02VD 02VO 02VC 02MD 09MO 02MC 02RD 02RO	1	0	1.11757087708	117.0	-341.0	117	-341	1
2.7	2015_Jun_05_0912	s	s	20	5	SIC	249	ABS	0	2	02VD 02VO 02VC 02MD 02MO 02MC 10RD 02RO	0	1	1.48232412338	None	None	None	None	1
2.7	2015_Jun_05_0912	s	s	20	5	SIC	250	RC	0	2	02VD 02VO 02VC 02MD 02MO 02MC 09RD 02RO	1	0	1.14824008942	-437.0	-203.0	-446	-202	1
2.7	2015_Jun_05_0912	s	s	20	5	SIC	251	RC	0	1	02VD 02VO 02VC 02MD 02MO 02MC 02RD 09RO	1	0	2.46622419357	322.0	342.0	327	346	1
2.7	2015_Jun_05_0912	s	s	20	5	SIC	252	ABS	2	2	10VD 02VO 02VC 02MD 02MO 02MC 02RD 02RO	0	1	1.41176199913	None	None	None	None	1
2.7	2015_Jun_05_0912	s	s	20	5	SIC	253	ABS	2	1	02VD 10VO 02VC 02MD 02MO 02MC 02RD 02RO	0	1	1.46790504456	None	None	None	None	1
2.7	2015_Jun_05_0912	s	s	20	5	SIC	254	RC	1	2	02VD 02VO 02VC 09MD 02MO 02MC 02RD 02RO	1	0	1.52462601662	-494.0	354.0	-496	342	1
2.7	2015_Jun_05_0912	s	s	20	5	SIC	255	ABS	1	2	02VD 02VO 02VC 10MD 02MO 02MC 02RD 02RO	0	1	1.28925204277	None	None	None	None	1
2.7	2015_Jun_05_0912	s	s	20	5	SIC	256	RC	1	0	02VD 02VO 02VC 02MD 02MO 09MC 02RD 02RO	1	0	0.599679946899	-344.0	158.0	-350	157	1
2.7	2015_Jun_05_0912	s	s	20	5	SIC	257	RC	2	0	02VD 02VO 09VC 02MD 02MO 02MC 02RD 02RO	1	0	1.72480392456	508.0	372.0	509	366	1
2.7	2015_Jun_05_0912	s	s	20	5	SIC	258	ABS	2	1	02VD 10VO 02VC 02MD 02MO 02MC 02RD 02RO	0	1	1.88268184662	None	None	None	None	1
2.7	2015_Jun_05_0912	s	s	20	5	SIC	259	ABS	1	1	02VD 02VO 02VC 02MD 10MO 02MC 02RD 02RO	0	1	2.77729892731	None	None	None	None	1
2.7	2015_Jun_05_0912	s	s	20	5	SIC	260	RC	2	2	09VD 02VO 02VC 02MD 02MO 02MC 02RD 02RO	1	0	0.670246124268	-430.0	72.0	-433	66	1
2.7	2015_Jun_05_0912	s	s	20	5	SIC	261	RC	1	2	02VD 02VO 02VC 09MD 02MO 02MC 02RD 02RO	1	0	1.20726180077	231.0	297.0	231	298	1
2.7	2015_Jun_05_0912	s	s	20	5	SIC	262	RC	2	1	02VD 09VO 02VC 02MD 02MO 02MC 02RD 02RO	1	0	0.768304109573	-316.0	-61.0	-308	-63	1
2.7	2015_Jun_05_0912	s	s	20	5	SIC	263	ABS	2	2	10VD 02VO 02VC 02MD 02MO 02MC 02RD 02RO	0	1	1.53628897667	None	None	None	None	1
2.7	2015_Jun_05_0912	s	s	20	5	SIC	264	RC	0	1	02VD 02VO 02VC 02MD 02MO 02MC 02RD 09RO	1	0	0.65357208252	-230.0	-88.0	-240	-90	1
2.7	2015_Jun_05_0912	s	s	20	5	SIC	265	RC	0	2	02VD 02VO 02VC 02MD 02MO 02MC 09RD 02RO	1	0	1.11250686646	100.0	338.0	104	342	1
2.7	2015_Jun_05_0912	s	s	20	5	SIC	266	ABS	1	2	02VD 02VO 02VC 10MD 02MO 02MC 02RD 02RO	0	1	2.75373101234	None	None	None	None	1
2.7	2015_Jun_05_0912	s	s	20	5	SIC	267	ABS	1	0	02VD 02VO 02VC 02MD 02MO 10MC 02RD 02RO	0	1	2.52543401718	None	None	None	None	1
2.7	2015_Jun_05_0912	s	s	20	5	SIC	268	ABS	2	0	02VD 02VO 10VC 02MD 02MO 02MC 02RD 02RO	0	1	1.59520983696	None	None	None	None	1
2.7	2015_Jun_05_0912	s	s	20	5	SIC	269	ABS	0	1	02VD 02VO 02VC 02MD 02MO 02MC 02RD 10RO	0	1	3.78942584991	None	None	None	None	1
2.7	2015_Jun_05_0912	s	s	20	5	SIC	270	RC	1	0	02VD 02VO 02VC 02MD 02MO 09MC 02RD 02RO	1	0	0.717375040054	-459.0	170.0	-466	174	1
2.7	2015_Jun_05_0912	s	s	20	5	SIC	271	RC	1	1	02VD 02VO 02VC 02MD 09MO 02MC 02RD 02RO	1	0	0.788012981415	-352.0	-400.0	-356	-403	1
2.7	2015_Jun_05_0912	s	s	20	5	SIC	272	ABS	0	2	02VD 02VO 02VC 02MD 02MO 02MC 10RD 02RO	0	1	3.30209302902	None	None	None	None	1
2.7	2015_Jun_05_0912	s	s	20	5	SIC	273	ABS	2	0	02VD 02VO 10VC 02MD 02MO 02MC 02RD 02RO	0	1	2.00719499588	None	None	None	None	1
2.7	2015_Jun_05_0912	s	s	20	5	SIC	274	RC	2	2	09VD 02VO 02VC 02MD 02MO 02MC 02RD 02RO	1	0	0.983199834824	303.0	-301.0	296	-292	1
2.7	2015_Jun_05_0912	s	s	20	5	SIC	275	RC	1	1	02VD 02VO 02VC 02MD 09MO 02MC 02RD 02RO	1	0	1.41182780266	163.0	-390.0	166	-387	1
2.7	2015_Jun_05_0912	s	s	20	5	SIC	276	RC	1	2	02VD 02VO 02VC 09MD 02MO 02MC 02RD 02RO	1	0	0.903409004211	-489.0	149.0	-479	149	1
2.7	2015_Jun_05_0912	s	s	20	5	SIC	277	RC	2	0	02VD 02VO 09VC 02MD 02MO 02MC 02RD 02RO	1	0	1.3258960247	513.0	406.0	512	406	1
2.7	2015_Jun_05_0912	s	s	20	5	SIC	278	RC	0	1	02VD 02VO 02VC 02MD 02MO 02MC 02RD 09RO	1	0	0.846873998642	-239.0	71.0	-244	75	1
2.7	2015_Jun_05_0912	s	s	20	5	SIC	279	ABS	2	2	10VD 02VO 02VC 02MD 02MO 02MC 02RD 02RO	0	1	3.14594221115	None	None	None	None	1
2.7	2015_Jun_05_0912	s	s	20	5	SIC	280	ABS	1	2	02VD 02VO 02VC 10MD 02MO 02MC 02RD 02RO	0	1	2.01941108704	None	None	None	None	1
2.7	2015_Jun_05_0912	s	s	20	5	SIC	281	ABS	1	1	02VD 02VO 02VC 02MD 10MO 02MC 02RD 02RO	0	1	2.64816498756	None	None	None	None	1
2.7	2015_Jun_05_0912	s	s	20	5	SIC	282	RC	1	0	02VD 02VO 02VC 02MD 02MO 09MC 02RD 02RO	1	0	0.62987613678	-252.0	-73.0	-245	-74	1
2.7	2015_Jun_05_0912	s	s	20	5	SIC	283	ABS	0	1	02VD 02VO 02VC 02MD 02MO 02MC 02RD 10RO	0	1	3.61287403107	None	None	None	None	1
2.7	2015_Jun_05_0912	s	s	20	5	SIC	284	RC	2	1	02VD 09VO 02VC 02MD 02MO 02MC 02RD 02RO	1	0	1.17146992683	97.0	-245.0	100	-237	1
2.7	2015_Jun_05_0912	s	s	20	5	SIC	285	ABS	2	1	02VD 10VO 02VC 02MD 02MO 02MC 02RD 02RO	0	1	1.81864500046	None	None	None	None	1
2.7	2015_Jun_05_0912	s	s	20	5	SIC	286	RC	0	2	02VD 02VO 02VC 02MD 02MO 02MC 09RD 02RO	1	0	0.882154941559	82.0	-276.0	69	-271	1
2.7	2015_Jun_05_0912	s	s	20	5	SIC	287	ABS	1	0	02VD 02VO 02VC 02MD 02MO 10MC 02RD 02RO	0	1	2.61915707588	None	None	None	None	1
2.7	2015_Jun_05_0912	s	s	20	5	SIC	288	ABS	0	2	02VD 02VO 02VC 02MD 02MO 02MC 10RD 02RO	0	1	2.49470710754	None	None	None	None	1
2.7	2015_Jun_05_0912	s	s	20	5	SIC	289	ABS	2	2	10VD 02VO 02VC 02MD 02MO 02MC 02RD 02RO	0	1	1.87128996849	None	None	None	None	1
2.7	2015_Jun_05_0912	s	s	20	5	SIC	290	ABS	1	2	02VD 02VO 02VC 10MD 02MO 02MC 02RD 02RO	0	1	1.62370991707	None	None	None	None	1
2.7	2015_Jun_05_0912	s	s	20	5	SIC	291	RC	2	2	09VD 02VO 02VC 02MD 02MO 02MC 02RD 02RO	1	0	1.84760403633	451.0	-258.0	451	-262	1
2.7	2015_Jun_05_0912	s	s	20	5	SIC	292	ABS	0	2	02VD 02VO 02VC 02MD 02MO 02MC 10RD 02RO	0	1	1.41895890236	None	None	None	None	1
2.7	2015_Jun_05_0912	s	s	20	5	SIC	293	RC	2	1	02VD 09VO 02VC 02MD 02MO 02MC 02RD 02RO	1	0	1.07047796249	218.0	363.0	223	352	1
2.7	2015_Jun_05_0912	s	s	20	5	SIC	294	RC	0	2	02VD 02VO 02VC 02MD 02MO 02MC 09RD 02RO	1	0	0.535934209824	-370.0	117.0	-379	116	1
2.7	2015_Jun_05_0912	s	s	20	5	SIC	295	ABS	1	0	02VD 02VO 02VC 02MD 02MO 10MC 02RD 02RO	0	1	2.19558596611	None	None	None	None	1
2.7	2015_Jun_05_0912	s	s	20	5	SIC	296	ABS	2	0	02VD 02VO 10VC 02MD 02MO 02MC 02RD 02RO	0	1	1.91303610802	None	None	None	None	1
2.7	2015_Jun_05_0912	s	s	20	5	SIC	297	RC	2	0	02VD 02VO 09VC 02MD 02MO 02MC 02RD 02RO	1	0	1.10316777229	95.0	-208.0	92	-202	1
2.7	2015_Jun_05_0912	s	s	20	5	SIC	298	ABS	2	1	02VD 10VO 02VC 02MD 02MO 02MC 02RD 02RO	0	1	1.80024409294	None	None	None	None	1
2.7	2015_Jun_05_0912	s	s	20	5	SIC	299	RC	1	0	02VD 02VO 02VC 02MD 02MO 09MC 02RD 02RO	1	0	1.28238415718	66.0	284.0	58	280	1
2.7	2015_Jun_05_0912	s	s	20	5	SIC	300	ABS	0	1	02VD 02VO 02VC 02MD 02MO 02MC 02RD 10RO	0	1	3.51454806328	None	None	None	None	1
2.7	2015_Jun_05_0912	s	s	20	5	SIC	301	ABS	1	1	02VD 02VO 02VC 02MD 10MO 02MC 02RD 02RO	0	1	2.48325991631	None	None	None	None	1
2.7	2015_Jun_05_0912	s	s	20	5	SIC	302	RC	0	1	02VD 02VO 02VC 02MD 02MO 02MC 02RD 09RO	0	1	1.17640805244	-202.0	170.0	None	None	0
2.7	2015_Jun_05_0912	s	s	20	5	SIC	303	RC	1	1	02VD 02VO 02VC 02MD 09MO 02MC 02RD 02RO	1	0	0.783210039139	-505.0	375.0	-505	370	1
2.7	2015_Jun_05_0912	s	s	20	5	SIC	304	RC	1	2	02VD 02VO 02VC 09MD 02MO 02MC 02RD 02RO	1	0	1.41182398796	513.0	-173.0	514	-179	1
2.7	2015_Jun_05_0912	s	s	20	5	SIC	305	ABS	2	1	02VD 10VO 02VC 02MD 02MO 02MC 02RD 02RO	0	1	2.16178679466	None	None	None	None	1
2.7	2015_Jun_05_0912	s	s	20	5	SIC	306	ABS	2	0	02VD 02VO 10VC 02MD 02MO 02MC 02RD 02RO	0	1	1.24152398109	None	None	None	None	1
2.7	2015_Jun_05_0912	s	s	20	5	SIC	307	RC	2	1	02VD 09VO 02VC 02MD 02MO 02MC 02RD 02RO	1	0	0.6536860466	-203.0	306.0	-196	307	1
2.7	2015_Jun_05_0912	s	s	20	5	SIC	308	ABS	1	1	02VD 02VO 02VC 02MD 10MO 02MC 02RD 02RO	0	1	2.99851584435	None	None	None	None	1
2.7	2015_Jun_05_0912	s	s	20	5	SIC	309	ABS	0	2	02VD 02VO 02VC 02MD 02MO 02MC 10RD 02RO	0	1	2.40056705475	None	None	None	None	1
2.7	2015_Jun_05_0912	s	s	20	5	SIC	310	ABS	2	2	10VD 02VO 02VC 02MD 02MO 02MC 02RD 02RO	0	1	1.72411894798	None	None	None	None	1
2.7	2015_Jun_05_0912	s	s	20	5	SIC	311	RC	2	2	09VD 02VO 02VC 02MD 02MO 02MC 02RD 02RO	1	0	1.18501806259	-76.0	205.0	-79	207	1
2.7	2015_Jun_05_0912	s	s	20	5	SIC	312	ABS	1	0	02VD 02VO 02VC 02MD 02MO 10MC 02RD 02RO	0	1	2.33725404739	None	None	None	None	1
2.7	2015_Jun_05_0912	s	s	20	5	SIC	313	RC	0	2	02VD 02VO 02VC 02MD 02MO 02MC 09RD 02RO	1	0	1.97681188583	-217.0	-382.0	-218	-379	1
2.7	2015_Jun_05_0912	s	s	20	5	SIC	314	RC	1	2	02VD 02VO 02VC 09MD 02MO 02MC 02RD 02RO	1	0	1.12133693695	532.0	312.0	541	311	1
2.7	2015_Jun_05_0912	s	s	20	5	SIC	315	RC	1	0	02VD 02VO 02VC 02MD 02MO 09MC 02RD 02RO	1	0	1.71316099167	385.0	285.0	388	288	1
2.7	2015_Jun_05_0912	s	s	20	5	SIC	316	RC	1	1	02VD 02VO 02VC 02MD 09MO 02MC 02RD 02RO	1	0	2.10628008842	-345.0	359.0	-346	355	1
2.7	2015_Jun_05_0912	s	s	20	5	SIC	317	RC	2	0	02VD 02VO 09VC 02MD 02MO 02MC 02RD 02RO	1	0	1.02341485023	424.0	332.0	424	328	1
2.7	2015_Jun_05_0912	s	s	20	5	SIC	318	ABS	0	1	02VD 02VO 02VC 02MD 02MO 02MC 02RD 10RO	0	1	6.15539693832	None	None	None	None	1
2.7	2015_Jun_05_0912	s	s	20	5	SIC	319	RC	0	1	02VD 02VO 02VC 02MD 02MO 02MC 02RD 09RO	1	0	0.877232789993	190.0	-292.0	195	-290	1
2.7	2015_Jun_05_0912	s	s	20	5	SIC	320	ABS	1	2	02VD 02VO 02VC 10MD 02MO 02MC 02RD 02RO	0	1	2.13830304146	None	None	None	None	1
2.7	2015_Jun_05_0912	s	s	20	5	SIC	321	RC	1	0	02VD 02VO 02VC 02MD 02MO 09MC 02RD 02RO	1	0	0.987998962402	-342.0	52.0	-341	45	1
2.7	2015_Jun_05_0912	s	s	20	5	SIC	322	ABS	2	0	02VD 02VO 10VC 02MD 02MO 02MC 02RD 02RO	0	1	1.41181516647	None	None	None	None	1
2.7	2015_Jun_05_0912	s	s	20	5	SIC	323	RC	2	0	02VD 02VO 09VC 02MD 02MO 02MC 02RD 02RO	1	0	0.717338085175	-188.0	-412.0	-184	-409	1
2.7	2015_Jun_05_0912	s	s	20	5	SIC	324	ABS	2	1	02VD 10VO 02VC 02MD 02MO 02MC 02RD 02RO	0	1	2.04306602478	None	None	None	None	1
2.7	2015_Jun_05_0912	s	s	20	5	SIC	325	ABS	2	2	10VD 02VO 02VC 02MD 02MO 02MC 02RD 02RO	0	1	1.92450714111	None	None	None	None	1
2.7	2015_Jun_05_0912	s	s	20	5	SIC	326	ABS	1	2	02VD 02VO 02VC 10MD 02MO 02MC 02RD 02RO	0	1	1.86603999138	None	None	None	None	1
2.7	2015_Jun_05_0912	s	s	20	5	SIC	327	RC	0	2	02VD 02VO 02VC 02MD 02MO 02MC 09RD 02RO	1	0	2.2545800209	-371.0	65.0	-369	64	1
2.7	2015_Jun_05_0912	s	s	20	5	SIC	328	RC	2	2	09VD 02VO 02VC 02MD 02MO 02MC 02RD 02RO	1	0	1.96007800102	173.0	-316.0	168	-314	1
2.7	2015_Jun_05_0912	s	s	20	5	SIC	329	RC	1	1	02VD 02VO 02VC 02MD 09MO 02MC 02RD 02RO	1	0	0.658443927765	-238.0	165.0	-231	158	1
2.7	2015_Jun_05_0912	s	s	20	5	SIC	330	RC	2	1	02VD 09VO 02VC 02MD 02MO 02MC 02RD 02RO	1	0	0.97213101387	9.0	-240.0	23	-235	1
2.7	2015_Jun_05_0912	s	s	20	5	SIC	331	ABS	1	0	02VD 02VO 02VC 02MD 02MO 10MC 02RD 02RO	0	1	2.64775800705	None	None	None	None	1
2.7	2015_Jun_05_0912	s	s	20	5	SIC	332	ABS	1	1	02VD 02VO 02VC 02MD 10MO 02MC 02RD 02RO	0	1	2.21223497391	None	None	None	None	1
2.7	2015_Jun_05_0912	s	s	20	5	SIC	333	ABS	0	2	02VD 02VO 02VC 02MD 02MO 02MC 10RD 02RO	0	1	1.66596794128	None	None	None	None	1
2.7	2015_Jun_05_0912	s	s	20	5	SIC	334	ABS	0	1	02VD 02VO 02VC 02MD 02MO 02MC 02RD 10RO	0	1	8.17535185814	None	None	None	None	1
2.7	2015_Jun_05_0912	s	s	20	5	SIC	335	RC	0	1	02VD 02VO 02VC 02MD 02MO 02MC 02RD 09RO	1	0	2.93713116646	-450.0	-17.0	-444	-12	1
2.7	2015_Jun_05_0912	s	s	20	5	SIC	336	RC	1	2	02VD 02VO 02VC 09MD 02MO 02MC 02RD 02RO	1	0	0.95277094841	-21.0	-74.0	-15	-83	1
2.7	2015_Jun_05_0912	s	s	20	5	SIC	337	RC	2	0	02VD 02VO 09VC 02MD 02MO 02MC 02RD 02RO	0	1	2.5300359726	-256.0	235.0	None	None	0
2.7	2015_Jun_05_0912	s	s	20	5	SIC	338	ABS	0	2	02VD 02VO 02VC 02MD 02MO 02MC 10RD 02RO	0	1	1.7061829567	None	None	None	None	1
2.7	2015_Jun_05_0912	s	s	20	5	SIC	339	RC	1	2	02VD 02VO 02VC 09MD 02MO 02MC 02RD 02RO	0	1	2.0663189888	523.0	-136.0	None	None	0
2.7	2015_Jun_05_0912	s	s	20	5	SIC	340	ABS	2	0	02VD 02VO 10VC 02MD 02MO 02MC 02RD 02RO	0	1	7.47149300575	None	None	None	None	1
2.7	2015_Jun_05_0912	s	s	20	5	SIC	341	RC	2	1	02VD 09VO 02VC 02MD 02MO 02MC 02RD 02RO	1	0	1.18819785118	-293.0	-340.0	-297	-345	1
2.7	2015_Jun_05_0912	s	s	20	5	SIC	342	ABS	2	1	02VD 10VO 02VC 02MD 02MO 02MC 02RD 02RO	0	1	1.97421097755	None	None	None	None	1
2.7	2015_Jun_05_0912	s	s	20	5	SIC	343	ABS	1	2	02VD 02VO 02VC 10MD 02MO 02MC 02RD 02RO	0	1	1.84735393524	None	None	None	None	1
2.7	2015_Jun_05_0912	s	s	20	5	SIC	344	ABS	2	2	10VD 02VO 02VC 02MD 02MO 02MC 02RD 02RO	0	1	2.81983685493	None	None	None	None	1
2.7	2015_Jun_05_0912	s	s	20	5	SIC	345	RC	1	1	02VD 02VO 02VC 02MD 09MO 02MC 02RD 02RO	1	0	1.31795597076	-420.0	-279.0	-421	-282	1
2.7	2015_Jun_05_0912	s	s	20	5	SIC	346	RC	0	1	02VD 02VO 02VC 02MD 02MO 02MC 02RD 09RO	1	0	1.11277914047	342.0	18.0	348	16	1
2.7	2015_Jun_05_0912	s	s	20	5	SIC	347	RC	1	0	02VD 02VO 02VC 02MD 02MO 09MC 02RD 02RO	1	0	0.999788999557	245.0	280.0	245	277	1
2.7	2015_Jun_05_0912	s	s	20	5	SIC	348	ABS	0	1	02VD 02VO 02VC 02MD 02MO 02MC 02RD 10RO	1	0	2.93703508377	None	None	-50	243	0
2.7	2015_Jun_05_0912	s	s	20	5	SIC	349	ABS	1	1	02VD 02VO 02VC 02MD 10MO 02MC 02RD 02RO	0	1	3.0666308403	None	None	None	None	1
2.7	2015_Jun_05_0912	s	s	20	5	SIC	350	ABS	1	0	02VD 02VO 02VC 02MD 02MO 10MC 02RD 02RO	0	1	5.44404911995	None	None	None	None	1
2.7	2015_Jun_05_0912	s	s	20	5	SIC	351	RC	2	2	09VD 02VO 02VC 02MD 02MO 02MC 02RD 02RO	1	0	1.19994282722	523.0	328.0	525	323	1
2.7	2015_Jun_05_0912	s	s	20	5	SIC	352	RC	0	2	02VD 02VO 02VC 02MD 02MO 02MC 09RD 02RO	1	0	1.24702095985	196.0	-266.0	192	-270	1
2.7	2015_Jun_05_0912	s	s	20	5	SIC	353	RC	2	0	02VD 02VO 09VC 02MD 02MO 02MC 02RD 02RO	1	0	1.01156401634	370.0	378.0	365	378	1
2.7	2015_Jun_05_0912	s	s	20	5	SIC	354	RC	2	2	09VD 02VO 02VC 02MD 02MO 02MC 02RD 02RO	1	0	1.22036790848	212.0	-185.0	218	-188	1
2.7	2015_Jun_05_0912	s	s	20	5	SIC	355	RC	0	2	02VD 02VO 02VC 02MD 02MO 02MC 09RD 02RO	1	0	1.15284705162	433.0	-204.0	440	-196	1
2.7	2015_Jun_05_0912	s	s	20	5	SIC	356	RC	1	1	02VD 02VO 02VC 02MD 09MO 02MC 02RD 02RO	1	0	0.747900009155	-444.0	-19.0	-449	-16	1
2.7	2015_Jun_05_0912	s	s	20	5	SIC	357	ABS	1	2	02VD 02VO 02VC 10MD 02MO 02MC 02RD 02RO	0	1	1.94149780273	None	None	None	None	1
2.7	2015_Jun_05_0912	s	s	20	5	SIC	358	ABS	2	1	02VD 10VO 02VC 02MD 02MO 02MC 02RD 02RO	0	1	2.47799491882	None	None	None	None	1
2.7	2015_Jun_05_0912	s	s	20	5	SIC	359	RC	0	1	02VD 02VO 02VC 02MD 02MO 02MC 02RD 09RO	1	0	3.35394787788	-131.0	409.0	-139	412	1
2.7	2015_Jun_05_0912	s	s	20	5	SIC	360	ABS	1	1	02VD 02VO 02VC 02MD 10MO 02MC 02RD 02RO	0	1	1.96509599686	None	None	None	None	1
2.7	2015_Jun_05_0912	s	s	20	5	SIC	361	ABS	0	2	02VD 02VO 02VC 02MD 02MO 02MC 10RD 02RO	0	1	1.79809808731	None	None	None	None	1
2.7	2015_Jun_05_0912	s	s	20	5	SIC	362	RC	1	0	02VD 02VO 02VC 02MD 02MO 09MC 02RD 02RO	1	0	0.889097929001	418.0	220.0	423	219	1
2.7	2015_Jun_05_0912	s	s	20	5	SIC	363	RC	2	1	02VD 09VO 02VC 02MD 02MO 02MC 02RD 02RO	1	0	1.22369480133	371.0	367.0	367	367	1
2.7	2015_Jun_05_0912	s	s	20	5	SIC	364	ABS	0	1	02VD 02VO 02VC 02MD 02MO 02MC 02RD 10RO	0	1	3.68403697014	None	None	None	None	1
2.7	2015_Jun_05_0912	s	s	20	5	SIC	365	ABS	1	0	02VD 02VO 02VC 02MD 02MO 10MC 02RD 02RO	0	1	1.6565310955	None	None	None	None	1
2.7	2015_Jun_05_0912	s	s	20	5	SIC	366	ABS	2	2	10VD 02VO 02VC 02MD 02MO 02MC 02RD 02RO	0	1	1.94862294197	None	None	None	None	1
2.7	2015_Jun_05_0912	s	s	20	5	SIC	367	RC	1	2	02VD 02VO 02VC 09MD 02MO 02MC 02RD 02RO	1	0	0.658493995667	-159.0	224.0	-157	217	1
2.7	2015_Jun_05_0912	s	s	20	5	SIC	368	ABS	2	0	02VD 02VO 10VC 02MD 02MO 02MC 02RD 02RO	0	1	1.91436100006	None	None	None	None	1
2.7	2015_Jun_05_0912	s	s	20	5	SIC	369	ABS	1	1	02VD 02VO 02VC 02MD 10MO 02MC 02RD 02RO	0	1	2.06616282463	None	None	None	None	1
2.7	2015_Jun_05_0912	s	s	20	5	SIC	370	ABS	2	0	02VD 02VO 10VC 02MD 02MO 02MC 02RD 02RO	0	1	1.83320784569	None	None	None	None	1
2.7	2015_Jun_05_0912	s	s	20	5	SIC	371	ABS	0	1	02VD 02VO 02VC 02MD 02MO 02MC 02RD 10RO	0	1	2.76194500923	None	None	None	None	1
2.7	2015_Jun_05_0912	s	s	20	5	SIC	372	ABS	0	2	02VD 02VO 02VC 02MD 02MO 02MC 10RD 02RO	0	1	1.44711709023	None	None	None	None	1
2.7	2015_Jun_05_0912	s	s	20	5	SIC	373	RC	0	1	02VD 02VO 02VC 02MD 02MO 02MC 02RD 09RO	0	1	3.02030611038	380.0	-314.0	None	None	0
2.7	2015_Jun_05_0912	s	s	20	5	SIC	374	RC	0	2	02VD 02VO 02VC 02MD 02MO 02MC 09RD 02RO	0	1	1.73730993271	-50.0	395.0	None	None	0
2.7	2015_Jun_05_0912	s	s	20	5	SIC	375	RC	2	2	09VD 02VO 02VC 02MD 02MO 02MC 02RD 02RO	1	0	0.547871828079	114.0	152.0	114	150	1
2.7	2015_Jun_05_0912	s	s	20	5	SIC	376	RC	1	1	02VD 02VO 02VC 02MD 09MO 02MC 02RD 02RO	1	0	0.583261013031	115.0	-47.0	109	-37	1
2.7	2015_Jun_05_0912	s	s	20	5	SIC	377	ABS	2	1	02VD 10VO 02VC 02MD 02MO 02MC 02RD 02RO	0	1	1.22351384163	None	None	None	None	1
2.7	2015_Jun_05_0912	s	s	20	5	SIC	378	ABS	1	2	02VD 02VO 02VC 10MD 02MO 02MC 02RD 02RO	0	1	1.53648281097	None	None	None	None	1
2.7	2015_Jun_05_0912	s	s	20	5	SIC	379	RC	1	2	02VD 02VO 02VC 09MD 02MO 02MC 02RD 02RO	1	0	0.773061037064	-20.0	-80.0	-16	-82	1
2.7	2015_Jun_05_0912	s	s	20	5	SIC	380	RC	1	0	02VD 02VO 02VC 02MD 02MO 09MC 02RD 02RO	1	0	0.794854879379	-5.0	-244.0	-17	-243	1
2.7	2015_Jun_05_0912	s	s	20	5	SIC	381	ABS	2	2	10VD 02VO 02VC 02MD 02MO 02MC 02RD 02RO	0	1	1.76245808601	None	None	None	None	1
2.7	2015_Jun_05_0912	s	s	20	5	SIC	382	RC	2	1	02VD 09VO 02VC 02MD 02MO 02MC 02RD 02RO	1	0	0.517272949219	82.0	-101.0	90	-91	1
2.7	2015_Jun_05_0912	s	s	20	5	SIC	383	RC	2	0	02VD 02VO 09VC 02MD 02MO 02MC 02RD 02RO	1	0	0.747763872147	-379.0	-21.0	-375	-20	1
2.7	2015_Jun_05_0912	s	s	20	5	SIC	384	ABS	1	0	02VD 02VO 02VC 02MD 02MO 10MC 02RD 02RO	0	1	1.43920302391	None	None	None	None	1
2.7	2015_Jun_05_0912	s	s	20	5	SIC	385	RC	2	1	02VD 09VO 02VC 02MD 02MO 02MC 02RD 02RO	1	0	1.33902621269	-277.0	164.0	-281	171	1
2.7	2015_Jun_05_0912	s	s	20	5	SIC	386	RC	0	1	02VD 02VO 02VC 02MD 02MO 02MC 02RD 09RO	1	0	2.22996497154	498.0	-25.0	496	-22	1
2.7	2015_Jun_05_0912	s	s	20	5	SIC	387	ABS	0	1	02VD 02VO 02VC 02MD 02MO 02MC 02RD 10RO	0	1	3.7721259594	None	None	None	None	1
2.7	2015_Jun_05_0912	s	s	20	5	SIC	388	ABS	1	0	02VD 02VO 02VC 02MD 02MO 10MC 02RD 02RO	0	1	2.76212096214	None	None	None	None	1
2.7	2015_Jun_05_0912	s	s	20	5	SIC	389	ABS	1	1	02VD 02VO 02VC 02MD 10MO 02MC 02RD 02RO	0	1	2.195291996	None	None	None	None	1
2.7	2015_Jun_05_0912	s	s	20	5	SIC	390	RC	1	1	02VD 02VO 02VC 02MD 09MO 02MC 02RD 02RO	1	0	1.49424481392	175.0	-345.0	170	-339	1
2.7	2015_Jun_05_0912	s	s	20	5	SIC	391	RC	0	2	02VD 02VO 02VC 02MD 02MO 02MC 09RD 02RO	1	0	1.11754083633	366.0	-83.0	373	-86	1
2.7	2015_Jun_05_0912	s	s	20	5	SIC	392	ABS	2	1	02VD 10VO 02VC 02MD 02MO 02MC 02RD 02RO	0	1	1.05400180817	None	None	None	None	1
2.7	2015_Jun_05_0912	s	s	20	5	SIC	393	RC	1	2	02VD 02VO 02VC 09MD 02MO 02MC 02RD 02RO	1	0	0.677007198334	106.0	140.0	104	142	1
2.7	2015_Jun_05_0912	s	s	20	5	SIC	394	ABS	1	2	02VD 02VO 02VC 10MD 02MO 02MC 02RD 02RO	0	1	1.8305311203	None	None	None	None	1
2.7	2015_Jun_05_0912	s	s	20	5	SIC	395	ABS	2	0	02VD 02VO 10VC 02MD 02MO 02MC 02RD 02RO	0	1	1.46842503548	None	None	None	None	1
2.7	2015_Jun_05_0912	s	s	20	5	SIC	396	ABS	0	2	02VD 02VO 02VC 02MD 02MO 02MC 10RD 02RO	0	1	1.91230893135	None	None	None	None	1
2.7	2015_Jun_05_0912	s	s	20	5	SIC	397	RC	1	0	02VD 02VO 02VC 02MD 02MO 09MC 02RD 02RO	1	0	0.797373771667	170.0	205.0	174	206	1
2.7	2015_Jun_05_0912	s	s	20	5	SIC	398	RC	2	0	02VD 02VO 09VC 02MD 02MO 02MC 02RD 02RO	1	0	0.570678949356	-187.0	-25.0	-183	-23	1
2.7	2015_Jun_05_0912	s	s	20	5	SIC	399	ABS	2	2	10VD 02VO 02VC 02MD 02MO 02MC 02RD 02RO	0	1	1.31292486191	None	None	None	None	1
2.7	2015_Jun_05_0912	s	s	20	5	SIC	400	RC	2	2	09VD 02VO 02VC 02MD 02MO 02MC 02RD 02RO	1	0	1.41936302185	153.0	-115.0	151	-115	1
2.7	2015_Jun_05_0912	s	s	20	5	SIC	401	ABS	0	1	02VD 02VO 02VC 02MD 02MO 02MC 02RD 10RO	0	1	2.62179207802	None	None	None	None	1
2.7	2015_Jun_05_0912	s	s	20	5	SIC	402	ABS	0	2	02VD 02VO 02VC 02MD 02MO 02MC 10RD 02RO	0	1	1.8424949646	None	None	None	None	1
2.7	2015_Jun_05_0912	s	s	20	5	SIC	403	ABS	2	2	10VD 02VO 02VC 02MD 02MO 02MC 02RD 02RO	0	1	1.5859849453	None	None	None	None	1
2.7	2015_Jun_05_0912	s	s	20	5	SIC	404	ABS	1	2	02VD 02VO 02VC 10MD 02MO 02MC 02RD 02RO	1	0	1.93667602539	None	None	64	-76	0
2.7	2015_Jun_05_0912	s	s	20	5	SIC	405	ABS	1	1	02VD 02VO 02VC 02MD 10MO 02MC 02RD 02RO	0	1	1.51280403137	None	None	None	None	1
2.7	2015_Jun_05_0912	s	s	20	5	SIC	406	RC	1	0	02VD 02VO 02VC 02MD 02MO 09MC 02RD 02RO	1	0	0.808145046234	285.0	-276.0	290	-284	1
2.7	2015_Jun_05_0912	s	s	20	5	SIC	407	ABS	2	0	02VD 02VO 10VC 02MD 02MO 02MC 02RD 02RO	0	1	1.32454514503	None	None	None	None	1
2.7	2015_Jun_05_0912	s	s	20	5	SIC	408	RC	0	2	02VD 02VO 02VC 02MD 02MO 02MC 09RD 02RO	0	1	1.68898200989	227.0	148.0	None	None	0
2.7	2015_Jun_05_0912	s	s	20	5	SIC	409	RC	2	0	02VD 02VO 09VC 02MD 02MO 02MC 02RD 02RO	1	0	0.870428085327	335.0	39.0	342	35	1
2.7	2015_Jun_05_0912	s	s	20	5	SIC	410	RC	0	1	02VD 02VO 02VC 02MD 02MO 02MC 02RD 09RO	1	0	1.21929502487	43.0	-223.0	37	-219	1
2.7	2015_Jun_05_0912	s	s	20	5	SIC	411	RC	2	2	09VD 02VO 02VC 02MD 02MO 02MC 02RD 02RO	1	0	0.785503864288	379.0	1.0	374	1	1
2.7	2015_Jun_05_0912	s	s	20	5	SIC	412	RC	1	2	02VD 02VO 02VC 09MD 02MO 02MC 02RD 02RO	1	0	0.611423015594	-342.0	192.0	-342	198	1
2.7	2015_Jun_05_0912	s	s	20	5	SIC	413	ABS	1	0	02VD 02VO 02VC 02MD 02MO 10MC 02RD 02RO	0	1	1.64235782623	None	None	None	None	1
2.7	2015_Jun_05_0912	s	s	20	5	SIC	414	RC	1	1	02VD 02VO 02VC 02MD 09MO 02MC 02RD 02RO	1	0	0.458396196365	-58.0	-18.0	-61	-22	1
2.7	2015_Jun_05_0912	s	s	20	5	SIC	415	RC	2	1	02VD 09VO 02VC 02MD 02MO 02MC 02RD 02RO	0	1	1.16111302376	-486.0	323.0	None	None	0
2.7	2015_Jun_05_0912	s	s	20	5	SIC	416	ABS	2	1	02VD 10VO 02VC 02MD 02MO 02MC 02RD 02RO	1	0	1.29413795471	None	None	61	-261	0
2.7	2015_Jun_05_0912	s	s	20	5	SIC	417	RC	1	2	02VD 02VO 02VC 09MD 02MO 02MC 02RD 02RO	1	0	1.24059009552	-229.0	318.0	-231	317	1
2.7	2015_Jun_05_0912	s	s	20	5	SIC	418	ABS	1	2	02VD 02VO 02VC 10MD 02MO 02MC 02RD 02RO	0	1	1.52717995644	None	None	None	None	1
2.7	2015_Jun_05_0912	s	s	20	5	SIC	419	ABS	2	2	10VD 02VO 02VC 02MD 02MO 02MC 02RD 02RO	0	1	1.43217587471	None	None	None	None	1
2.7	2015_Jun_05_0912	s	s	20	5	SIC	420	RC	2	0	02VD 02VO 09VC 02MD 02MO 02MC 02RD 02RO	1	0	1.3951280117	-96.0	281.0	-103	282	1
2.7	2015_Jun_05_0912	s	s	20	5	SIC	421	RC	0	1	02VD 02VO 02VC 02MD 02MO 02MC 02RD 09RO	1	0	1.14810705185	-33.0	-300.0	-28	-298	1
2.7	2015_Jun_05_0912	s	s	20	5	SIC	422	ABS	0	1	02VD 02VO 02VC 02MD 02MO 02MC 02RD 10RO	0	1	2.01898598671	None	None	None	None	1
2.7	2015_Jun_05_0912	s	s	20	5	SIC	423	RC	1	0	02VD 02VO 02VC 02MD 02MO 09MC 02RD 02RO	1	0	0.776229858398	-290.0	-244.0	-289	-240	1
2.7	2015_Jun_05_0912	s	s	20	5	SIC	424	ABS	2	0	02VD 02VO 10VC 02MD 02MO 02MC 02RD 02RO	0	1	1.16473698616	None	None	None	None	1
2.7	2015_Jun_05_0912	s	s	20	5	SIC	425	RC	1	1	02VD 02VO 02VC 02MD 09MO 02MC 02RD 02RO	1	0	0.653673887253	166.0	46.0	168	50	1
2.7	2015_Jun_05_0912	s	s	20	5	SIC	426	ABS	1	1	02VD 02VO 02VC 02MD 10MO 02MC 02RD 02RO	0	1	1.90124392509	None	None	None	None	1
2.7	2015_Jun_05_0912	s	s	20	5	SIC	427	RC	0	2	02VD 02VO 02VC 02MD 02MO 02MC 09RD 02RO	1	0	1.97183084488	-495.0	-376.0	-486	-373	1
2.7	2015_Jun_05_0912	s	s	20	5	SIC	428	ABS	2	1	02VD 10VO 02VC 02MD 02MO 02MC 02RD 02RO	0	1	1.2587749958	None	None	None	None	1
2.7	2015_Jun_05_0912	s	s	20	5	SIC	429	ABS	0	2	02VD 02VO 02VC 02MD 02MO 02MC 10RD 02RO	0	1	1.17188119888	None	None	None	None	1
2.7	2015_Jun_05_0912	s	s	20	5	SIC	430	ABS	1	0	02VD 02VO 02VC 02MD 02MO 10MC 02RD 02RO	0	1	2.58885383606	None	None	None	None	1
2.7	2015_Jun_05_0912	s	s	20	5	SIC	431	RC	2	1	02VD 09VO 02VC 02MD 02MO 02MC 02RD 02RO	1	0	0.705512046814	-86.0	-163.0	-77	-165	1
2.7	2015_Jun_05_0912	s	s	20	5	SIC	432	RC	2	2	09VD 02VO 02VC 02MD 02MO 02MC 02RD 02RO	1	0	0.888336181641	-275.0	-68.0	-281	-60	1
2.7	2015_Jun_05_0912	s	s	20	5	SIC	433	ABS	0	1	02VD 02VO 02VC 02MD 02MO 02MC 02RD 10RO	0	1	2.43099212646	None	None	None	None	1
2.7	2015_Jun_05_0912	s	s	20	5	SIC	434	ABS	2	0	02VD 02VO 10VC 02MD 02MO 02MC 02RD 02RO	0	1	1.42359805107	None	None	None	None	1
2.7	2015_Jun_05_0912	s	s	20	5	SIC	435	RC	1	0	02VD 02VO 02VC 02MD 02MO 09MC 02RD 02RO	1	0	1.1529250145	-507.0	136.0	-511	132	1
2.7	2015_Jun_05_0912	s	s	20	5	SIC	436	RC	0	1	02VD 02VO 02VC 02MD 02MO 02MC 02RD 09RO	1	0	1.15287899971	-439.0	-180.0	-429	-179	1
2.7	2015_Jun_05_0912	s	s	20	5	SIC	437	ABS	0	2	02VD 02VO 02VC 02MD 02MO 02MC 10RD 02RO	0	1	6.02075791359	None	None	None	None	1
2.7	2015_Jun_05_0912	s	s	20	5	SIC	438	RC	1	2	02VD 02VO 02VC 09MD 02MO 02MC 02RD 02RO	1	0	0.846791028976	375.0	214.0	385	217	1
2.7	2015_Jun_05_0912	s	s	20	5	SIC	439	RC	0	2	02VD 02VO 02VC 02MD 02MO 02MC 09RD 02RO	1	0	2.00043106079	253.0	-409.0	255	-414	1
2.7	2015_Jun_05_0912	s	s	20	5	SIC	440	ABS	1	1	02VD 02VO 02VC 02MD 10MO 02MC 02RD 02RO	0	1	2.04246997833	None	None	None	None	1
2.7	2015_Jun_05_0912	s	s	20	5	SIC	441	RC	1	1	02VD 02VO 02VC 02MD 09MO 02MC 02RD 02RO	0	1	1.15043306351	-207.0	-116.0	None	None	0
2.7	2015_Jun_05_0912	s	s	20	5	SIC	442	RC	2	1	02VD 09VO 02VC 02MD 02MO 02MC 02RD 02RO	1	0	0.603487014771	-96.0	61.0	-88	62	1
2.7	2015_Jun_05_0912	s	s	20	5	SIC	443	ABS	2	2	10VD 02VO 02VC 02MD 02MO 02MC 02RD 02RO	0	1	1.27929782867	None	None	None	None	1
2.7	2015_Jun_05_0912	s	s	20	5	SIC	444	ABS	2	1	02VD 10VO 02VC 02MD 02MO 02MC 02RD 02RO	0	1	1.15973591805	None	None	None	None	1
2.7	2015_Jun_05_0912	s	s	20	5	SIC	445	ABS	1	0	02VD 02VO 02VC 02MD 02MO 10MC 02RD 02RO	0	1	1.24711203575	None	None	None	None	1
2.7	2015_Jun_05_0912	s	s	20	5	SIC	446	RC	2	2	09VD 02VO 02VC 02MD 02MO 02MC 02RD 02RO	1	0	0.670301914215	353.0	160.0	352	160	1
2.7	2015_Jun_05_0912	s	s	20	5	SIC	447	ABS	1	2	02VD 02VO 02VC 10MD 02MO 02MC 02RD 02RO	0	1	1.3294608593	None	None	None	None	1
2.7	2015_Jun_05_0912	s	s	20	5	SIC	448	RC	2	0	02VD 02VO 09VC 02MD 02MO 02MC 02RD 02RO	1	0	1.02332186699	335.0	151.0	326	148	1
2.7	2015_Jun_05_0912	s	s	20	5	SIC	449	RC	1	0	02VD 02VO 02VC 02MD 02MO 09MC 02RD 02RO	1	0	1.88266205788	484.0	-117.0	479	-118	1
2.7	2015_Jun_05_0912	s	s	20	5	SIC	450	ABS	1	2	02VD 02VO 02VC 10MD 02MO 02MC 02RD 02RO	0	1	1.25231194496	None	None	None	None	1
2.7	2015_Jun_05_0912	s	s	20	5	SIC	451	ABS	2	2	10VD 02VO 02VC 02MD 02MO 02MC 02RD 02RO	0	1	2.15992116928	None	None	None	None	1
2.7	2015_Jun_05_0912	s	s	20	5	SIC	452	RC	0	2	02VD 02VO 02VC 02MD 02MO 02MC 09RD 02RO	1	0	1.80946302414	-151.0	-362.0	-164	-358	1
2.7	2015_Jun_05_0912	s	s	20	5	SIC	453	RC	0	1	02VD 02VO 02VC 02MD 02MO 02MC 02RD 09RO	1	0	2.0121319294	1.0	-358.0	-14	-352	1
2.7	2015_Jun_05_0912	s	s	20	5	SIC	454	RC	2	2	09VD 02VO 02VC 02MD 02MO 02MC 02RD 02RO	1	0	1.89202094078	-449.0	381.0	-453	384	1
2.7	2015_Jun_05_0912	s	s	20	5	SIC	455	RC	2	1	02VD 09VO 02VC 02MD 02MO 02MC 02RD 02RO	1	0	1.70991206169	-432.0	-117.0	-430	-115	1
2.7	2015_Jun_05_0912	s	s	20	5	SIC	456	ABS	0	1	02VD 02VO 02VC 02MD 02MO 02MC 02RD 10RO	0	1	2.73720693588	None	None	None	None	1
2.7	2015_Jun_05_0912	s	s	20	5	SIC	457	RC	1	2	02VD 02VO 02VC 09MD 02MO 02MC 02RD 02RO	1	0	0.912520885468	-273.0	232.0	-276	230	1
2.7	2015_Jun_05_0912	s	s	20	5	SIC	458	RC	2	0	02VD 02VO 09VC 02MD 02MO 02MC 02RD 02RO	1	0	0.727056026459	-249.0	267.0	-253	259	1
2.7	2015_Jun_05_0912	s	s	20	5	SIC	459	ABS	1	1	02VD 02VO 02VC 02MD 10MO 02MC 02RD 02RO	0	1	1.88260579109	None	None	None	None	1
2.7	2015_Jun_05_0912	s	s	20	5	SIC	460	ABS	2	1	02VD 10VO 02VC 02MD 02MO 02MC 02RD 02RO	0	1	1.64257216454	None	None	None	None	1
2.7	2015_Jun_05_0912	s	s	20	5	SIC	461	ABS	1	0	02VD 02VO 02VC 02MD 02MO 10MC 02RD 02RO	0	1	1.94839692116	None	None	None	None	1
2.7	2015_Jun_05_0912	s	s	20	5	SIC	462	RC	1	1	02VD 02VO 02VC 02MD 09MO 02MC 02RD 02RO	1	0	1.04690313339	458.0	-278.0	463	-286	1
2.7	2015_Jun_05_0912	s	s	20	5	SIC	463	ABS	0	2	02VD 02VO 02VC 02MD 02MO 02MC 10RD 02RO	0	1	1.35981607437	None	None	None	None	1
2.7	2015_Jun_05_0912	s	s	20	5	SIC	464	ABS	2	0	02VD 02VO 10VC 02MD 02MO 02MC 02RD 02RO	0	1	2.12538504601	None	None	None	None	1
2.7	2015_Jun_05_0912	s	s	20	5	SIC	465	ABS	0	2	02VD 02VO 02VC 02MD 02MO 02MC 10RD 02RO	0	1	1.5245859623	None	None	None	None	1
2.7	2015_Jun_05_0912	s	s	20	5	SIC	466	ABS	2	2	10VD 02VO 02VC 02MD 02MO 02MC 02RD 02RO	0	1	1.03897094727	None	None	None	None	1
2.7	2015_Jun_05_0912	s	s	20	5	SIC	467	RC	1	1	02VD 02VO 02VC 02MD 09MO 02MC 02RD 02RO	1	0	0.611467123032	-58.0	211.0	-63	207	1
2.7	2015_Jun_05_0912	s	s	20	5	SIC	468	ABS	2	0	02VD 02VO 10VC 02MD 02MO 02MC 02RD 02RO	0	1	1.59529995918	None	None	None	None	1
2.7	2015_Jun_05_0912	s	s	20	5	SIC	469	RC	2	0	02VD 02VO 09VC 02MD 02MO 02MC 02RD 02RO	1	0	1.07055091858	-285.0	-258.0	-288	-252	1
2.7	2015_Jun_05_0912	s	s	20	5	SIC	470	ABS	1	2	02VD 02VO 02VC 10MD 02MO 02MC 02RD 02RO	0	1	1.40683698654	None	None	None	None	1
2.7	2015_Jun_05_0912	s	s	20	5	SIC	471	RC	1	0	02VD 02VO 02VC 02MD 02MO 09MC 02RD 02RO	1	0	1.04693293571	-226.0	384.0	-235	391	1
2.7	2015_Jun_05_0912	s	s	20	5	SIC	472	ABS	1	0	02VD 02VO 02VC 02MD 02MO 10MC 02RD 02RO	0	1	2.35349917412	None	None	None	None	1
2.7	2015_Jun_05_0912	s	s	20	5	SIC	473	ABS	2	1	02VD 10VO 02VC 02MD 02MO 02MC 02RD 02RO	0	1	1.49005413055	None	None	None	None	1
2.7	2015_Jun_05_0912	s	s	20	5	SIC	474	RC	2	2	09VD 02VO 02VC 02MD 02MO 02MC 02RD 02RO	1	0	1.99724316597	-533.0	240.0	-530	244	1
2.7	2015_Jun_05_0912	s	s	20	5	SIC	475	RC	0	1	02VD 02VO 02VC 02MD 02MO 02MC 02RD 09RO	1	0	1.6471850872	104.0	-326.0	93	-325	1
2.7	2015_Jun_05_0912	s	s	20	5	SIC	476	RC	0	2	02VD 02VO 02VC 02MD 02MO 02MC 09RD 02RO	1	0	1.07094192505	263.0	-160.0	264	-170	1
2.7	2015_Jun_05_0912	s	s	20	5	SIC	477	ABS	0	1	02VD 02VO 02VC 02MD 02MO 02MC 02RD 10RO	0	1	3.96625494957	None	None	None	None	1
2.7	2015_Jun_05_0912	s	s	20	5	SIC	478	ABS	1	1	02VD 02VO 02VC 02MD 10MO 02MC 02RD 02RO	0	1	2.38449501991	None	None	None	None	1
2.7	2015_Jun_05_0912	s	s	20	5	SIC	479	RC	1	2	02VD 02VO 02VC 09MD 02MO 02MC 02RD 02RO	1	0	1.54133582115	-59.0	291.0	-47	297	1
2.7	2015_Jun_05_0912	s	s	20	5	SIC	480	RC	2	1	02VD 09VO 02VC 02MD 02MO 02MC 02RD 02RO	1	0	0.894052028656	-538.0	-11.0	-535	-11	1
