Version	Date	Stimuli	Method	Subject	Session	Condition	Trial	Target	Channel1	Channel2	Distractors	LMouseButton	RMouseButton	RT	TargetX	TargetY	ResponseX	ResponseY	Correct
2.7	2015_Jun_01_1601	s	s	20	1	Capacity	1	RC	0	1	08RD 15RO	1	0	2.18845510483	-217.0	-167.0	-217	-174	1
2.7	2015_Jun_01_1601	s	s	20	1	Capacity	2	RC	0	2	15RD 08RO	1	0	3.07147979736	245.0	336.0	250	329	1
2.7	2015_Jun_01_1601	s	s	20	1	Capacity	3	ABS	0	2	16RD 08RO	0	1	5.99063014984	None	None	None	None	1
2.7	2015_Jun_01_1601	s	s	20	1	Capacity	4	ABS	0	1	08RD 16RO	0	1	9.10486388206	None	None	None	None	1
2.7	2015_Jun_01_1601	s	s	20	1	Capacity	5	ABS	0	1	08RD 16RO	0	1	11.6286139488	None	None	None	None	1
2.7	2015_Jun_01_1601	s	s	20	1	Capacity	6	RC	0	1	08RD 15RO	1	0	2.89499902725	-410.0	-310.0	-411	-315	1
2.7	2015_Jun_01_1601	s	s	20	1	Capacity	7	ABS	0	2	16RD 08RO	0	1	4.65559887886	None	None	None	None	1
2.7	2015_Jun_01_1601	s	s	20	1	Capacity	8	RC	0	2	15RD 08RO	1	0	4.62518692017	499.0	-379.0	494	-380	1
2.7	2015_Jun_01_1601	s	s	20	1	Capacity	9	RC	0	1	08RD 15RO	1	0	3.21950697899	235.0	389.0	240	387	1
2.7	2015_Jun_01_1601	s	s	20	1	Capacity	10	ABS	0	1	08RD 16RO	0	1	15.0479309559	None	None	None	None	1
2.7	2015_Jun_01_1601	s	s	20	1	Capacity	11	RC	0	2	15RD 08RO	1	0	2.45448207855	239.0	-196.0	247	-197	1
2.7	2015_Jun_01_1601	s	s	20	1	Capacity	12	ABS	0	2	16RD 08RO	0	1	9.89848589897	None	None	None	None	1
2.7	2015_Jun_01_1601	s	s	20	1	Capacity	13	RC	0	2	15RD 08RO	1	0	4.84621691704	290.0	-201.0	287	-201	1
2.7	2015_Jun_01_1601	s	s	20	1	Capacity	14	RC	0	1	08RD 15RO	1	0	8.43888807297	531.0	284.0	536	282	1
2.7	2015_Jun_01_1601	s	s	20	1	Capacity	15	ABS	0	2	16RD 08RO	0	1	7.07002282143	None	None	None	None	1
2.7	2015_Jun_01_1601	s	s	20	1	Capacity	16	ABS	0	1	08RD 16RO	0	1	12.4526751041	None	None	None	None	1
2.7	2015_Jun_01_1601	s	s	20	1	Capacity	17	ABS	0	2	16RD 08RO	0	1	9.6630179882	None	None	None	None	1
2.7	2015_Jun_01_1601	s	s	20	1	Capacity	18	ABS	0	1	08RD 16RO	0	1	10.722413063	None	None	None	None	1
2.7	2015_Jun_01_1601	s	s	20	1	Capacity	19	RC	0	1	08RD 15RO	1	0	3.60133194923	-316.0	387.0	-321	377	1
2.7	2015_Jun_01_1601	s	s	20	1	Capacity	20	RC	0	2	15RD 08RO	1	0	4.22005200386	-181.0	401.0	-176	391	1
2.7	2015_Jun_01_1601	s	s	20	1	Capacity	21	ABS	0	2	16RD 08RO	0	1	5.54332184792	None	None	None	None	1
2.7	2015_Jun_01_1601	s	s	20	1	Capacity	22	RC	0	1	08RD 15RO	1	0	4.19932103157	-44.0	-323.0	-33	-318	1
2.7	2015_Jun_01_1601	s	s	20	1	Capacity	23	ABS	0	1	08RD 16RO	0	1	9.62265300751	None	None	None	None	1
2.7	2015_Jun_01_1601	s	s	20	1	Capacity	24	RC	0	2	15RD 08RO	1	0	3.18399000168	-93.0	-257.0	-84	-256	1
2.7	2015_Jun_01_1601	s	s	20	1	Capacity	25	ABS	0	2	16RD 08RO	0	1	5.99928188324	None	None	None	None	1
2.7	2015_Jun_01_1601	s	s	20	1	Capacity	26	ABS	0	1	08RD 16RO	0	1	11.1553008556	None	None	None	None	1
2.7	2015_Jun_01_1601	s	s	20	1	Capacity	27	RC	0	1	08RD 15RO	1	0	3.78456997871	486.0	-20.0	490	-26	1
2.7	2015_Jun_01_1601	s	s	20	1	Capacity	28	RC	0	2	15RD 08RO	0	1	1.5531129837	-15.0	-56.0	None	None	0
2.7	2015_Jun_01_1601	s	s	20	1	Capacity	29	RC	0	1	08RD 15RO	1	0	4.09048700333	-142.0	113.0	-140	108	1
2.7	2015_Jun_01_1601	s	s	20	1	Capacity	30	RC	0	2	15RD 08RO	1	0	2.36039209366	-342.0	-227.0	-340	-233	1
2.7	2015_Jun_01_1601	s	s	20	1	Capacity	31	ABS	0	1	08RD 16RO	0	1	12.0854330063	None	None	None	None	1
2.7	2015_Jun_01_1601	s	s	20	1	Capacity	32	ABS	0	2	16RD 08RO	0	1	8.52941298485	None	None	None	None	1
2.7	2015_Jun_01_1601	s	s	20	1	Capacity	33	RC	0	2	15RD 08RO	1	0	4.34913706779	-208.0	-151.0	-199	-151	1
2.7	2015_Jun_01_1601	s	s	20	1	Capacity	34	ABS	0	2	16RD 08RO	0	1	7.30883002281	None	None	None	None	1
2.7	2015_Jun_01_1601	s	s	20	1	Capacity	35	RC	0	1	08RD 15RO	1	0	3.88360786438	-465.0	-192.0	-461	-189	1
2.7	2015_Jun_01_1601	s	s	20	1	Capacity	36	ABS	0	1	08RD 16RO	0	1	10.4821140766	None	None	None	None	1
2.7	2015_Jun_01_1601	s	s	20	1	Capacity	37	ABS	0	1	08RD 16RO	0	1	10.0282480717	None	None	None	None	1
2.7	2015_Jun_01_1601	s	s	20	1	Capacity	38	RC	0	2	15RD 08RO	1	0	3.60942602158	147.0	-250.0	151	-254	1
2.7	2015_Jun_01_1601	s	s	20	1	Capacity	39	RC	0	1	08RD 15RO	1	0	5.56184315681	-437.0	-251.0	-436	-245	1
2.7	2015_Jun_01_1601	s	s	20	1	Capacity	40	ABS	0	2	16RD 08RO	0	1	4.42517089844	None	None	None	None	1
2.7	2015_Jun_01_1601	s	s	20	1	Capacity	41	RC	0	1	08RD 15RO	1	0	1.65903997421	-246.0	319.0	-241	319	1
2.7	2015_Jun_01_1601	s	s	20	1	Capacity	42	ABS	0	1	08RD 16RO	0	1	8.10606884956	None	None	None	None	1
2.7	2015_Jun_01_1601	s	s	20	1	Capacity	43	ABS	0	2	16RD 08RO	0	1	6.6328561306	None	None	None	None	1
2.7	2015_Jun_01_1601	s	s	20	1	Capacity	44	RC	0	2	15RD 08RO	1	0	1.16218900681	-23.0	-196.0	-21	-197	1
2.7	2015_Jun_01_1601	s	s	20	1	Capacity	45	RC	0	2	15RD 08RO	1	0	1.12436413765	132.0	-149.0	131	-148	1
2.7	2015_Jun_01_1601	s	s	20	1	Capacity	46	ABS	0	2	16RD 08RO	0	1	5.51987099648	None	None	None	None	1
2.7	2015_Jun_01_1601	s	s	20	1	Capacity	47	RC	0	1	08RD 15RO	1	0	3.09502601624	-491.0	32.0	-496	24	1
2.7	2015_Jun_01_1601	s	s	20	1	Capacity	48	ABS	0	1	08RD 16RO	0	1	9.54531598091	None	None	None	None	1
2.7	2015_Jun_01_1601	s	s	20	1	Capacity	49	RC	0	2	15RD 08RO	1	0	1.81196904182	274.0	-182.0	275	-179	1
2.7	2015_Jun_01_1601	s	s	20	1	Capacity	50	ABS	0	1	08RD 16RO	0	1	9.1922121048	None	None	None	None	1
2.7	2015_Jun_01_1601	s	s	20	1	Capacity	51	ABS	0	2	16RD 08RO	0	1	6.89127993584	None	None	None	None	1
2.7	2015_Jun_01_1601	s	s	20	1	Capacity	52	RC	0	1	08RD 15RO	1	0	2.81983304024	517.0	174.0	511	170	1
2.7	2015_Jun_01_1601	s	s	20	1	Capacity	53	ABS	0	1	08RD 16RO	0	1	7.62701487541	None	None	None	None	1
2.7	2015_Jun_01_1601	s	s	20	1	Capacity	54	RC	0	2	15RD 08RO	1	0	2.45981097221	-342.0	-149.0	-341	-145	1
2.7	2015_Jun_01_1601	s	s	20	1	Capacity	55	ABS	0	2	16RD 08RO	0	1	6.84487581253	None	None	None	None	1
2.7	2015_Jun_01_1601	s	s	20	1	Capacity	56	RC	0	1	08RD 15RO	1	0	2.39522886276	309.0	210.0	320	210	1
2.7	2015_Jun_01_1601	s	s	20	1	Capacity	57	ABS	0	2	16RD 08RO	0	1	6.62626385689	None	None	None	None	1
2.7	2015_Jun_01_1601	s	s	20	1	Capacity	58	RC	0	1	08RD 15RO	1	0	1.32592511177	150.0	-3.0	144	-3	1
2.7	2015_Jun_01_1601	s	s	20	1	Capacity	59	ABS	0	1	08RD 16RO	0	1	6.69685602188	None	None	None	None	1
2.7	2015_Jun_01_1601	s	s	20	1	Capacity	60	RC	0	2	15RD 08RO	1	0	1.81257605553	-223.0	-256.0	-221	-268	1
2.7	2015_Jun_01_1601	s	s	20	1	Capacity	61	ABS	0	2	16RD 08RO	0	1	4.46039605141	None	None	None	None	1
2.7	2015_Jun_01_1601	s	s	20	1	Capacity	62	RC	0	1	08RD 15RO	1	0	1.55966711044	-470.0	327.0	-473	316	1
2.7	2015_Jun_01_1601	s	s	20	1	Capacity	63	RC	0	2	15RD 08RO	1	0	6.19073987007	71.0	-143.0	67	-149	1
2.7	2015_Jun_01_1601	s	s	20	1	Capacity	64	ABS	0	1	08RD 16RO	0	1	11.2135698795	None	None	None	None	1
2.7	2015_Jun_01_1601	s	s	20	1	Capacity	1	ABS	2	0	16VC 08MC	1	0	6.92744398117	None	None	-154	376	0
2.7	2015_Jun_01_1601	s	s	20	1	Capacity	2	RC	1	0	08VC 15MC	1	0	4.38512921333	95.0	334.0	96	317	1
2.7	2015_Jun_01_1601	s	s	20	1	Capacity	3	RC	2	0	15VC 08MC	1	0	2.3604619503	-142.0	-287.0	-136	-284	1
2.7	2015_Jun_01_1601	s	s	20	1	Capacity	4	ABS	1	0	08VC 16MC	0	1	9.46290016174	None	None	None	None	1
2.7	2015_Jun_01_1601	s	s	20	1	Capacity	5	RC	2	0	15VC 08MC	1	0	3.7188770771	23.0	189.0	24	189	1
2.7	2015_Jun_01_1601	s	s	20	1	Capacity	6	ABS	1	0	08VC 16MC	0	1	3.71326589584	None	None	None	None	1
2.7	2015_Jun_01_1601	s	s	20	1	Capacity	7	ABS	2	0	16VC 08MC	1	0	3.11858582497	None	None	-411	-280	0
2.7	2015_Jun_01_1601	s	s	20	1	Capacity	8	RC	1	0	08VC 15MC	1	0	2.73017191887	-253.0	-75.0	-248	-67	1
2.7	2015_Jun_01_1601	s	s	20	1	Capacity	9	ABS	1	0	08VC 16MC	0	1	6.76256108284	None	None	None	None	1
2.7	2015_Jun_01_1601	s	s	20	1	Capacity	10	RC	2	0	15VC 08MC	1	0	2.85467290878	-287.0	137.0	-292	130	1
2.7	2015_Jun_01_1601	s	s	20	1	Capacity	11	ABS	2	0	16VC 08MC	0	1	2.93027305603	None	None	None	None	1
2.7	2015_Jun_01_1601	s	s	20	1	Capacity	12	RC	1	0	08VC 15MC	1	0	4.01948785782	-516.0	302.0	-522	300	1
2.7	2015_Jun_01_1601	s	s	20	1	Capacity	13	ABS	1	0	08VC 16MC	0	1	6.92961406708	None	None	None	None	1
2.7	2015_Jun_01_1601	s	s	20	1	Capacity	14	RC	1	0	08VC 15MC	1	0	2.5251789093	44.0	119.0	51	124	1
2.7	2015_Jun_01_1601	s	s	20	1	Capacity	15	ABS	2	0	16VC 08MC	0	1	9.75472903252	None	None	None	None	1
2.7	2015_Jun_01_1601	s	s	20	1	Capacity	16	RC	2	0	15VC 08MC	1	0	1.21862602234	302.0	30.0	299	29	1
2.7	2015_Jun_01_1601	s	s	20	1	Capacity	17	ABS	2	0	16VC 08MC	0	1	4.93122720718	None	None	None	None	1
2.7	2015_Jun_01_1601	s	s	20	1	Capacity	18	ABS	1	0	08VC 16MC	0	1	8.95370316505	None	None	None	None	1
2.7	2015_Jun_01_1601	s	s	20	1	Capacity	19	RC	1	0	08VC 15MC	1	0	1.53661584854	130.0	-326.0	120	-327	1
2.7	2015_Jun_01_1601	s	s	20	1	Capacity	20	RC	2	0	15VC 08MC	1	0	0.971050977707	106.0	358.0	102	356	1
2.7	2015_Jun_01_1601	s	s	20	1	Capacity	21	RC	1	0	08VC 15MC	1	0	3.03658890724	-456.0	90.0	-460	77	1
2.7	2015_Jun_01_1601	s	s	20	1	Capacity	22	ABS	1	0	08VC 16MC	0	1	3.92595410347	None	None	None	None	1
2.7	2015_Jun_01_1601	s	s	20	1	Capacity	23	ABS	2	0	16VC 08MC	0	1	2.58379292488	None	None	None	None	1
2.7	2015_Jun_01_1601	s	s	20	1	Capacity	24	RC	2	0	15VC 08MC	1	0	2.60065507889	504.0	-193.0	509	-188	1
2.7	2015_Jun_01_1601	s	s	20	1	Capacity	25	ABS	2	0	16VC 08MC	0	1	1.76496815681	None	None	None	None	1
2.7	2015_Jun_01_1601	s	s	20	1	Capacity	26	RC	2	0	15VC 08MC	1	0	1.57398796082	-1.0	-229.0	3	-229	1
2.7	2015_Jun_01_1601	s	s	20	1	Capacity	27	RC	1	0	08VC 15MC	1	0	1.55308294296	-422.0	-323.0	-429	-330	1
2.7	2015_Jun_01_1601	s	s	20	1	Capacity	28	ABS	1	0	08VC 16MC	0	1	2.91857910156	None	None	None	None	1
2.7	2015_Jun_01_1601	s	s	20	1	Capacity	29	ABS	1	0	08VC 16MC	0	1	7.79755210876	None	None	None	None	1
2.7	2015_Jun_01_1601	s	s	20	1	Capacity	30	RC	1	0	08VC 15MC	1	0	1.21870994568	-273.0	27.0	-277	36	1
2.7	2015_Jun_01_1601	s	s	20	1	Capacity	31	RC	2	0	15VC 08MC	1	0	3.00084280968	-333.0	163.0	-323	165	1
2.7	2015_Jun_01_1601	s	s	20	1	Capacity	32	ABS	2	0	16VC 08MC	0	1	3.3625228405	None	None	None	None	1
2.7	2015_Jun_01_1601	s	s	20	1	Capacity	33	ABS	2	0	16VC 08MC	0	1	2.22435212135	None	None	None	None	1
2.7	2015_Jun_01_1601	s	s	20	1	Capacity	34	RC	2	0	15VC 08MC	1	0	0.995325088501	463.0	-56.0	457	-56	1
2.7	2015_Jun_01_1601	s	s	20	1	Capacity	35	ABS	1	0	08VC 16MC	0	1	5.64925694466	None	None	None	None	1
2.7	2015_Jun_01_1601	s	s	20	1	Capacity	36	RC	1	0	08VC 15MC	1	0	3.38929796219	-534.0	393.0	-532	384	1
2.7	2015_Jun_01_1601	s	s	20	1	Capacity	37	ABS	2	0	16VC 08MC	0	1	1.96507883072	None	None	None	None	1
2.7	2015_Jun_01_1601	s	s	20	1	Capacity	38	ABS	1	0	08VC 16MC	0	1	3.49011707306	None	None	None	None	1
2.7	2015_Jun_01_1601	s	s	20	1	Capacity	39	RC	2	0	15VC 08MC	1	0	0.717423915863	33.0	-41.0	34	-49	1
2.7	2015_Jun_01_1601	s	s	20	1	Capacity	40	RC	1	0	08VC 15MC	1	0	1.04700493813	172.0	18.0	172	9	1
2.7	2015_Jun_01_1601	s	s	20	1	Capacity	41	ABS	2	0	16VC 08MC	1	0	3.38436102867	None	None	357	45	0
2.7	2015_Jun_01_1601	s	s	20	1	Capacity	42	RC	2	0	15VC 08MC	1	0	1.83296918869	-73.0	-339.0	-81	-342	1
2.7	2015_Jun_01_1601	s	s	20	1	Capacity	43	RC	1	0	08VC 15MC	1	0	3.75794100761	-515.0	-160.0	-519	-161	1
2.7	2015_Jun_01_1601	s	s	20	1	Capacity	44	ABS	1	0	08VC 16MC	0	1	2.8007941246	None	None	None	None	1
2.7	2015_Jun_01_1601	s	s	20	1	Capacity	45	RC	2	0	15VC 08MC	1	0	0.917492866516	-500.0	-200.0	-496	-206	1
2.7	2015_Jun_01_1601	s	s	20	1	Capacity	46	ABS	1	0	08VC 16MC	0	1	3.82476210594	None	None	None	None	1
2.7	2015_Jun_01_1601	s	s	20	1	Capacity	47	RC	1	0	08VC 15MC	1	0	3.15408706665	-130.0	-38.0	-132	-45	1
2.7	2015_Jun_01_1601	s	s	20	1	Capacity	48	ABS	2	0	16VC 08MC	0	1	2.22401785851	None	None	None	None	1
2.7	2015_Jun_01_1601	s	s	20	1	Capacity	49	RC	2	0	15VC 08MC	1	0	1.02957701683	320.0	-122.0	326	-123	1
2.7	2015_Jun_01_1601	s	s	20	1	Capacity	50	ABS	1	0	08VC 16MC	0	1	1.90614485741	None	None	None	None	1
2.7	2015_Jun_01_1601	s	s	20	1	Capacity	51	RC	1	0	08VC 15MC	1	0	1.22352004051	378.0	-57.0	384	-63	1
2.7	2015_Jun_01_1601	s	s	20	1	Capacity	52	ABS	2	0	16VC 08MC	0	1	1.49428105354	None	None	None	None	1
2.7	2015_Jun_01_1601	s	s	20	1	Capacity	53	ABS	1	0	08VC 16MC	0	1	2.40068697929	None	None	None	None	1
2.7	2015_Jun_01_1601	s	s	20	1	Capacity	54	RC	2	0	15VC 08MC	1	0	0.94099187851	-434.0	362.0	-431	361	1
2.7	2015_Jun_01_1601	s	s	20	1	Capacity	55	RC	1	0	08VC 15MC	1	0	1.31239485741	-121.0	-51.0	-129	-48	1
2.7	2015_Jun_01_1601	s	s	20	1	Capacity	56	ABS	2	0	16VC 08MC	0	1	3.90283608437	None	None	None	None	1
2.7	2015_Jun_01_1601	s	s	20	1	Capacity	57	RC	2	0	15VC 08MC	1	0	0.935930013657	304.0	-148.0	307	-147	1
2.7	2015_Jun_01_1601	s	s	20	1	Capacity	58	RC	1	0	08VC 15MC	1	0	1.12936806679	-142.0	-70.0	-141	-79	1
2.7	2015_Jun_01_1601	s	s	20	1	Capacity	59	ABS	1	0	08VC 16MC	0	1	2.1249370575	None	None	None	None	1
2.7	2015_Jun_01_1601	s	s	20	1	Capacity	60	ABS	2	0	16VC 08MC	0	1	1.91797804832	None	None	None	None	1
2.7	2015_Jun_01_1601	s	s	20	1	Capacity	61	ABS	1	0	08VC 16MC	0	1	4.85824799538	None	None	None	None	1
2.7	2015_Jun_01_1601	s	s	20	1	Capacity	62	RC	1	0	08VC 15MC	1	0	1.23528790474	-163.0	-155.0	-161	-156	1
2.7	2015_Jun_01_1601	s	s	20	1	Capacity	63	ABS	2	0	16VC 08MC	0	1	1.60018515587	None	None	None	None	1
2.7	2015_Jun_01_1601	s	s	20	1	Capacity	64	RC	2	0	15VC 08MC	1	0	0.806111097336	228.0	90.0	231	86	1
2.7	2015_Jun_01_1601	s	s	20	1	SIC	1	ABS	1	2	02VD 02VO 02VC 10MD 02MO 02MC 02RD 02RO	0	1	2.51815891266	None	None	None	None	1
2.7	2015_Jun_01_1601	s	s	20	1	SIC	2	RC	1	2	02VD 02VO 02VC 09MD 02MO 02MC 02RD 02RO	1	0	1.25389409065	-524.0	65.0	-526	61	1
2.7	2015_Jun_01_1601	s	s	20	1	SIC	3	RC	2	0	02VD 02VO 09VC 02MD 02MO 02MC 02RD 02RO	1	0	0.971210002899	192.0	-312.0	202	-310	1
2.7	2015_Jun_01_1601	s	s	20	1	SIC	4	RC	0	1	02VD 02VO 02VC 02MD 02MO 02MC 02RD 09RO	1	0	1.91299915314	-30.0	-177.0	-28	-179	1
2.7	2015_Jun_01_1601	s	s	20	1	SIC	5	ABS	0	1	02VD 02VO 02VC 02MD 02MO 02MC 02RD 10RO	0	1	6.05629396439	None	None	None	None	1
2.7	2015_Jun_01_1601	s	s	20	1	SIC	6	ABS	1	0	02VD 02VO 02VC 02MD 02MO 10MC 02RD 02RO	0	1	6.62621808052	None	None	None	None	1
2.7	2015_Jun_01_1601	s	s	20	1	SIC	7	RC	1	0	02VD 02VO 02VC 02MD 02MO 09MC 02RD 02RO	1	0	1.84392309189	65.0	-145.0	63	-143	1
2.7	2015_Jun_01_1601	s	s	20	1	SIC	8	ABS	1	1	02VD 02VO 02VC 02MD 10MO 02MC 02RD 02RO	0	1	8.26930117607	None	None	None	None	1
2.7	2015_Jun_01_1601	s	s	20	1	SIC	9	RC	0	2	02VD 02VO 02VC 02MD 02MO 02MC 09RD 02RO	1	0	0.630081892014	-57.0	12.0	-49	13	1
2.7	2015_Jun_01_1601	s	s	20	1	SIC	10	RC	2	2	09VD 02VO 02VC 02MD 02MO 02MC 02RD 02RO	1	0	1.37112903595	-295.0	-353.0	-301	-353	1
2.7	2015_Jun_01_1601	s	s	20	1	SIC	11	RC	2	1	02VD 09VO 02VC 02MD 02MO 02MC 02RD 02RO	1	0	1.38827300072	57.0	327.0	55	328	1
2.7	2015_Jun_01_1601	s	s	20	1	SIC	12	ABS	2	0	02VD 02VO 10VC 02MD 02MO 02MC 02RD 02RO	0	1	3.33046412468	None	None	None	None	1
2.7	2015_Jun_01_1601	s	s	20	1	SIC	13	ABS	2	2	10VD 02VO 02VC 02MD 02MO 02MC 02RD 02RO	0	1	2.75418591499	None	None	None	None	1
2.7	2015_Jun_01_1601	s	s	20	1	SIC	14	ABS	2	1	02VD 10VO 02VC 02MD 02MO 02MC 02RD 02RO	1	0	15.3207359314	None	None	-24	181	0
2.7	2015_Jun_01_1601	s	s	20	1	SIC	15	ABS	0	2	02VD 02VO 02VC 02MD 02MO 02MC 10RD 02RO	0	1	2.93016290665	None	None	None	None	1
2.7	2015_Jun_01_1601	s	s	20	1	SIC	16	RC	1	1	02VD 02VO 02VC 02MD 09MO 02MC 02RD 02RO	1	0	1.24235391617	263.0	61.0	257	57	1
2.7	2015_Jun_01_1601	s	s	20	1	SIC	17	ABS	1	2	02VD 02VO 02VC 10MD 02MO 02MC 02RD 02RO	0	1	2.60105609894	None	None	None	None	1
2.7	2015_Jun_01_1601	s	s	20	1	SIC	18	ABS	0	1	02VD 02VO 02VC 02MD 02MO 02MC 02RD 10RO	0	1	5.19026613235	None	None	None	None	1
2.7	2015_Jun_01_1601	s	s	20	1	SIC	19	ABS	2	2	10VD 02VO 02VC 02MD 02MO 02MC 02RD 02RO	0	1	2.98584699631	None	None	None	None	1
2.7	2015_Jun_01_1601	s	s	20	1	SIC	20	RC	2	0	02VD 02VO 09VC 02MD 02MO 02MC 02RD 02RO	1	0	2.86332607269	515.0	393.0	509	384	1
2.7	2015_Jun_01_1601	s	s	20	1	SIC	21	ABS	0	2	02VD 02VO 02VC 02MD 02MO 02MC 10RD 02RO	0	1	2.16027879715	None	None	None	None	1
2.7	2015_Jun_01_1601	s	s	20	1	SIC	22	ABS	2	0	02VD 02VO 10VC 02MD 02MO 02MC 02RD 02RO	0	1	3.18422698975	None	None	None	None	1
2.7	2015_Jun_01_1601	s	s	20	1	SIC	23	ABS	2	1	02VD 10VO 02VC 02MD 02MO 02MC 02RD 02RO	0	1	2.0393910408	None	None	None	None	1
2.7	2015_Jun_01_1601	s	s	20	1	SIC	24	RC	1	2	02VD 02VO 02VC 09MD 02MO 02MC 02RD 02RO	1	0	1.09776520729	57.0	-363.0	51	-356	1
2.7	2015_Jun_01_1601	s	s	20	1	SIC	25	ABS	1	1	02VD 02VO 02VC 02MD 10MO 02MC 02RD 02RO	0	1	3.35133099556	None	None	None	None	1
2.7	2015_Jun_01_1601	s	s	20	1	SIC	26	ABS	1	0	02VD 02VO 02VC 02MD 02MO 10MC 02RD 02RO	0	1	4.37303519249	None	None	None	None	1
2.7	2015_Jun_01_1601	s	s	20	1	SIC	27	RC	1	1	02VD 02VO 02VC 02MD 09MO 02MC 02RD 02RO	1	0	2.88931894302	-477.0	328.0	-475	320	1
2.7	2015_Jun_01_1601	s	s	20	1	SIC	28	RC	2	2	09VD 02VO 02VC 02MD 02MO 02MC 02RD 02RO	1	0	2.30636882782	-80.0	257.0	-86	256	1
2.7	2015_Jun_01_1601	s	s	20	1	SIC	29	RC	0	2	02VD 02VO 02VC 02MD 02MO 02MC 09RD 02RO	1	0	0.576111078262	-116.0	93.0	-119	93	1
2.7	2015_Jun_01_1601	s	s	20	1	SIC	30	RC	1	0	02VD 02VO 02VC 02MD 02MO 09MC 02RD 02RO	1	0	2.14841008186	377.0	214.0	381	208	1
2.7	2015_Jun_01_1601	s	s	20	1	SIC	31	RC	2	1	02VD 09VO 02VC 02MD 02MO 02MC 02RD 02RO	1	0	1.90388393402	-351.0	-265.0	-342	-258	1
2.7	2015_Jun_01_1601	s	s	20	1	SIC	32	RC	0	1	02VD 02VO 02VC 02MD 02MO 02MC 02RD 09RO	1	0	3.98964691162	345.0	199.0	337	200	1
2.7	2015_Jun_01_1601	s	s	20	1	SIC	33	RC	0	1	02VD 02VO 02VC 02MD 02MO 02MC 02RD 09RO	1	0	0.800243854523	24.0	159.0	26	152	1
2.7	2015_Jun_01_1601	s	s	20	1	SIC	34	ABS	0	1	02VD 02VO 02VC 02MD 02MO 02MC 02RD 10RO	0	1	3.57524013519	None	None	None	None	1
2.7	2015_Jun_01_1601	s	s	20	1	SIC	35	RC	2	1	02VD 09VO 02VC 02MD 02MO 02MC 02RD 02RO	1	0	2.01882696152	-256.0	387.0	-265	384	1
2.7	2015_Jun_01_1601	s	s	20	1	SIC	36	RC	2	0	02VD 02VO 09VC 02MD 02MO 02MC 02RD 02RO	1	0	1.97171902657	-451.0	-20.0	-447	-21	1
2.7	2015_Jun_01_1601	s	s	20	1	SIC	37	ABS	2	1	02VD 10VO 02VC 02MD 02MO 02MC 02RD 02RO	0	1	2.77233409882	None	None	None	None	1
2.7	2015_Jun_01_1601	s	s	20	1	SIC	38	RC	1	1	02VD 02VO 02VC 02MD 09MO 02MC 02RD 02RO	1	0	2.76532793045	-242.0	209.0	-246	210	1
2.7	2015_Jun_01_1601	s	s	20	1	SIC	39	ABS	1	1	02VD 02VO 02VC 02MD 10MO 02MC 02RD 02RO	0	1	3.28338980675	None	None	None	None	1
2.7	2015_Jun_01_1601	s	s	20	1	SIC	40	RC	1	2	02VD 02VO 02VC 09MD 02MO 02MC 02RD 02RO	0	1	2.48986792564	367.0	44.0	None	None	0
2.7	2015_Jun_01_1601	s	s	20	1	SIC	41	ABS	1	2	02VD 02VO 02VC 10MD 02MO 02MC 02RD 02RO	0	1	2.85426998138	None	None	None	None	1
2.7	2015_Jun_01_1601	s	s	20	1	SIC	42	ABS	0	2	02VD 02VO 02VC 02MD 02MO 02MC 10RD 02RO	0	1	2.83045315742	None	None	None	None	1
2.7	2015_Jun_01_1601	s	s	20	1	SIC	43	ABS	2	0	02VD 02VO 10VC 02MD 02MO 02MC 02RD 02RO	0	1	1.75315308571	None	None	None	None	1
2.7	2015_Jun_01_1601	s	s	20	1	SIC	44	ABS	2	2	10VD 02VO 02VC 02MD 02MO 02MC 02RD 02RO	0	1	2.69484400749	None	None	None	None	1
2.7	2015_Jun_01_1601	s	s	20	1	SIC	45	RC	1	0	02VD 02VO 02VC 02MD 02MO 09MC 02RD 02RO	1	0	2.51868700981	-465.0	-129.0	-473	-126	1
2.7	2015_Jun_01_1601	s	s	20	1	SIC	46	ABS	1	0	02VD 02VO 02VC 02MD 02MO 10MC 02RD 02RO	0	1	6.75336885452	None	None	None	None	1
2.7	2015_Jun_01_1601	s	s	20	1	SIC	47	RC	2	2	09VD 02VO 02VC 02MD 02MO 02MC 02RD 02RO	1	0	2.79829597473	51.0	376.0	53	376	1
2.7	2015_Jun_01_1601	s	s	20	1	SIC	48	RC	0	2	02VD 02VO 02VC 02MD 02MO 02MC 09RD 02RO	1	0	1.87090396881	246.0	-388.0	241	-388	1
2.7	2015_Jun_01_1601	s	s	20	1	SIC	49	RC	0	1	02VD 02VO 02VC 02MD 02MO 02MC 02RD 09RO	1	0	2.6713321209	196.0	5.0	187	7	1
2.7	2015_Jun_01_1601	s	s	20	1	SIC	50	RC	1	0	02VD 02VO 02VC 02MD 02MO 09MC 02RD 02RO	1	0	1.59692215919	446.0	-159.0	451	-157	1
2.7	2015_Jun_01_1601	s	s	20	1	SIC	51	RC	2	0	02VD 02VO 09VC 02MD 02MO 02MC 02RD 02RO	1	0	0.968296051025	-8.0	10.0	-1	5	1
2.7	2015_Jun_01_1601	s	s	20	1	SIC	52	ABS	1	2	02VD 02VO 02VC 10MD 02MO 02MC 02RD 02RO	0	1	3.58440685272	None	None	None	None	1
2.7	2015_Jun_01_1601	s	s	20	1	SIC	53	ABS	1	1	02VD 02VO 02VC 02MD 10MO 02MC 02RD 02RO	0	1	3.78925299644	None	None	None	None	1
2.7	2015_Jun_01_1601	s	s	20	1	SIC	54	RC	2	1	02VD 09VO 02VC 02MD 02MO 02MC 02RD 02RO	1	0	1.97161507607	-316.0	331.0	-320	331	1
2.7	2015_Jun_01_1601	s	s	20	1	SIC	55	RC	2	2	09VD 02VO 02VC 02MD 02MO 02MC 02RD 02RO	1	0	3.05615305901	336.0	-248.0	342	-253	1
2.7	2015_Jun_01_1601	s	s	20	1	SIC	56	ABS	2	2	10VD 02VO 02VC 02MD 02MO 02MC 02RD 02RO	0	1	3.39618301392	None	None	None	None	1
2.7	2015_Jun_01_1601	s	s	20	1	SIC	57	ABS	0	2	02VD 02VO 02VC 02MD 02MO 02MC 10RD 02RO	0	1	2.97726202011	None	None	None	None	1
2.7	2015_Jun_01_1601	s	s	20	1	SIC	58	RC	0	2	02VD 02VO 02VC 02MD 02MO 02MC 09RD 02RO	1	0	4.04236984253	-265.0	154.0	-260	154	1
2.7	2015_Jun_01_1601	s	s	20	1	SIC	59	RC	1	2	02VD 02VO 02VC 09MD 02MO 02MC 02RD 02RO	1	0	1.28240990639	-414.0	-167.0	-417	-173	1
2.7	2015_Jun_01_1601	s	s	20	1	SIC	60	ABS	0	1	02VD 02VO 02VC 02MD 02MO 02MC 02RD 10RO	0	1	3.76101398468	None	None	None	None	1
2.7	2015_Jun_01_1601	s	s	20	1	SIC	61	ABS	1	0	02VD 02VO 02VC 02MD 02MO 10MC 02RD 02RO	0	1	0.117120981216	None	None	None	None	1
2.7	2015_Jun_01_1601	s	s	20	1	SIC	62	ABS	2	1	02VD 10VO 02VC 02MD 02MO 02MC 02RD 02RO	0	1	3.58938002586	None	None	None	None	1
2.7	2015_Jun_01_1601	s	s	20	1	SIC	63	ABS	2	0	02VD 02VO 10VC 02MD 02MO 02MC 02RD 02RO	0	1	6.44963788986	None	None	None	None	1
2.7	2015_Jun_01_1601	s	s	20	1	SIC	64	RC	1	1	02VD 02VO 02VC 02MD 09MO 02MC 02RD 02RO	1	0	0.853543043137	333.0	47.0	325	46	1
2.7	2015_Jun_01_1601	s	s	20	1	SIC	65	ABS	2	1	02VD 10VO 02VC 02MD 02MO 02MC 02RD 02RO	1	0	0.771317958832	None	None	-119	151	0
2.7	2015_Jun_01_1601	s	s	20	1	SIC	66	RC	0	1	02VD 02VO 02VC 02MD 02MO 02MC 02RD 09RO	1	0	1.67798089981	482.0	-221.0	486	-224	1
2.7	2015_Jun_01_1601	s	s	20	1	SIC	67	ABS	2	0	02VD 02VO 10VC 02MD 02MO 02MC 02RD 02RO	0	1	4.19896101952	None	None	None	None	1
2.7	2015_Jun_01_1601	s	s	20	1	SIC	68	RC	1	2	02VD 02VO 02VC 09MD 02MO 02MC 02RD 02RO	1	0	1.16468882561	193.0	-146.0	192	-137	1
2.7	2015_Jun_01_1601	s	s	20	1	SIC	69	RC	2	0	02VD 02VO 09VC 02MD 02MO 02MC 02RD 02RO	1	0	0.90186715126	149.0	-55.0	143	-57	1
2.7	2015_Jun_01_1601	s	s	20	1	SIC	70	RC	1	0	02VD 02VO 02VC 02MD 02MO 09MC 02RD 02RO	1	0	1.60012888908	268.0	-109.0	271	-112	1
2.7	2015_Jun_01_1601	s	s	20	1	SIC	71	ABS	0	1	02VD 02VO 02VC 02MD 02MO 02MC 02RD 10RO	0	1	4.42005181313	None	None	None	None	1
2.7	2015_Jun_01_1601	s	s	20	1	SIC	72	RC	1	1	02VD 02VO 02VC 02MD 09MO 02MC 02RD 02RO	1	0	1.1768181324	235.0	-194.0	238	-197	1
2.7	2015_Jun_01_1601	s	s	20	1	SIC	73	RC	2	1	02VD 09VO 02VC 02MD 02MO 02MC 02RD 02RO	1	0	1.79533600807	8.0	401.0	6	398	1
2.7	2015_Jun_01_1601	s	s	20	1	SIC	74	ABS	0	2	02VD 02VO 02VC 02MD 02MO 02MC 10RD 02RO	0	1	2.80741906166	None	None	None	None	1
2.7	2015_Jun_01_1601	s	s	20	1	SIC	75	RC	0	2	02VD 02VO 02VC 02MD 02MO 02MC 09RD 02RO	1	0	1.04215502739	92.0	-349.0	97	-352	1
2.7	2015_Jun_01_1601	s	s	20	1	SIC	76	ABS	1	1	02VD 02VO 02VC 02MD 10MO 02MC 02RD 02RO	0	1	3.3186750412	None	None	None	None	1
2.7	2015_Jun_01_1601	s	s	20	1	SIC	77	ABS	1	2	02VD 02VO 02VC 10MD 02MO 02MC 02RD 02RO	0	1	3.12533903122	None	None	None	None	1
2.7	2015_Jun_01_1601	s	s	20	1	SIC	78	RC	2	2	09VD 02VO 02VC 02MD 02MO 02MC 02RD 02RO	1	0	2.03567814827	397.0	-402.0	396	-404	1
2.7	2015_Jun_01_1601	s	s	20	1	SIC	79	ABS	2	2	10VD 02VO 02VC 02MD 02MO 02MC 02RD 02RO	0	1	2.21909379959	None	None	None	None	1
2.7	2015_Jun_01_1601	s	s	20	1	SIC	80	ABS	1	0	02VD 02VO 02VC 02MD 02MO 10MC 02RD 02RO	0	1	4.25227999687	None	None	None	None	1
2.7	2015_Jun_01_1601	s	s	20	1	SIC	81	RC	1	2	02VD 02VO 02VC 09MD 02MO 02MC 02RD 02RO	1	0	1.02338385582	-329.0	-6.0	-328	-15	1
2.7	2015_Jun_01_1601	s	s	20	1	SIC	82	RC	1	0	02VD 02VO 02VC 02MD 02MO 09MC 02RD 02RO	1	0	1.09405088425	-104.0	149.0	-109	148	1
2.7	2015_Jun_01_1601	s	s	20	1	SIC	83	ABS	1	0	02VD 02VO 02VC 02MD 02MO 10MC 02RD 02RO	0	1	3.21952486038	None	None	None	None	1
2.7	2015_Jun_01_1601	s	s	20	1	SIC	84	RC	2	0	02VD 02VO 09VC 02MD 02MO 02MC 02RD 02RO	1	0	0.709333181381	-120.0	-116.0	-122	-119	1
2.7	2015_Jun_01_1601	s	s	20	1	SIC	85	RC	2	2	09VD 02VO 02VC 02MD 02MO 02MC 02RD 02RO	1	0	1.24211192131	461.0	-71.0	460	-76	1
2.7	2015_Jun_01_1601	s	s	20	1	SIC	86	RC	0	2	02VD 02VO 02VC 02MD 02MO 02MC 09RD 02RO	1	0	1.11256098747	300.0	400.0	297	393	1
2.7	2015_Jun_01_1601	s	s	20	1	SIC	87	RC	1	1	02VD 02VO 02VC 02MD 09MO 02MC 02RD 02RO	1	0	2.86576700211	490.0	96.0	482	95	1
2.7	2015_Jun_01_1601	s	s	20	1	SIC	88	ABS	2	2	10VD 02VO 02VC 02MD 02MO 02MC 02RD 02RO	0	1	3.66914105415	None	None	None	None	1
2.7	2015_Jun_01_1601	s	s	20	1	SIC	89	ABS	1	1	02VD 02VO 02VC 02MD 10MO 02MC 02RD 02RO	1	0	6.71567392349	None	None	-487	147	0
2.7	2015_Jun_01_1601	s	s	20	1	SIC	90	ABS	0	2	02VD 02VO 02VC 02MD 02MO 02MC 10RD 02RO	0	1	3.41289591789	None	None	None	None	1
2.7	2015_Jun_01_1601	s	s	20	1	SIC	91	ABS	0	1	02VD 02VO 02VC 02MD 02MO 02MC 02RD 10RO	0	1	3.99660086632	None	None	None	None	1
2.7	2015_Jun_01_1601	s	s	20	1	SIC	92	ABS	1	2	02VD 02VO 02VC 10MD 02MO 02MC 02RD 02RO	0	1	3.18511295319	None	None	None	None	1
2.7	2015_Jun_01_1601	s	s	20	1	SIC	93	RC	0	1	02VD 02VO 02VC 02MD 02MO 02MC 02RD 09RO	1	0	1.52462291718	455.0	235.0	456	227	1
2.7	2015_Jun_01_1601	s	s	20	1	SIC	94	ABS	2	0	02VD 02VO 10VC 02MD 02MO 02MC 02RD 02RO	1	0	3.30742788315	None	None	-192	-407	0
2.7	2015_Jun_01_1601	s	s	20	1	SIC	95	RC	2	1	02VD 09VO 02VC 02MD 02MO 02MC 02RD 02RO	1	0	1.72960615158	-333.0	353.0	-334	347	1
2.7	2015_Jun_01_1601	s	s	20	1	SIC	96	ABS	2	1	02VD 10VO 02VC 02MD 02MO 02MC 02RD 02RO	0	1	2.71837997437	None	None	None	None	1
2.7	2015_Jun_01_1601	s	s	20	1	SIC	97	ABS	2	1	02VD 10VO 02VC 02MD 02MO 02MC 02RD 02RO	0	1	2.64263892174	None	None	None	None	1
2.7	2015_Jun_01_1601	s	s	20	1	SIC	98	ABS	1	0	02VD 02VO 02VC 02MD 02MO 10MC 02RD 02RO	1	0	3.04194998741	None	None	134	-398	0
2.7	2015_Jun_01_1601	s	s	20	1	SIC	99	ABS	0	1	02VD 02VO 02VC 02MD 02MO 02MC 02RD 10RO	1	0	5.11702489853	None	None	119	-405	0
2.7	2015_Jun_01_1601	s	s	20	1	SIC	100	RC	0	1	02VD 02VO 02VC 02MD 02MO 02MC 02RD 09RO	1	0	2.14153695107	-222.0	-140.0	-216	-138	1
2.7	2015_Jun_01_1601	s	s	20	1	SIC	101	RC	0	2	02VD 02VO 02VC 02MD 02MO 02MC 09RD 02RO	1	0	2.36540102959	-526.0	259.0	-531	255	1
2.7	2015_Jun_01_1601	s	s	20	1	SIC	102	RC	2	0	02VD 02VO 09VC 02MD 02MO 02MC 02RD 02RO	0	1	2.31298708916	-73.0	271.0	None	None	0
2.7	2015_Jun_01_1601	s	s	20	1	SIC	103	RC	1	2	02VD 02VO 02VC 09MD 02MO 02MC 02RD 02RO	1	0	1.29412603378	431.0	209.0	426	209	1
2.7	2015_Jun_01_1601	s	s	20	1	SIC	104	ABS	0	2	02VD 02VO 02VC 02MD 02MO 02MC 10RD 02RO	0	1	2.27095413208	None	None	None	None	1
2.7	2015_Jun_01_1601	s	s	20	1	SIC	105	ABS	2	0	02VD 02VO 10VC 02MD 02MO 02MC 02RD 02RO	0	1	2.8837389946	None	None	None	None	1
2.7	2015_Jun_01_1601	s	s	20	1	SIC	106	RC	2	1	02VD 09VO 02VC 02MD 02MO 02MC 02RD 02RO	1	0	2.16514205933	327.0	259.0	338	261	1
2.7	2015_Jun_01_1601	s	s	20	1	SIC	107	ABS	1	2	02VD 02VO 02VC 10MD 02MO 02MC 02RD 02RO	0	1	2.25457000732	None	None	None	None	1
2.7	2015_Jun_01_1601	s	s	20	1	SIC	108	RC	1	1	02VD 02VO 02VC 02MD 09MO 02MC 02RD 02RO	1	0	2.86644220352	-270.0	-318.0	-267	-328	1
2.7	2015_Jun_01_1601	s	s	20	1	SIC	109	ABS	1	1	02VD 02VO 02VC 02MD 10MO 02MC 02RD 02RO	0	1	7.13902878761	None	None	None	None	1
2.7	2015_Jun_01_1601	s	s	20	1	SIC	110	RC	1	0	02VD 02VO 02VC 02MD 02MO 09MC 02RD 02RO	1	0	2.87813210487	-264.0	101.0	-262	94	1
2.7	2015_Jun_01_1601	s	s	20	1	SIC	111	ABS	2	2	10VD 02VO 02VC 02MD 02MO 02MC 02RD 02RO	0	1	2.26289987564	None	None	None	None	1
2.7	2015_Jun_01_1601	s	s	20	1	SIC	112	RC	2	2	09VD 02VO 02VC 02MD 02MO 02MC 02RD 02RO	1	0	1.58094191551	136.0	-365.0	138	-369	1
2.7	2015_Jun_01_1601	s	s	20	1	SIC	113	ABS	2	1	02VD 10VO 02VC 02MD 02MO 02MC 02RD 02RO	0	1	2.6005730629	None	None	None	None	1
2.7	2015_Jun_01_1601	s	s	20	1	SIC	114	ABS	1	0	02VD 02VO 02VC 02MD 02MO 10MC 02RD 02RO	0	1	4.12736701965	None	None	None	None	1
2.7	2015_Jun_01_1601	s	s	20	1	SIC	115	ABS	2	2	10VD 02VO 02VC 02MD 02MO 02MC 02RD 02RO	0	1	2.409678936	None	None	None	None	1
2.7	2015_Jun_01_1601	s	s	20	1	SIC	116	RC	1	0	02VD 02VO 02VC 02MD 02MO 09MC 02RD 02RO	0	1	2.1655330658	129.0	-362.0	None	None	0
2.7	2015_Jun_01_1601	s	s	20	1	SIC	117	ABS	0	2	02VD 02VO 02VC 02MD 02MO 02MC 10RD 02RO	0	1	3.50200295448	None	None	None	None	1
2.7	2015_Jun_01_1601	s	s	20	1	SIC	118	RC	1	2	02VD 02VO 02VC 09MD 02MO 02MC 02RD 02RO	1	0	1.16467499733	-492.0	-154.0	-499	-160	1
2.7	2015_Jun_01_1601	s	s	20	1	SIC	119	ABS	1	1	02VD 02VO 02VC 02MD 10MO 02MC 02RD 02RO	0	1	4.13935303688	None	None	None	None	1
2.7	2015_Jun_01_1601	s	s	20	1	SIC	120	ABS	1	2	02VD 02VO 02VC 10MD 02MO 02MC 02RD 02RO	0	1	2.77717399597	None	None	None	None	1
2.7	2015_Jun_01_1601	s	s	20	1	SIC	121	ABS	0	1	02VD 02VO 02VC 02MD 02MO 02MC 02RD 10RO	0	1	6.50282502174	None	None	None	None	1
2.7	2015_Jun_01_1601	s	s	20	1	SIC	122	RC	1	1	02VD 02VO 02VC 02MD 09MO 02MC 02RD 02RO	1	0	0.947892904282	352.0	-200.0	355	-194	1
2.7	2015_Jun_01_1601	s	s	20	1	SIC	123	RC	0	1	02VD 02VO 02VC 02MD 02MO 02MC 02RD 09RO	1	0	3.33689904213	-261.0	-276.0	-259	-276	1
2.7	2015_Jun_01_1601	s	s	20	1	SIC	124	RC	2	0	02VD 02VO 09VC 02MD 02MO 02MC 02RD 02RO	1	0	1.38340091705	-98.0	34.0	-97	31	1
2.7	2015_Jun_01_1601	s	s	20	1	SIC	125	RC	2	2	09VD 02VO 02VC 02MD 02MO 02MC 02RD 02RO	1	0	3.44333696365	366.0	394.0	364	388	1
2.7	2015_Jun_01_1601	s	s	20	1	SIC	126	ABS	2	0	02VD 02VO 10VC 02MD 02MO 02MC 02RD 02RO	0	1	3.11854887009	None	None	None	None	1
2.7	2015_Jun_01_1601	s	s	20	1	SIC	127	RC	0	2	02VD 02VO 02VC 02MD 02MO 02MC 09RD 02RO	1	0	0.905665159225	-235.0	105.0	-246	106	1
2.7	2015_Jun_01_1601	s	s	20	1	SIC	128	RC	2	1	02VD 09VO 02VC 02MD 02MO 02MC 02RD 02RO	0	1	2.45933699608	-323.0	1.0	None	None	0
2.7	2015_Jun_01_1601	s	s	20	1	SIC	129	ABS	2	1	02VD 10VO 02VC 02MD 02MO 02MC 02RD 02RO	0	1	2.5368309021	None	None	None	None	1
2.7	2015_Jun_01_1601	s	s	20	1	SIC	130	ABS	2	2	10VD 02VO 02VC 02MD 02MO 02MC 02RD 02RO	0	1	3.07144498825	None	None	None	None	1
2.7	2015_Jun_01_1601	s	s	20	1	SIC	131	ABS	2	0	02VD 02VO 10VC 02MD 02MO 02MC 02RD 02RO	0	1	3.74879097939	None	None	None	None	1
2.7	2015_Jun_01_1601	s	s	20	1	SIC	132	RC	2	2	09VD 02VO 02VC 02MD 02MO 02MC 02RD 02RO	1	0	1.10318803787	237.0	64.0	233	68	1
2.7	2015_Jun_01_1601	s	s	20	1	SIC	133	ABS	1	1	02VD 02VO 02VC 02MD 10MO 02MC 02RD 02RO	0	1	4.21949195862	None	None	None	None	1
2.7	2015_Jun_01_1601	s	s	20	1	SIC	134	ABS	0	1	02VD 02VO 02VC 02MD 02MO 02MC 02RD 10RO	0	1	3.48348808289	None	None	None	None	1
2.7	2015_Jun_01_1601	s	s	20	1	SIC	135	ABS	1	2	02VD 02VO 02VC 10MD 02MO 02MC 02RD 02RO	0	1	3.24303507805	None	None	None	None	1
2.7	2015_Jun_01_1601	s	s	20	1	SIC	136	RC	2	1	02VD 09VO 02VC 02MD 02MO 02MC 02RD 02RO	1	0	0.982975959778	-488.0	98.0	-493	93	1
2.7	2015_Jun_01_1601	s	s	20	1	SIC	137	RC	0	1	02VD 02VO 02VC 02MD 02MO 02MC 02RD 09RO	1	0	2.70658397675	-123.0	-409.0	-123	-402	1
2.7	2015_Jun_01_1601	s	s	20	1	SIC	138	RC	0	2	02VD 02VO 02VC 02MD 02MO 02MC 09RD 02RO	1	0	0.973649978638	-180.0	71.0	-169	71	1
2.7	2015_Jun_01_1601	s	s	20	1	SIC	139	RC	2	0	02VD 02VO 09VC 02MD 02MO 02MC 02RD 02RO	1	0	0.878475904465	299.0	314.0	304	310	1
2.7	2015_Jun_01_1601	s	s	20	1	SIC	140	RC	1	0	02VD 02VO 02VC 02MD 02MO 09MC 02RD 02RO	1	0	0.906013011932	362.0	-184.0	359	-183	1
2.7	2015_Jun_01_1601	s	s	20	1	SIC	141	ABS	1	0	02VD 02VO 02VC 02MD 02MO 10MC 02RD 02RO	0	1	2.93035793304	None	None	None	None	1
2.7	2015_Jun_01_1601	s	s	20	1	SIC	142	RC	1	2	02VD 02VO 02VC 09MD 02MO 02MC 02RD 02RO	1	0	0.782688856125	-183.0	-274.0	-187	-275	1
2.7	2015_Jun_01_1601	s	s	20	1	SIC	143	RC	1	1	02VD 02VO 02VC 02MD 09MO 02MC 02RD 02RO	1	0	1.0704870224	325.0	-24.0	338	-20	1
2.7	2015_Jun_01_1601	s	s	20	1	SIC	144	ABS	0	2	02VD 02VO 02VC 02MD 02MO 02MC 10RD 02RO	0	1	1.85112595558	None	None	None	None	1
2.7	2015_Jun_01_1601	s	s	20	1	SIC	145	RC	2	2	09VD 02VO 02VC 02MD 02MO 02MC 02RD 02RO	1	0	1.42987680435	-243.0	128.0	-237	120	1
2.7	2015_Jun_01_1601	s	s	20	1	SIC	146	RC	1	1	02VD 02VO 02VC 02MD 09MO 02MC 02RD 02RO	1	0	0.770831108093	130.0	47.0	138	44	1
2.7	2015_Jun_01_1601	s	s	20	1	SIC	147	ABS	0	2	02VD 02VO 02VC 02MD 02MO 02MC 10RD 02RO	0	1	2.07837581635	None	None	None	None	1
2.7	2015_Jun_01_1601	s	s	20	1	SIC	148	RC	2	1	02VD 09VO 02VC 02MD 02MO 02MC 02RD 02RO	1	0	0.809026956558	-150.0	-154.0	-140	-150	1
2.7	2015_Jun_01_1601	s	s	20	1	SIC	149	ABS	1	0	02VD 02VO 02VC 02MD 02MO 10MC 02RD 02RO	0	1	2.98374009132	None	None	None	None	1
2.7	2015_Jun_01_1601	s	s	20	1	SIC	150	RC	0	1	02VD 02VO 02VC 02MD 02MO 02MC 02RD 09RO	1	0	3.23133993149	451.0	-245.0	446	-246	1
2.7	2015_Jun_01_1601	s	s	20	1	SIC	151	ABS	2	1	02VD 10VO 02VC 02MD 02MO 02MC 02RD 02RO	0	1	2.24254703522	None	None	None	None	1
2.7	2015_Jun_01_1601	s	s	20	1	SIC	152	ABS	1	2	02VD 02VO 02VC 10MD 02MO 02MC 02RD 02RO	0	1	2.70158910751	None	None	None	None	1
2.7	2015_Jun_01_1601	s	s	20	1	SIC	153	RC	1	0	02VD 02VO 02VC 02MD 02MO 09MC 02RD 02RO	1	0	1.44717502594	122.0	-314.0	123	-320	1
2.7	2015_Jun_01_1601	s	s	20	1	SIC	154	RC	0	2	02VD 02VO 02VC 02MD 02MO 02MC 09RD 02RO	1	0	1.24189305305	208.0	-371.0	217	-369	1
2.7	2015_Jun_01_1601	s	s	20	1	SIC	155	RC	2	0	02VD 02VO 09VC 02MD 02MO 02MC 02RD 02RO	1	0	3.14239096642	-157.0	380.0	-148	382	1
2.7	2015_Jun_01_1601	s	s	20	1	SIC	156	RC	1	2	02VD 02VO 02VC 09MD 02MO 02MC 02RD 02RO	1	0	5.09196901321	-358.0	-62.0	-362	-58	1
2.7	2015_Jun_01_1601	s	s	20	1	SIC	157	ABS	0	1	02VD 02VO 02VC 02MD 02MO 02MC 02RD 10RO	0	1	3.27934002876	None	None	None	None	1
2.7	2015_Jun_01_1601	s	s	20	1	SIC	158	ABS	2	0	02VD 02VO 10VC 02MD 02MO 02MC 02RD 02RO	0	1	2.10633897781	None	None	None	None	1
2.7	2015_Jun_01_1601	s	s	20	1	SIC	159	ABS	1	1	02VD 02VO 02VC 02MD 10MO 02MC 02RD 02RO	0	1	2.8948931694	None	None	None	None	1
2.7	2015_Jun_01_1601	s	s	20	1	SIC	160	ABS	2	2	10VD 02VO 02VC 02MD 02MO 02MC 02RD 02RO	0	1	3.64426207542	None	None	None	None	1
2.7	2015_Jun_01_1601	s	s	20	1	SIC	161	RC	2	2	09VD 02VO 02VC 02MD 02MO 02MC 02RD 02RO	1	0	1.41862511635	235.0	-222.0	238	-226	1
2.7	2015_Jun_01_1601	s	s	20	1	SIC	162	ABS	1	1	02VD 02VO 02VC 02MD 10MO 02MC 02RD 02RO	0	1	5.32665300369	None	None	None	None	1
2.7	2015_Jun_01_1601	s	s	20	1	SIC	163	ABS	1	0	02VD 02VO 02VC 02MD 02MO 10MC 02RD 02RO	0	1	2.6657640934	None	None	None	None	1
2.7	2015_Jun_01_1601	s	s	20	1	SIC	164	RC	1	0	02VD 02VO 02VC 02MD 02MO 09MC 02RD 02RO	1	0	4.18970108032	-274.0	280.0	-276	264	1
2.7	2015_Jun_01_1601	s	s	20	1	SIC	165	ABS	2	2	10VD 02VO 02VC 02MD 02MO 02MC 02RD 02RO	0	1	1.96129703522	None	None	None	None	1
2.7	2015_Jun_01_1601	s	s	20	1	SIC	166	RC	0	2	02VD 02VO 02VC 02MD 02MO 02MC 09RD 02RO	1	0	0.935829877853	-273.0	-244.0	-267	-242	1
2.7	2015_Jun_01_1601	s	s	20	1	SIC	167	ABS	0	1	02VD 02VO 02VC 02MD 02MO 02MC 02RD 10RO	0	1	5.96216201782	None	None	None	None	1
2.7	2015_Jun_01_1601	s	s	20	1	SIC	168	RC	1	2	02VD 02VO 02VC 09MD 02MO 02MC 02RD 02RO	1	0	1.85950183868	-143.0	229.0	-145	222	1
2.7	2015_Jun_01_1601	s	s	20	1	SIC	169	RC	0	1	02VD 02VO 02VC 02MD 02MO 02MC 02RD 09RO	1	0	2.18343019485	-293.0	203.0	-289	205	1
2.7	2015_Jun_01_1601	s	s	20	1	SIC	170	ABS	2	1	02VD 10VO 02VC 02MD 02MO 02MC 02RD 02RO	0	1	3.3657720089	None	None	None	None	1
2.7	2015_Jun_01_1601	s	s	20	1	SIC	171	ABS	2	0	02VD 02VO 10VC 02MD 02MO 02MC 02RD 02RO	0	1	10.4118990898	None	None	None	None	1
2.7	2015_Jun_01_1601	s	s	20	1	SIC	172	ABS	0	2	02VD 02VO 02VC 02MD 02MO 02MC 10RD 02RO	0	1	1.88032603264	None	None	None	None	1
2.7	2015_Jun_01_1601	s	s	20	1	SIC	173	RC	1	1	02VD 02VO 02VC 02MD 09MO 02MC 02RD 02RO	1	0	1.73628497124	275.0	221.0	281	218	1
2.7	2015_Jun_01_1601	s	s	20	1	SIC	174	RC	2	0	02VD 02VO 09VC 02MD 02MO 02MC 02RD 02RO	1	0	1.76486611366	-503.0	29.0	-496	22	1
2.7	2015_Jun_01_1601	s	s	20	1	SIC	175	ABS	1	2	02VD 02VO 02VC 10MD 02MO 02MC 02RD 02RO	0	1	0.747846126556	None	None	None	None	1
2.7	2015_Jun_01_1601	s	s	20	1	SIC	176	RC	2	1	02VD 09VO 02VC 02MD 02MO 02MC 02RD 02RO	1	0	2.01894116402	225.0	293.0	223	291	1
2.7	2015_Jun_01_1601	s	s	20	1	SIC	177	ABS	2	0	02VD 02VO 10VC 02MD 02MO 02MC 02RD 02RO	0	1	2.20799803734	None	None	None	None	1
2.7	2015_Jun_01_1601	s	s	20	1	SIC	178	RC	0	1	02VD 02VO 02VC 02MD 02MO 02MC 02RD 09RO	1	0	3.16565608978	-309.0	194.0	-305	186	1
2.7	2015_Jun_01_1601	s	s	20	1	SIC	179	ABS	2	1	02VD 10VO 02VC 02MD 02MO 02MC 02RD 02RO	0	1	2.83605694771	None	None	None	None	1
2.7	2015_Jun_01_1601	s	s	20	1	SIC	180	ABS	1	1	02VD 02VO 02VC 02MD 10MO 02MC 02RD 02RO	0	1	3.37751793861	None	None	None	None	1
2.7	2015_Jun_01_1601	s	s	20	1	SIC	181	ABS	2	2	10VD 02VO 02VC 02MD 02MO 02MC 02RD 02RO	0	1	2.43320894241	None	None	None	None	1
2.7	2015_Jun_01_1601	s	s	20	1	SIC	182	ABS	0	1	02VD 02VO 02VC 02MD 02MO 02MC 02RD 10RO	0	1	5.66793417931	None	None	None	None	1
2.7	2015_Jun_01_1601	s	s	20	1	SIC	183	ABS	1	0	02VD 02VO 02VC 02MD 02MO 10MC 02RD 02RO	0	1	3.48378396034	None	None	None	None	1
2.7	2015_Jun_01_1601	s	s	20	1	SIC	184	RC	1	1	02VD 02VO 02VC 02MD 09MO 02MC 02RD 02RO	1	0	1.31771397591	529.0	-152.0	527	-155	1
2.7	2015_Jun_01_1601	s	s	20	1	SIC	185	RC	0	2	02VD 02VO 02VC 02MD 02MO 02MC 09RD 02RO	0	1	2.43287706375	72.0	-336.0	None	None	0
2.7	2015_Jun_01_1601	s	s	20	1	SIC	186	ABS	0	2	02VD 02VO 02VC 02MD 02MO 02MC 10RD 02RO	0	1	2.4191391468	None	None	None	None	1
2.7	2015_Jun_01_1601	s	s	20	1	SIC	187	ABS	1	2	02VD 02VO 02VC 10MD 02MO 02MC 02RD 02RO	0	1	2.4123301506	None	None	None	None	1
2.7	2015_Jun_01_1601	s	s	20	1	SIC	188	RC	1	0	02VD 02VO 02VC 02MD 02MO 09MC 02RD 02RO	1	0	2.40059399605	227.0	275.0	223	264	1
2.7	2015_Jun_01_1601	s	s	20	1	SIC	189	RC	2	0	02VD 02VO 09VC 02MD 02MO 02MC 02RD 02RO	1	0	1.8826239109	218.0	12.0	226	15	1
2.7	2015_Jun_01_1601	s	s	20	1	SIC	190	RC	2	2	09VD 02VO 02VC 02MD 02MO 02MC 02RD 02RO	1	0	0.997362852097	530.0	257.0	531	254	1
2.7	2015_Jun_01_1601	s	s	20	1	SIC	191	RC	2	1	02VD 09VO 02VC 02MD 02MO 02MC 02RD 02RO	1	0	1.42358398438	-238.0	-347.0	-226	-342	1
2.7	2015_Jun_01_1601	s	s	20	1	SIC	192	RC	1	2	02VD 02VO 02VC 09MD 02MO 02MC 02RD 02RO	1	0	1.28904914856	104.0	37.0	103	37	1
2.7	2015_Jun_01_1601	s	s	20	1	SIC	193	RC	1	0	02VD 02VO 02VC 02MD 02MO 09MC 02RD 02RO	1	0	1.6658949852	-289.0	346.0	-290	336	1
2.7	2015_Jun_01_1601	s	s	20	1	SIC	194	RC	2	0	02VD 02VO 09VC 02MD 02MO 02MC 02RD 02RO	1	0	1.21869802475	448.0	-13.0	446	-23	1
2.7	2015_Jun_01_1601	s	s	20	1	SIC	195	RC	2	2	09VD 02VO 02VC 02MD 02MO 02MC 02RD 02RO	1	0	1.01164698601	358.0	-101.0	360	-97	1
2.7	2015_Jun_01_1601	s	s	20	1	SIC	196	RC	1	1	02VD 02VO 02VC 02MD 09MO 02MC 02RD 02RO	1	0	1.48281812668	157.0	182.0	156	178	1
2.7	2015_Jun_01_1601	s	s	20	1	SIC	197	ABS	2	1	02VD 10VO 02VC 02MD 02MO 02MC 02RD 02RO	0	1	2.26647901535	None	None	None	None	1
2.7	2015_Jun_01_1601	s	s	20	1	SIC	198	ABS	1	1	02VD 02VO 02VC 02MD 10MO 02MC 02RD 02RO	0	1	2.71326208115	None	None	None	None	1
2.7	2015_Jun_01_1601	s	s	20	1	SIC	199	ABS	0	2	02VD 02VO 02VC 02MD 02MO 02MC 10RD 02RO	0	1	2.67923283577	None	None	None	None	1
2.7	2015_Jun_01_1601	s	s	20	1	SIC	200	RC	0	1	02VD 02VO 02VC 02MD 02MO 02MC 02RD 09RO	1	0	4.26036500931	-376.0	-406.0	-368	-402	1
2.7	2015_Jun_01_1601	s	s	20	1	SIC	201	ABS	0	1	02VD 02VO 02VC 02MD 02MO 02MC 02RD 10RO	0	1	2.7151889801	None	None	None	None	1
2.7	2015_Jun_01_1601	s	s	20	1	SIC	202	RC	1	2	02VD 02VO 02VC 09MD 02MO 02MC 02RD 02RO	0	1	3.01923012733	-456.0	327.0	None	None	0
2.7	2015_Jun_01_1601	s	s	20	1	SIC	203	RC	0	2	02VD 02VO 02VC 02MD 02MO 02MC 09RD 02RO	1	0	1.26577496529	225.0	-400.0	237	-398	1
2.7	2015_Jun_01_1601	s	s	20	1	SIC	204	RC	2	1	02VD 09VO 02VC 02MD 02MO 02MC 02RD 02RO	1	0	0.799734115601	367.0	44.0	377	42	1
2.7	2015_Jun_01_1601	s	s	20	1	SIC	205	ABS	2	2	10VD 02VO 02VC 02MD 02MO 02MC 02RD 02RO	0	1	2.24754500389	None	None	None	None	1
2.7	2015_Jun_01_1601	s	s	20	1	SIC	206	ABS	2	0	02VD 02VO 10VC 02MD 02MO 02MC 02RD 02RO	0	1	2.96928286552	None	None	None	None	1
2.7	2015_Jun_01_1601	s	s	20	1	SIC	207	ABS	1	0	02VD 02VO 02VC 02MD 02MO 10MC 02RD 02RO	0	1	3.5235209465	None	None	None	None	1
2.7	2015_Jun_01_1601	s	s	20	1	SIC	208	ABS	1	2	02VD 02VO 02VC 10MD 02MO 02MC 02RD 02RO	0	1	2.98909211159	None	None	None	None	1
2.7	2015_Jun_01_1601	s	s	20	1	SIC	209	RC	0	1	02VD 02VO 02VC 02MD 02MO 02MC 02RD 09RO	1	0	7.59141302109	-148.0	405.0	-142	404	1
2.7	2015_Jun_01_1601	s	s	20	1	SIC	210	RC	1	2	02VD 02VO 02VC 09MD 02MO 02MC 02RD 02RO	1	0	1.41174507141	150.0	342.0	150	335	1
2.7	2015_Jun_01_1601	s	s	20	1	SIC	211	RC	1	1	02VD 02VO 02VC 02MD 09MO 02MC 02RD 02RO	1	0	1.12925004959	209.0	-156.0	196	-151	1
2.7	2015_Jun_01_1601	s	s	20	1	SIC	212	ABS	0	2	02VD 02VO 02VC 02MD 02MO 02MC 10RD 02RO	0	1	2.07777500153	None	None	None	None	1
2.7	2015_Jun_01_1601	s	s	20	1	SIC	213	ABS	0	1	02VD 02VO 02VC 02MD 02MO 02MC 02RD 10RO	0	1	4.95474720001	None	None	None	None	1
2.7	2015_Jun_01_1601	s	s	20	1	SIC	214	RC	1	0	02VD 02VO 02VC 02MD 02MO 09MC 02RD 02RO	1	0	1.7249250412	420.0	-60.0	419	-62	1
2.7	2015_Jun_01_1601	s	s	20	1	SIC	215	RC	2	0	02VD 02VO 09VC 02MD 02MO 02MC 02RD 02RO	1	0	0.914068222046	-74.0	53.0	-72	43	1
2.7	2015_Jun_01_1601	s	s	20	1	SIC	216	ABS	2	2	10VD 02VO 02VC 02MD 02MO 02MC 02RD 02RO	0	1	4.03224897385	None	None	None	None	1
2.7	2015_Jun_01_1601	s	s	20	1	SIC	217	ABS	2	0	02VD 02VO 10VC 02MD 02MO 02MC 02RD 02RO	0	1	2.55973505974	None	None	None	None	1
2.7	2015_Jun_01_1601	s	s	20	1	SIC	218	ABS	1	2	02VD 02VO 02VC 10MD 02MO 02MC 02RD 02RO	0	1	4.56638216972	None	None	None	None	1
2.7	2015_Jun_01_1601	s	s	20	1	SIC	219	RC	2	1	02VD 09VO 02VC 02MD 02MO 02MC 02RD 02RO	1	0	0.878901958466	-114.0	-33.0	-119	-44	1
2.7	2015_Jun_01_1601	s	s	20	1	SIC	220	ABS	1	0	02VD 02VO 02VC 02MD 02MO 10MC 02RD 02RO	0	1	3.58452296257	None	None	None	None	1
2.7	2015_Jun_01_1601	s	s	20	1	SIC	221	RC	2	2	09VD 02VO 02VC 02MD 02MO 02MC 02RD 02RO	1	0	1.75942802429	174.0	-298.0	169	-300	1
2.7	2015_Jun_01_1601	s	s	20	1	SIC	222	ABS	2	1	02VD 10VO 02VC 02MD 02MO 02MC 02RD 02RO	1	0	4.21960997581	None	None	-332	161	0
2.7	2015_Jun_01_1601	s	s	20	1	SIC	223	ABS	1	1	02VD 02VO 02VC 02MD 10MO 02MC 02RD 02RO	1	0	3.68358397484	None	None	109	92	0
2.7	2015_Jun_01_1601	s	s	20	1	SIC	224	RC	0	2	02VD 02VO 02VC 02MD 02MO 02MC 09RD 02RO	1	0	1.0058119297	437.0	-132.0	433	-133	1
2.7	2015_Jun_01_1601	s	s	20	1	SIC	225	RC	0	1	02VD 02VO 02VC 02MD 02MO 02MC 02RD 09RO	1	0	2.17692995071	-164.0	-141.0	-162	-135	1
2.7	2015_Jun_01_1601	s	s	20	1	SIC	226	RC	1	0	02VD 02VO 02VC 02MD 02MO 09MC 02RD 02RO	1	0	1.78853106499	-166.0	-351.0	-175	-352	1
2.7	2015_Jun_01_1601	s	s	20	1	SIC	227	ABS	0	2	02VD 02VO 02VC 02MD 02MO 02MC 10RD 02RO	0	1	2.86658382416	None	None	None	None	1
2.7	2015_Jun_01_1601	s	s	20	1	SIC	228	ABS	1	0	02VD 02VO 02VC 02MD 02MO 10MC 02RD 02RO	0	1	2.99544215202	None	None	None	None	1
2.7	2015_Jun_01_1601	s	s	20	1	SIC	229	ABS	2	1	02VD 10VO 02VC 02MD 02MO 02MC 02RD 02RO	0	1	3.85525798798	None	None	None	None	1
2.7	2015_Jun_01_1601	s	s	20	1	SIC	230	RC	2	1	02VD 09VO 02VC 02MD 02MO 02MC 02RD 02RO	1	0	1.84737181664	-314.0	400.0	-319	397	1
2.7	2015_Jun_01_1601	s	s	20	1	SIC	231	RC	0	2	02VD 02VO 02VC 02MD 02MO 02MC 09RD 02RO	1	0	3.61294817924	440.0	399.0	446	397	1
2.7	2015_Jun_01_1601	s	s	20	1	SIC	232	RC	2	0	02VD 02VO 09VC 02MD 02MO 02MC 02RD 02RO	0	1	0.10064291954	-191.0	-307.0	None	None	0
2.7	2015_Jun_01_1601	s	s	20	1	SIC	233	RC	1	1	02VD 02VO 02VC 02MD 09MO 02MC 02RD 02RO	1	0	1.76018881798	-417.0	-251.0	-411	-254	1
2.7	2015_Jun_01_1601	s	s	20	1	SIC	234	RC	1	2	02VD 02VO 02VC 09MD 02MO 02MC 02RD 02RO	1	0	1.71786499023	-418.0	165.0	-425	161	1
2.7	2015_Jun_01_1601	s	s	20	1	SIC	235	ABS	2	0	02VD 02VO 10VC 02MD 02MO 02MC 02RD 02RO	0	1	2.68310809135	None	None	None	None	1
2.7	2015_Jun_01_1601	s	s	20	1	SIC	236	RC	2	2	09VD 02VO 02VC 02MD 02MO 02MC 02RD 02RO	1	0	1.60009407997	515.0	-124.0	525	-120	1
2.7	2015_Jun_01_1601	s	s	20	1	SIC	237	ABS	1	2	02VD 02VO 02VC 10MD 02MO 02MC 02RD 02RO	1	0	2.85455203056	None	None	-62	-202	0
2.7	2015_Jun_01_1601	s	s	20	1	SIC	238	ABS	2	2	10VD 02VO 02VC 02MD 02MO 02MC 02RD 02RO	0	1	1.64770913124	None	None	None	None	1
2.7	2015_Jun_01_1601	s	s	20	1	SIC	239	ABS	1	1	02VD 02VO 02VC 02MD 10MO 02MC 02RD 02RO	0	1	3.40877008438	None	None	None	None	1
2.7	2015_Jun_01_1601	s	s	20	1	SIC	240	ABS	0	1	02VD 02VO 02VC 02MD 02MO 02MC 02RD 10RO	0	1	5.19055891037	None	None	None	None	1
2.7	2015_Jun_01_1601	s	s	20	1	SIC	241	ABS	0	2	02VD 02VO 02VC 02MD 02MO 02MC 10RD 02RO	0	1	3.31602096558	None	None	None	None	1
2.7	2015_Jun_01_1601	s	s	20	1	SIC	242	RC	2	2	09VD 02VO 02VC 02MD 02MO 02MC 02RD 02RO	1	0	2.25933909416	194.0	-232.0	197	-230	1
2.7	2015_Jun_01_1601	s	s	20	1	SIC	243	RC	1	2	02VD 02VO 02VC 09MD 02MO 02MC 02RD 02RO	1	0	1.06453895569	360.0	257.0	356	258	1
2.7	2015_Jun_01_1601	s	s	20	1	SIC	244	RC	0	1	02VD 02VO 02VC 02MD 02MO 02MC 02RD 09RO	1	0	1.69428515434	-318.0	13.0	-316	13	1
2.7	2015_Jun_01_1601	s	s	20	1	SIC	245	RC	0	2	02VD 02VO 02VC 02MD 02MO 02MC 09RD 02RO	1	0	0.902943849564	473.0	40.0	480	33	1
2.7	2015_Jun_01_1601	s	s	20	1	SIC	246	ABS	0	1	02VD 02VO 02VC 02MD 02MO 02MC 02RD 10RO	0	1	3.24398684502	None	None	None	None	1
2.7	2015_Jun_01_1601	s	s	20	1	SIC	247	ABS	1	1	02VD 02VO 02VC 02MD 10MO 02MC 02RD 02RO	0	1	2.83606386185	None	None	None	None	1
2.7	2015_Jun_01_1601	s	s	20	1	SIC	248	RC	1	1	02VD 02VO 02VC 02MD 09MO 02MC 02RD 02RO	1	0	1.45644497871	-521.0	-113.0	-521	-114	1
2.7	2015_Jun_01_1601	s	s	20	1	SIC	249	RC	2	1	02VD 09VO 02VC 02MD 02MO 02MC 02RD 02RO	1	0	2.08889603615	-422.0	367.0	-430	365	1
2.7	2015_Jun_01_1601	s	s	20	1	SIC	250	ABS	1	2	02VD 02VO 02VC 10MD 02MO 02MC 02RD 02RO	0	1	2.08921909332	None	None	None	None	1
2.7	2015_Jun_01_1601	s	s	20	1	SIC	251	ABS	1	0	02VD 02VO 02VC 02MD 02MO 10MC 02RD 02RO	0	1	2.16515684128	None	None	None	None	1
2.7	2015_Jun_01_1601	s	s	20	1	SIC	252	RC	2	0	02VD 02VO 09VC 02MD 02MO 02MC 02RD 02RO	1	0	1.27651882172	247.0	-368.0	254	-373	1
2.7	2015_Jun_01_1601	s	s	20	1	SIC	253	ABS	2	2	10VD 02VO 02VC 02MD 02MO 02MC 02RD 02RO	0	1	2.13663911819	None	None	None	None	1
2.7	2015_Jun_01_1601	s	s	20	1	SIC	254	ABS	2	1	02VD 10VO 02VC 02MD 02MO 02MC 02RD 02RO	0	1	2.50653505325	None	None	None	None	1
2.7	2015_Jun_01_1601	s	s	20	1	SIC	255	ABS	2	0	02VD 02VO 10VC 02MD 02MO 02MC 02RD 02RO	0	1	2.97221803665	None	None	None	None	1
2.7	2015_Jun_01_1601	s	s	20	1	SIC	256	RC	1	0	02VD 02VO 02VC 02MD 02MO 09MC 02RD 02RO	1	0	2.96556210518	-221.0	-211.0	-220	-207	1
2.7	2015_Jun_01_1601	s	s	20	1	SIC	257	ABS	1	2	02VD 02VO 02VC 10MD 02MO 02MC 02RD 02RO	0	1	2.21887111664	None	None	None	None	1
2.7	2015_Jun_01_1601	s	s	20	1	SIC	258	ABS	1	0	02VD 02VO 02VC 02MD 02MO 10MC 02RD 02RO	0	1	4.22493886948	None	None	None	None	1
2.7	2015_Jun_01_1601	s	s	20	1	SIC	259	ABS	0	1	02VD 02VO 02VC 02MD 02MO 02MC 02RD 10RO	0	1	4.44863700867	None	None	None	None	1
2.7	2015_Jun_01_1601	s	s	20	1	SIC	260	ABS	2	1	02VD 10VO 02VC 02MD 02MO 02MC 02RD 02RO	0	1	2.75373578072	None	None	None	None	1
2.7	2015_Jun_01_1601	s	s	20	1	SIC	261	RC	2	0	02VD 02VO 09VC 02MD 02MO 02MC 02RD 02RO	1	0	0.803443908691	-37.0	-50.0	-31	-49	1
2.7	2015_Jun_01_1601	s	s	20	1	SIC	262	RC	0	1	02VD 02VO 02VC 02MD 02MO 02MC 02RD 09RO	1	0	1.96236801147	265.0	292.0	265	294	1
2.7	2015_Jun_01_1601	s	s	20	1	SIC	263	ABS	2	0	02VD 02VO 10VC 02MD 02MO 02MC 02RD 02RO	0	1	2.74828410149	None	None	None	None	1
2.7	2015_Jun_01_1601	s	s	20	1	SIC	264	RC	1	2	02VD 02VO 02VC 09MD 02MO 02MC 02RD 02RO	1	0	1.90618610382	58.0	239.0	64	231	1
2.7	2015_Jun_01_1601	s	s	20	1	SIC	265	RC	0	2	02VD 02VO 02VC 02MD 02MO 02MC 09RD 02RO	1	0	0.783210992813	-409.0	-69.0	-411	-64	1
2.7	2015_Jun_01_1601	s	s	20	1	SIC	266	RC	2	2	09VD 02VO 02VC 02MD 02MO 02MC 02RD 02RO	0	1	1.84737110138	-514.0	330.0	None	None	0
2.7	2015_Jun_01_1601	s	s	20	1	SIC	267	RC	1	0	02VD 02VO 02VC 02MD 02MO 09MC 02RD 02RO	1	0	0.900911092758	299.0	-21.0	290	-17	1
2.7	2015_Jun_01_1601	s	s	20	1	SIC	268	ABS	0	2	02VD 02VO 02VC 02MD 02MO 02MC 10RD 02RO	0	1	3.90201210976	None	None	None	None	1
2.7	2015_Jun_01_1601	s	s	20	1	SIC	269	ABS	1	1	02VD 02VO 02VC 02MD 10MO 02MC 02RD 02RO	0	1	2.48294496536	None	None	None	None	1
2.7	2015_Jun_01_1601	s	s	20	1	SIC	270	ABS	2	2	10VD 02VO 02VC 02MD 02MO 02MC 02RD 02RO	0	1	1.57647299767	None	None	None	None	1
2.7	2015_Jun_01_1601	s	s	20	1	SIC	271	RC	1	1	02VD 02VO 02VC 02MD 09MO 02MC 02RD 02RO	1	0	2.3770160675	-150.0	-387.0	-150	-405	1
2.7	2015_Jun_01_1601	s	s	20	1	SIC	272	RC	2	1	02VD 09VO 02VC 02MD 02MO 02MC 02RD 02RO	1	0	1.24698090553	330.0	241.0	341	249	1
2.7	2015_Jun_01_1601	s	s	20	1	SIC	273	RC	2	2	09VD 02VO 02VC 02MD 02MO 02MC 02RD 02RO	1	0	0.846773862839	-15.0	-37.0	-14	-34	1
2.7	2015_Jun_01_1601	s	s	20	1	SIC	274	RC	1	2	02VD 02VO 02VC 09MD 02MO 02MC 02RD 02RO	1	0	0.74095582962	142.0	-190.0	147	-191	1
2.7	2015_Jun_01_1601	s	s	20	1	SIC	275	RC	2	1	02VD 09VO 02VC 02MD 02MO 02MC 02RD 02RO	1	0	1.16475200653	-67.0	-127.0	-68	-121	1
2.7	2015_Jun_01_1601	s	s	20	1	SIC	276	ABS	2	1	02VD 10VO 02VC 02MD 02MO 02MC 02RD 02RO	0	1	1.7365500927	None	None	None	None	1
2.7	2015_Jun_01_1601	s	s	20	1	SIC	277	RC	1	0	02VD 02VO 02VC 02MD 02MO 09MC 02RD 02RO	1	0	3.84826111794	-529.0	375.0	-527	371	1
2.7	2015_Jun_01_1601	s	s	20	1	SIC	278	ABS	1	1	02VD 02VO 02VC 02MD 10MO 02MC 02RD 02RO	0	1	1.85905885696	None	None	None	None	1
2.7	2015_Jun_01_1601	s	s	20	1	SIC	279	ABS	0	1	02VD 02VO 02VC 02MD 02MO 02MC 02RD 10RO	0	1	5.04892396927	None	None	None	None	1
2.7	2015_Jun_01_1601	s	s	20	1	SIC	280	ABS	2	0	02VD 02VO 10VC 02MD 02MO 02MC 02RD 02RO	0	1	2.15377497673	None	None	None	None	1
2.7	2015_Jun_01_1601	s	s	20	1	SIC	281	RC	2	0	02VD 02VO 09VC 02MD 02MO 02MC 02RD 02RO	1	0	0.847277164459	277.0	-252.0	272	-249	1
2.7	2015_Jun_01_1601	s	s	20	1	SIC	282	RC	1	1	02VD 02VO 02VC 02MD 09MO 02MC 02RD 02RO	1	0	1.71269106865	-409.0	-9.0	-415	-6	1
2.7	2015_Jun_01_1601	s	s	20	1	SIC	283	ABS	1	0	02VD 02VO 02VC 02MD 02MO 10MC 02RD 02RO	1	0	1.95034599304	None	None	357	90	0
2.7	2015_Jun_01_1601	s	s	20	1	SIC	284	ABS	2	2	10VD 02VO 02VC 02MD 02MO 02MC 02RD 02RO	1	0	2.07795810699	None	None	-85	62	0
2.7	2015_Jun_01_1601	s	s	20	1	SIC	285	RC	0	2	02VD 02VO 02VC 02MD 02MO 02MC 09RD 02RO	0	1	1.35985898972	188.0	3.0	None	None	0
2.7	2015_Jun_01_1601	s	s	20	1	SIC	286	ABS	1	2	02VD 02VO 02VC 10MD 02MO 02MC 02RD 02RO	0	1	1.68996405602	None	None	None	None	1
2.7	2015_Jun_01_1601	s	s	20	1	SIC	287	RC	0	1	02VD 02VO 02VC 02MD 02MO 02MC 02RD 09RO	1	0	2.14834213257	-538.0	64.0	-539	50	1
2.7	2015_Jun_01_1601	s	s	20	1	SIC	288	ABS	0	2	02VD 02VO 02VC 02MD 02MO 02MC 10RD 02RO	0	1	2.60659599304	None	None	None	None	1
2.7	2015_Jun_01_1601	s	s	20	1	SIC	289	ABS	2	2	10VD 02VO 02VC 02MD 02MO 02MC 02RD 02RO	0	1	1.80859899521	None	None	None	None	1
2.7	2015_Jun_01_1601	s	s	20	1	SIC	290	RC	1	0	02VD 02VO 02VC 02MD 02MO 09MC 02RD 02RO	1	0	1.53630900383	-150.0	-29.0	-139	-26	1
2.7	2015_Jun_01_1601	s	s	20	1	SIC	291	ABS	1	2	02VD 02VO 02VC 10MD 02MO 02MC 02RD 02RO	0	1	2.43582081795	None	None	None	None	1
2.7	2015_Jun_01_1601	s	s	20	1	SIC	292	ABS	1	0	02VD 02VO 02VC 02MD 02MO 10MC 02RD 02RO	0	1	3.29069900513	None	None	None	None	1
2.7	2015_Jun_01_1601	s	s	20	1	SIC	293	RC	2	0	02VD 02VO 09VC 02MD 02MO 02MC 02RD 02RO	1	0	0.705595016479	-99.0	34.0	-98	23	1
2.7	2015_Jun_01_1601	s	s	20	1	SIC	294	ABS	0	1	02VD 02VO 02VC 02MD 02MO 02MC 02RD 10RO	0	1	2.7654440403	None	None	None	None	1
2.7	2015_Jun_01_1601	s	s	20	1	SIC	295	RC	0	1	02VD 02VO 02VC 02MD 02MO 02MC 02RD 09RO	1	0	2.0121319294	529.0	184.0	525	182	1
2.7	2015_Jun_01_1601	s	s	20	1	SIC	296	RC	2	2	09VD 02VO 02VC 02MD 02MO 02MC 02RD 02RO	1	0	1.87835502625	-519.0	-220.0	-512	-218	1
2.7	2015_Jun_01_1601	s	s	20	1	SIC	297	ABS	2	0	02VD 02VO 10VC 02MD 02MO 02MC 02RD 02RO	0	1	1.8826649189	None	None	None	None	1
2.7	2015_Jun_01_1601	s	s	20	1	SIC	298	RC	0	2	02VD 02VO 02VC 02MD 02MO 02MC 09RD 02RO	1	0	0.811949968338	-306.0	98.0	-305	100	1
2.7	2015_Jun_01_1601	s	s	20	1	SIC	299	ABS	0	2	02VD 02VO 02VC 02MD 02MO 02MC 10RD 02RO	0	1	2.23578715324	None	None	None	None	1
2.7	2015_Jun_01_1601	s	s	20	1	SIC	300	RC	2	1	02VD 09VO 02VC 02MD 02MO 02MC 02RD 02RO	1	0	2.36528706551	497.0	-163.0	491	-166	1
2.7	2015_Jun_01_1601	s	s	20	1	SIC	301	ABS	2	1	02VD 10VO 02VC 02MD 02MO 02MC 02RD 02RO	0	1	2.87813711166	None	None	None	None	1
2.7	2015_Jun_01_1601	s	s	20	1	SIC	302	RC	1	1	02VD 02VO 02VC 02MD 09MO 02MC 02RD 02RO	1	0	0.782593011856	-73.0	-165.0	-76	-163	1
2.7	2015_Jun_01_1601	s	s	20	1	SIC	303	ABS	1	1	02VD 02VO 02VC 02MD 10MO 02MC 02RD 02RO	0	1	3.30145907402	None	None	None	None	1
2.7	2015_Jun_01_1601	s	s	20	1	SIC	304	RC	1	2	02VD 02VO 02VC 09MD 02MO 02MC 02RD 02RO	1	0	0.858641862869	-112.0	-217.0	-106	-213	1
2.7	2015_Jun_01_1601	s	s	20	1	SIC	305	RC	2	2	09VD 02VO 02VC 02MD 02MO 02MC 02RD 02RO	1	0	2.03069496155	-240.0	-157.0	-244	-159	1
2.7	2015_Jun_01_1601	s	s	20	1	SIC	306	ABS	2	2	10VD 02VO 02VC 02MD 02MO 02MC 02RD 02RO	0	1	2.16275620461	None	None	None	None	1
2.7	2015_Jun_01_1601	s	s	20	1	SIC	307	RC	2	1	02VD 09VO 02VC 02MD 02MO 02MC 02RD 02RO	1	0	2.34866690636	131.0	-138.0	141	-137	1
2.7	2015_Jun_01_1601	s	s	20	1	SIC	308	RC	1	2	02VD 02VO 02VC 09MD 02MO 02MC 02RD 02RO	1	0	1.81768202782	486.0	187.0	489	196	1
2.7	2015_Jun_01_1601	s	s	20	1	SIC	309	ABS	1	2	02VD 02VO 02VC 10MD 02MO 02MC 02RD 02RO	0	1	1.82379794121	None	None	None	None	1
2.7	2015_Jun_01_1601	s	s	20	1	SIC	310	ABS	1	0	02VD 02VO 02VC 02MD 02MO 10MC 02RD 02RO	0	1	2.41236305237	None	None	None	None	1
2.7	2015_Jun_01_1601	s	s	20	1	SIC	311	RC	0	1	02VD 02VO 02VC 02MD 02MO 02MC 02RD 09RO	1	0	2.73040294647	140.0	231.0	135	228	1
2.7	2015_Jun_01_1601	s	s	20	1	SIC	312	ABS	2	1	02VD 10VO 02VC 02MD 02MO 02MC 02RD 02RO	0	1	2.36016488075	None	None	None	None	1
2.7	2015_Jun_01_1601	s	s	20	1	SIC	313	RC	1	1	02VD 02VO 02VC 02MD 09MO 02MC 02RD 02RO	1	0	1.43582010269	-459.0	356.0	-458	348	1
2.7	2015_Jun_01_1601	s	s	20	1	SIC	314	ABS	2	0	02VD 02VO 10VC 02MD 02MO 02MC 02RD 02RO	0	1	1.72689509392	None	None	None	None	1
2.7	2015_Jun_01_1601	s	s	20	1	SIC	315	ABS	1	1	02VD 02VO 02VC 02MD 10MO 02MC 02RD 02RO	0	1	2.53747296333	None	None	None	None	1
2.7	2015_Jun_01_1601	s	s	20	1	SIC	316	RC	0	2	02VD 02VO 02VC 02MD 02MO 02MC 09RD 02RO	1	0	1.95332884789	144.0	305.0	143	296	1
2.7	2015_Jun_01_1601	s	s	20	1	SIC	317	ABS	0	2	02VD 02VO 02VC 02MD 02MO 02MC 10RD 02RO	0	1	2.17194890976	None	None	None	None	1
2.7	2015_Jun_01_1601	s	s	20	1	SIC	318	ABS	0	1	02VD 02VO 02VC 02MD 02MO 02MC 02RD 10RO	0	1	4.95491480827	None	None	None	None	1
2.7	2015_Jun_01_1601	s	s	20	1	SIC	319	RC	2	0	02VD 02VO 09VC 02MD 02MO 02MC 02RD 02RO	1	0	1.18813705444	-220.0	-110.0	-214	-117	1
2.7	2015_Jun_01_1601	s	s	20	1	SIC	320	RC	1	0	02VD 02VO 02VC 02MD 02MO 09MC 02RD 02RO	1	0	0.999895095825	-33.0	-294.0	-24	-292	1
2.7	2015_Jun_01_1601	s	s	20	1	SIC	321	RC	2	2	09VD 02VO 02VC 02MD 02MO 02MC 02RD 02RO	1	0	1.16461515427	-106.0	74.0	-98	72	1
2.7	2015_Jun_01_1601	s	s	20	1	SIC	322	RC	2	1	02VD 09VO 02VC 02MD 02MO 02MC 02RD 02RO	1	0	0.906047105789	-515.0	-132.0	-517	-134	1
2.7	2015_Jun_01_1601	s	s	20	1	SIC	323	RC	0	2	02VD 02VO 02VC 02MD 02MO 02MC 09RD 02RO	1	0	3.17169594765	-540.0	389.0	-547	382	1
2.7	2015_Jun_01_1601	s	s	20	1	SIC	324	RC	1	1	02VD 02VO 02VC 02MD 09MO 02MC 02RD 02RO	1	0	0.941076040268	-337.0	189.0	-339	181	1
2.7	2015_Jun_01_1601	s	s	20	1	SIC	325	ABS	2	1	02VD 10VO 02VC 02MD 02MO 02MC 02RD 02RO	0	1	1.831813097	None	None	None	None	1
2.7	2015_Jun_01_1601	s	s	20	1	SIC	326	RC	1	0	02VD 02VO 02VC 02MD 02MO 09MC 02RD 02RO	1	0	0.917687892914	-98.0	37.0	-89	34	1
2.7	2015_Jun_01_1601	s	s	20	1	SIC	327	ABS	2	0	02VD 02VO 10VC 02MD 02MO 02MC 02RD 02RO	0	1	2.22401118279	None	None	None	None	1
2.7	2015_Jun_01_1601	s	s	20	1	SIC	328	ABS	0	1	02VD 02VO 02VC 02MD 02MO 02MC 02RD 10RO	0	1	3.84033703804	None	None	None	None	1
2.7	2015_Jun_01_1601	s	s	20	1	SIC	329	ABS	1	0	02VD 02VO 02VC 02MD 02MO 10MC 02RD 02RO	0	1	3.91635894775	None	None	None	None	1
2.7	2015_Jun_01_1601	s	s	20	1	SIC	330	ABS	0	2	02VD 02VO 02VC 02MD 02MO 02MC 10RD 02RO	0	1	2.74873876572	None	None	None	None	1
2.7	2015_Jun_01_1601	s	s	20	1	SIC	331	RC	2	0	02VD 02VO 09VC 02MD 02MO 02MC 02RD 02RO	1	0	0.811490058899	312.0	-103.0	316	-101	1
2.7	2015_Jun_01_1601	s	s	20	1	SIC	332	RC	0	1	02VD 02VO 02VC 02MD 02MO 02MC 02RD 09RO	0	1	4.43688392639	-494.0	249.0	None	None	0
2.7	2015_Jun_01_1601	s	s	20	1	SIC	333	ABS	1	1	02VD 02VO 02VC 02MD 10MO 02MC 02RD 02RO	0	1	3.65488290787	None	None	None	None	1
2.7	2015_Jun_01_1601	s	s	20	1	SIC	334	ABS	1	2	02VD 02VO 02VC 10MD 02MO 02MC 02RD 02RO	0	1	2.51364707947	None	None	None	None	1
2.7	2015_Jun_01_1601	s	s	20	1	SIC	335	RC	1	2	02VD 02VO 02VC 09MD 02MO 02MC 02RD 02RO	1	0	1.72962617874	111.0	324.0	112	319	1
2.7	2015_Jun_01_1601	s	s	20	1	SIC	336	ABS	2	2	10VD 02VO 02VC 02MD 02MO 02MC 02RD 02RO	0	1	2.20730805397	None	None	None	None	1
2.7	2015_Jun_01_1601	s	s	20	1	SIC	337	ABS	1	0	02VD 02VO 02VC 02MD 02MO 10MC 02RD 02RO	0	1	2.65950989723	None	None	None	None	1
2.7	2015_Jun_01_1601	s	s	20	1	SIC	338	RC	2	0	02VD 02VO 09VC 02MD 02MO 02MC 02RD 02RO	1	0	0.947724819183	52.0	86.0	49	83	1
2.7	2015_Jun_01_1601	s	s	20	1	SIC	339	ABS	2	1	02VD 10VO 02VC 02MD 02MO 02MC 02RD 02RO	0	1	2.37324714661	None	None	None	None	1
2.7	2015_Jun_01_1601	s	s	20	1	SIC	340	RC	2	1	02VD 09VO 02VC 02MD 02MO 02MC 02RD 02RO	1	0	1.01986408234	-216.0	-128.0	-209	-128	1
2.7	2015_Jun_01_1601	s	s	20	1	SIC	341	ABS	0	2	02VD 02VO 02VC 02MD 02MO 02MC 10RD 02RO	0	1	2.27160215378	None	None	None	None	1
2.7	2015_Jun_01_1601	s	s	20	1	SIC	342	RC	1	0	02VD 02VO 02VC 02MD 02MO 09MC 02RD 02RO	0	1	2.8124768734	62.0	367.0	None	None	0
2.7	2015_Jun_01_1601	s	s	20	1	SIC	343	ABS	2	0	02VD 02VO 10VC 02MD 02MO 02MC 02RD 02RO	0	1	1.72459793091	None	None	None	None	1
2.7	2015_Jun_01_1601	s	s	20	1	SIC	344	RC	0	1	02VD 02VO 02VC 02MD 02MO 02MC 02RD 09RO	1	0	1.77669382095	369.0	-145.0	360	-148	1
2.7	2015_Jun_01_1601	s	s	20	1	SIC	345	RC	2	2	09VD 02VO 02VC 02MD 02MO 02MC 02RD 02RO	1	0	0.878627061844	364.0	-156.0	372	-152	1
2.7	2015_Jun_01_1601	s	s	20	1	SIC	346	ABS	2	2	10VD 02VO 02VC 02MD 02MO 02MC 02RD 02RO	1	0	1.86607098579	None	None	-299	344	0
2.7	2015_Jun_01_1601	s	s	20	1	SIC	347	RC	1	2	02VD 02VO 02VC 09MD 02MO 02MC 02RD 02RO	1	0	0.752759933472	-50.0	157.0	-52	149	1
2.7	2015_Jun_01_1601	s	s	20	1	SIC	348	RC	1	1	02VD 02VO 02VC 02MD 09MO 02MC 02RD 02RO	1	0	1.69806814194	-259.0	-115.0	-257	-115	1
2.7	2015_Jun_01_1601	s	s	20	1	SIC	349	ABS	1	2	02VD 02VO 02VC 10MD 02MO 02MC 02RD 02RO	0	1	2.70701503754	None	None	None	None	1
2.7	2015_Jun_01_1601	s	s	20	1	SIC	350	ABS	1	1	02VD 02VO 02VC 02MD 10MO 02MC 02RD 02RO	0	1	3.85656499863	None	None	None	None	1
2.7	2015_Jun_01_1601	s	s	20	1	SIC	351	ABS	0	1	02VD 02VO 02VC 02MD 02MO 02MC 02RD 10RO	0	1	4.79626297951	None	None	None	None	1
2.7	2015_Jun_01_1601	s	s	20	1	SIC	352	RC	0	2	02VD 02VO 02VC 02MD 02MO 02MC 09RD 02RO	1	0	2.5182261467	-338.0	334.0	-342	332	1
2.7	2015_Jun_01_1601	s	s	20	1	SIC	353	ABS	1	1	02VD 02VO 02VC 02MD 10MO 02MC 02RD 02RO	0	1	2.96557307243	None	None	None	None	1
2.7	2015_Jun_01_1601	s	s	20	1	SIC	354	RC	2	1	02VD 09VO 02VC 02MD 02MO 02MC 02RD 02RO	1	0	3.48346996307	199.0	-13.0	193	-21	1
2.7	2015_Jun_01_1601	s	s	20	1	SIC	355	RC	0	1	02VD 02VO 02VC 02MD 02MO 02MC 02RD 09RO	1	0	2.16040015221	-245.0	258.0	-252	257	1
2.7	2015_Jun_01_1601	s	s	20	1	SIC	356	ABS	2	2	10VD 02VO 02VC 02MD 02MO 02MC 02RD 02RO	0	1	1.74139595032	None	None	None	None	1
2.7	2015_Jun_01_1601	s	s	20	1	SIC	357	ABS	1	2	02VD 02VO 02VC 10MD 02MO 02MC 02RD 02RO	0	1	2.20058703423	None	None	None	None	1
2.7	2015_Jun_01_1601	s	s	20	1	SIC	358	RC	2	0	02VD 02VO 09VC 02MD 02MO 02MC 02RD 02RO	1	0	1.39571905136	-42.0	246.0	-42	244	1
2.7	2015_Jun_01_1601	s	s	20	1	SIC	359	ABS	0	2	02VD 02VO 02VC 02MD 02MO 02MC 10RD 02RO	0	1	1.65523195267	None	None	None	None	1
2.7	2015_Jun_01_1601	s	s	20	1	SIC	360	RC	1	2	02VD 02VO 02VC 09MD 02MO 02MC 02RD 02RO	1	0	1.62016820908	-408.0	-23.0	-417	-21	1
2.7	2015_Jun_01_1601	s	s	20	1	SIC	361	ABS	2	1	02VD 10VO 02VC 02MD 02MO 02MC 02RD 02RO	0	1	1.98402810097	None	None	None	None	1
2.7	2015_Jun_01_1601	s	s	20	1	SIC	362	RC	2	2	09VD 02VO 02VC 02MD 02MO 02MC 02RD 02RO	1	0	0.959602117538	-337.0	234.0	-333	225	1
2.7	2015_Jun_01_1601	s	s	20	1	SIC	363	RC	0	2	02VD 02VO 02VC 02MD 02MO 02MC 09RD 02RO	1	0	0.917420148849	-420.0	76.0	-420	74	1
2.7	2015_Jun_01_1601	s	s	20	1	SIC	364	RC	1	0	02VD 02VO 02VC 02MD 02MO 09MC 02RD 02RO	1	0	1.3294968605	-512.0	-192.0	-503	-193	1
2.7	2015_Jun_01_1601	s	s	20	1	SIC	365	RC	1	1	02VD 02VO 02VC 02MD 09MO 02MC 02RD 02RO	1	0	0.705594062805	12.0	-177.0	12	-175	1
2.7	2015_Jun_01_1601	s	s	20	1	SIC	366	ABS	2	0	02VD 02VO 10VC 02MD 02MO 02MC 02RD 02RO	0	1	2.37702202797	None	None	None	None	1
2.7	2015_Jun_01_1601	s	s	20	1	SIC	367	ABS	1	0	02VD 02VO 02VC 02MD 02MO 10MC 02RD 02RO	1	0	6.70362901688	None	None	264	-390	0
2.7	2015_Jun_01_1601	s	s	20	1	SIC	368	ABS	0	1	02VD 02VO 02VC 02MD 02MO 02MC 02RD 10RO	0	1	4.52590203285	None	None	None	None	1
2.7	2015_Jun_01_1601	s	s	20	1	SIC	369	ABS	2	2	10VD 02VO 02VC 02MD 02MO 02MC 02RD 02RO	0	1	1.85411787033	None	None	None	None	1
2.7	2015_Jun_01_1601	s	s	20	1	SIC	370	RC	2	2	09VD 02VO 02VC 02MD 02MO 02MC 02RD 02RO	1	0	0.676841020584	-164.0	-60.0	-169	-66	1
2.7	2015_Jun_01_1601	s	s	20	1	SIC	371	RC	2	0	02VD 02VO 09VC 02MD 02MO 02MC 02RD 02RO	1	0	2.12429094315	-414.0	-278.0	-420	-275	1
2.7	2015_Jun_01_1601	s	s	20	1	SIC	372	ABS	1	2	02VD 02VO 02VC 10MD 02MO 02MC 02RD 02RO	0	1	2.2189719677	None	None	None	None	1
2.7	2015_Jun_01_1601	s	s	20	1	SIC	373	ABS	1	0	02VD 02VO 02VC 02MD 02MO 10MC 02RD 02RO	0	1	3.37240386009	None	None	None	None	1
2.7	2015_Jun_01_1601	s	s	20	1	SIC	374	RC	0	1	02VD 02VO 02VC 02MD 02MO 02MC 02RD 09RO	1	0	1.8068189621	450.0	-223.0	449	-222	1
2.7	2015_Jun_01_1601	s	s	20	1	SIC	375	ABS	1	1	02VD 02VO 02VC 02MD 10MO 02MC 02RD 02RO	0	1	3.2918407917	None	None	None	None	1
2.7	2015_Jun_01_1601	s	s	20	1	SIC	376	RC	0	2	02VD 02VO 02VC 02MD 02MO 02MC 09RD 02RO	1	0	1.3765039444	-284.0	-298.0	-284	-293	1
2.7	2015_Jun_01_1601	s	s	20	1	SIC	377	ABS	2	1	02VD 10VO 02VC 02MD 02MO 02MC 02RD 02RO	0	1	2.13520979881	None	None	None	None	1
2.7	2015_Jun_01_1601	s	s	20	1	SIC	378	RC	2	1	02VD 09VO 02VC 02MD 02MO 02MC 02RD 02RO	1	0	1.3881509304	-517.0	-393.0	-518	-394	1
2.7	2015_Jun_01_1601	s	s	20	1	SIC	379	RC	1	2	02VD 02VO 02VC 09MD 02MO 02MC 02RD 02RO	1	0	1.69431900978	-169.0	152.0	-166	152	1
2.7	2015_Jun_01_1601	s	s	20	1	SIC	380	ABS	0	2	02VD 02VO 02VC 02MD 02MO 02MC 10RD 02RO	0	1	1.99516606331	None	None	None	None	1
2.7	2015_Jun_01_1601	s	s	20	1	SIC	381	ABS	0	1	02VD 02VO 02VC 02MD 02MO 02MC 02RD 10RO	0	1	4.60152316093	None	None	None	None	1
2.7	2015_Jun_01_1601	s	s	20	1	SIC	382	RC	1	1	02VD 02VO 02VC 02MD 09MO 02MC 02RD 02RO	1	0	1.5482108593	-217.0	-322.0	-220	-330	1
2.7	2015_Jun_01_1601	s	s	20	1	SIC	383	RC	1	0	02VD 02VO 02VC 02MD 02MO 09MC 02RD 02RO	1	0	1.31298303604	25.0	152.0	27	158	1
2.7	2015_Jun_01_1601	s	s	20	1	SIC	384	ABS	2	0	02VD 02VO 10VC 02MD 02MO 02MC 02RD 02RO	0	1	2.61245894432	None	None	None	None	1
2.7	2015_Jun_01_1601	s	s	20	1	SIC	385	ABS	0	1	02VD 02VO 02VC 02MD 02MO 02MC 02RD 10RO	0	1	4.11415910721	None	None	None	None	1
2.7	2015_Jun_01_1601	s	s	20	1	SIC	386	RC	2	2	09VD 02VO 02VC 02MD 02MO 02MC 02RD 02RO	1	0	0.752545118332	-198.0	-245.0	-188	-241	1
2.7	2015_Jun_01_1601	s	s	20	1	SIC	387	RC	0	1	02VD 02VO 02VC 02MD 02MO 02MC 02RD 09RO	1	0	1.33618593216	-355.0	-84.0	-369	-76	1
2.7	2015_Jun_01_1601	s	s	20	1	SIC	388	ABS	2	1	02VD 10VO 02VC 02MD 02MO 02MC 02RD 02RO	0	1	2.65448713303	None	None	None	None	1
2.7	2015_Jun_01_1601	s	s	20	1	SIC	389	ABS	2	0	02VD 02VO 10VC 02MD 02MO 02MC 02RD 02RO	0	1	2.14835786819	None	None	None	None	1
2.7	2015_Jun_01_1601	s	s	20	1	SIC	390	ABS	2	2	10VD 02VO 02VC 02MD 02MO 02MC 02RD 02RO	0	1	2.64258885384	None	None	None	None	1
2.7	2015_Jun_01_1601	s	s	20	1	SIC	391	RC	2	0	02VD 02VO 09VC 02MD 02MO 02MC 02RD 02RO	1	0	1.21161985397	263.0	-49.0	269	-49	1
2.7	2015_Jun_01_1601	s	s	20	1	SIC	392	ABS	1	0	02VD 02VO 02VC 02MD 02MO 10MC 02RD 02RO	0	1	2.64776992798	None	None	None	None	1
2.7	2015_Jun_01_1601	s	s	20	1	SIC	393	RC	2	1	02VD 09VO 02VC 02MD 02MO 02MC 02RD 02RO	1	0	0.844219923019	432.0	-25.0	438	-30	1
2.7	2015_Jun_01_1601	s	s	20	1	SIC	394	RC	1	1	02VD 02VO 02VC 02MD 09MO 02MC 02RD 02RO	1	0	0.699784994125	113.0	-171.0	110	-179	1
2.7	2015_Jun_01_1601	s	s	20	1	SIC	395	ABS	0	2	02VD 02VO 02VC 02MD 02MO 02MC 10RD 02RO	0	1	2.60068106651	None	None	None	None	1
2.7	2015_Jun_01_1601	s	s	20	1	SIC	396	RC	1	0	02VD 02VO 02VC 02MD 02MO 09MC 02RD 02RO	1	0	1.3833360672	431.0	-83.0	429	-81	1
2.7	2015_Jun_01_1601	s	s	20	1	SIC	397	ABS	1	1	02VD 02VO 02VC 02MD 10MO 02MC 02RD 02RO	0	1	2.23089408875	None	None	None	None	1
2.7	2015_Jun_01_1601	s	s	20	1	SIC	398	RC	0	2	02VD 02VO 02VC 02MD 02MO 02MC 09RD 02RO	1	0	0.794960975647	274.0	-176.0	280	-178	1
2.7	2015_Jun_01_1601	s	s	20	1	SIC	399	RC	1	2	02VD 02VO 02VC 09MD 02MO 02MC 02RD 02RO	1	0	1.18301916122	-393.0	-363.0	-395	-366	1
2.7	2015_Jun_01_1601	s	s	20	1	SIC	400	ABS	1	2	02VD 02VO 02VC 10MD 02MO 02MC 02RD 02RO	0	1	2.72374010086	None	None	None	None	1
2.7	2015_Jun_01_1601	s	s	20	1	SIC	401	ABS	0	2	02VD 02VO 02VC 02MD 02MO 02MC 10RD 02RO	0	1	2.51825499535	None	None	None	None	1
2.7	2015_Jun_01_1601	s	s	20	1	SIC	402	ABS	1	1	02VD 02VO 02VC 02MD 10MO 02MC 02RD 02RO	0	1	3.76131796837	None	None	None	None	1
2.7	2015_Jun_01_1601	s	s	20	1	SIC	403	ABS	1	0	02VD 02VO 02VC 02MD 02MO 10MC 02RD 02RO	0	1	4.39668798447	None	None	None	None	1
2.7	2015_Jun_01_1601	s	s	20	1	SIC	404	ABS	2	1	02VD 10VO 02VC 02MD 02MO 02MC 02RD 02RO	0	1	1.83003211021	None	None	None	None	1
2.7	2015_Jun_01_1601	s	s	20	1	SIC	405	RC	2	2	09VD 02VO 02VC 02MD 02MO 02MC 02RD 02RO	1	0	1.31270909309	-40.0	-71.0	-37	-61	1
2.7	2015_Jun_01_1601	s	s	20	1	SIC	406	ABS	2	2	10VD 02VO 02VC 02MD 02MO 02MC 02RD 02RO	0	1	2.36531090736	None	None	None	None	1
2.7	2015_Jun_01_1601	s	s	20	1	SIC	407	RC	0	2	02VD 02VO 02VC 02MD 02MO 02MC 09RD 02RO	1	0	1.3246319294	72.0	330.0	81	327	1
2.7	2015_Jun_01_1601	s	s	20	1	SIC	408	RC	1	2	02VD 02VO 02VC 09MD 02MO 02MC 02RD 02RO	1	0	1.91799998283	355.0	-173.0	355	-172	1
2.7	2015_Jun_01_1601	s	s	20	1	SIC	409	ABS	1	2	02VD 02VO 02VC 10MD 02MO 02MC 02RD 02RO	0	1	2.1828110218	None	None	None	None	1
2.7	2015_Jun_01_1601	s	s	20	1	SIC	410	ABS	0	1	02VD 02VO 02VC 02MD 02MO 02MC 02RD 10RO	0	1	4.77320408821	None	None	None	None	1
2.7	2015_Jun_01_1601	s	s	20	1	SIC	411	RC	1	1	02VD 02VO 02VC 02MD 09MO 02MC 02RD 02RO	1	0	1.61182808876	394.0	-109.0	386	-110	1
2.7	2015_Jun_01_1601	s	s	20	1	SIC	412	ABS	2	0	02VD 02VO 10VC 02MD 02MO 02MC 02RD 02RO	0	1	2.15342307091	None	None	None	None	1
2.7	2015_Jun_01_1601	s	s	20	1	SIC	413	RC	1	0	02VD 02VO 02VC 02MD 02MO 09MC 02RD 02RO	1	0	2.87990808487	-10.0	208.0	-8	212	1
2.7	2015_Jun_01_1601	s	s	20	1	SIC	414	RC	0	1	02VD 02VO 02VC 02MD 02MO 02MC 02RD 09RO	1	0	0.688621997833	173.0	-139.0	178	-146	1
2.7	2015_Jun_01_1601	s	s	20	1	SIC	415	RC	2	1	02VD 09VO 02VC 02MD 02MO 02MC 02RD 02RO	1	0	1.20693492889	-326.0	-299.0	-328	-312	1
2.7	2015_Jun_01_1601	s	s	20	1	SIC	416	RC	2	0	02VD 02VO 09VC 02MD 02MO 02MC 02RD 02RO	1	0	1.98269200325	382.0	130.0	384	129	1
2.7	2015_Jun_01_1601	s	s	20	1	SIC	417	ABS	1	2	02VD 02VO 02VC 10MD 02MO 02MC 02RD 02RO	0	1	3.07146501541	None	None	None	None	1
2.7	2015_Jun_01_1601	s	s	20	1	SIC	418	ABS	0	1	02VD 02VO 02VC 02MD 02MO 02MC 02RD 10RO	0	1	3.41998100281	None	None	None	None	1
2.7	2015_Jun_01_1601	s	s	20	1	SIC	419	ABS	1	0	02VD 02VO 02VC 02MD 02MO 10MC 02RD 02RO	0	1	3.36577391624	None	None	None	None	1
2.7	2015_Jun_01_1601	s	s	20	1	SIC	420	RC	1	0	02VD 02VO 02VC 02MD 02MO 09MC 02RD 02RO	1	0	2.6302421093	313.0	242.0	314	242	1
2.7	2015_Jun_01_1601	s	s	20	1	SIC	421	RC	0	2	02VD 02VO 02VC 02MD 02MO 02MC 09RD 02RO	1	0	1.44711089134	405.0	60.0	408	55	1
2.7	2015_Jun_01_1601	s	s	20	1	SIC	422	RC	0	1	02VD 02VO 02VC 02MD 02MO 02MC 02RD 09RO	1	0	1.35300183296	65.0	212.0	69	200	1
2.7	2015_Jun_01_1601	s	s	20	1	SIC	423	ABS	0	2	02VD 02VO 02VC 02MD 02MO 02MC 10RD 02RO	0	1	3.40791392326	None	None	None	None	1
2.7	2015_Jun_01_1601	s	s	20	1	SIC	424	RC	1	1	02VD 02VO 02VC 02MD 09MO 02MC 02RD 02RO	1	0	3.19690012932	242.0	377.0	250	384	1
2.7	2015_Jun_01_1601	s	s	20	1	SIC	425	ABS	2	0	02VD 02VO 10VC 02MD 02MO 02MC 02RD 02RO	0	1	2.10131192207	None	None	None	None	1
2.7	2015_Jun_01_1601	s	s	20	1	SIC	426	ABS	2	2	10VD 02VO 02VC 02MD 02MO 02MC 02RD 02RO	0	1	1.46568202972	None	None	None	None	1
2.7	2015_Jun_01_1601	s	s	20	1	SIC	427	ABS	1	1	02VD 02VO 02VC 02MD 10MO 02MC 02RD 02RO	0	1	3.19599509239	None	None	None	None	1
2.7	2015_Jun_01_1601	s	s	20	1	SIC	428	RC	1	2	02VD 02VO 02VC 09MD 02MO 02MC 02RD 02RO	1	0	1.49419903755	-230.0	326.0	-224	321	1
2.7	2015_Jun_01_1601	s	s	20	1	SIC	429	RC	2	2	09VD 02VO 02VC 02MD 02MO 02MC 02RD 02RO	1	0	2.18355917931	-3.0	349.0	-11	350	1
2.7	2015_Jun_01_1601	s	s	20	1	SIC	430	RC	2	0	02VD 02VO 09VC 02MD 02MO 02MC 02RD 02RO	1	0	0.799759864807	212.0	29.0	204	31	1
2.7	2015_Jun_01_1601	s	s	20	1	SIC	431	RC	2	1	02VD 09VO 02VC 02MD 02MO 02MC 02RD 02RO	1	0	1.65904092789	-495.0	166.0	-502	172	1
2.7	2015_Jun_01_1601	s	s	20	1	SIC	432	ABS	2	1	02VD 10VO 02VC 02MD 02MO 02MC 02RD 02RO	0	1	2.50140285492	None	None	None	None	1
2.7	2015_Jun_01_1601	s	s	20	1	SIC	433	RC	1	0	02VD 02VO 02VC 02MD 02MO 09MC 02RD 02RO	1	0	1.10580801964	-1.0	-76.0	-6	-76	1
2.7	2015_Jun_01_1601	s	s	20	1	SIC	434	ABS	1	0	02VD 02VO 02VC 02MD 02MO 10MC 02RD 02RO	0	1	1.95332813263	None	None	None	None	1
2.7	2015_Jun_01_1601	s	s	20	1	SIC	435	RC	0	1	02VD 02VO 02VC 02MD 02MO 02MC 02RD 09RO	1	0	1.49462890625	310.0	271.0	312	259	1
2.7	2015_Jun_01_1601	s	s	20	1	SIC	436	ABS	1	2	02VD 02VO 02VC 10MD 02MO 02MC 02RD 02RO	0	1	1.94139504433	None	None	None	None	1
2.7	2015_Jun_01_1601	s	s	20	1	SIC	437	ABS	2	0	02VD 02VO 10VC 02MD 02MO 02MC 02RD 02RO	0	1	2.20724415779	None	None	None	None	1
2.7	2015_Jun_01_1601	s	s	20	1	SIC	438	RC	1	2	02VD 02VO 02VC 09MD 02MO 02MC 02RD 02RO	1	0	1.32615709305	447.0	-279.0	444	-273	1
2.7	2015_Jun_01_1601	s	s	20	1	SIC	439	ABS	0	2	02VD 02VO 02VC 02MD 02MO 02MC 10RD 02RO	0	1	1.72475409508	None	None	None	None	1
2.7	2015_Jun_01_1601	s	s	20	1	SIC	440	ABS	0	1	02VD 02VO 02VC 02MD 02MO 02MC 02RD 10RO	0	1	3.09017896652	None	None	None	None	1
2.7	2015_Jun_01_1601	s	s	20	1	SIC	441	RC	1	1	02VD 02VO 02VC 02MD 09MO 02MC 02RD 02RO	1	0	0.994986057281	314.0	259.0	314	257	1
2.7	2015_Jun_01_1601	s	s	20	1	SIC	442	RC	0	2	02VD 02VO 02VC 02MD 02MO 02MC 09RD 02RO	1	0	1.47743296623	-166.0	-315.0	-161	-312	1
2.7	2015_Jun_01_1601	s	s	20	1	SIC	443	ABS	2	1	02VD 10VO 02VC 02MD 02MO 02MC 02RD 02RO	0	1	1.98565292358	None	None	None	None	1
2.7	2015_Jun_01_1601	s	s	20	1	SIC	444	ABS	2	2	10VD 02VO 02VC 02MD 02MO 02MC 02RD 02RO	0	1	1.74858617783	None	None	None	None	1
2.7	2015_Jun_01_1601	s	s	20	1	SIC	445	RC	2	2	09VD 02VO 02VC 02MD 02MO 02MC 02RD 02RO	1	0	0.976326227188	412.0	-29.0	404	-22	1
2.7	2015_Jun_01_1601	s	s	20	1	SIC	446	RC	2	1	02VD 09VO 02VC 02MD 02MO 02MC 02RD 02RO	1	0	0.858613967896	121.0	-313.0	111	-306	1
2.7	2015_Jun_01_1601	s	s	20	1	SIC	447	ABS	1	1	02VD 02VO 02VC 02MD 10MO 02MC 02RD 02RO	0	1	1.91314387321	None	None	None	None	1
2.7	2015_Jun_01_1601	s	s	20	1	SIC	448	RC	2	0	02VD 02VO 09VC 02MD 02MO 02MC 02RD 02RO	1	0	0.932939052582	-9.0	-299.0	-14	-292	1
2.7	2015_Jun_01_1601	s	s	20	1	SIC	449	RC	1	2	02VD 02VO 02VC 09MD 02MO 02MC 02RD 02RO	1	0	0.606284141541	78.0	-58.0	81	-60	1
2.7	2015_Jun_01_1601	s	s	20	1	SIC	450	ABS	0	2	02VD 02VO 02VC 02MD 02MO 02MC 10RD 02RO	0	1	3.52661299706	None	None	None	None	1
2.7	2015_Jun_01_1601	s	s	20	1	SIC	451	RC	0	2	02VD 02VO 02VC 02MD 02MO 02MC 09RD 02RO	0	1	2.00711798668	533.0	252.0	None	None	0
2.7	2015_Jun_01_1601	s	s	20	1	SIC	452	RC	0	1	02VD 02VO 02VC 02MD 02MO 02MC 02RD 09RO	1	0	2.96053409576	-280.0	187.0	-274	188	1
2.7	2015_Jun_01_1601	s	s	20	1	SIC	453	RC	1	1	02VD 02VO 02VC 02MD 09MO 02MC 02RD 02RO	1	0	1.53795790672	-449.0	-372.0	-454	-378	1
2.7	2015_Jun_01_1601	s	s	20	1	SIC	454	RC	2	0	02VD 02VO 09VC 02MD 02MO 02MC 02RD 02RO	1	0	1.25372004509	509.0	8.0	501	8	1
2.7	2015_Jun_01_1601	s	s	20	1	SIC	455	ABS	2	2	10VD 02VO 02VC 02MD 02MO 02MC 02RD 02RO	0	1	2.44766902924	None	None	None	None	1
2.7	2015_Jun_01_1601	s	s	20	1	SIC	456	ABS	2	0	02VD 02VO 10VC 02MD 02MO 02MC 02RD 02RO	0	1	3.07150793076	None	None	None	None	1
2.7	2015_Jun_01_1601	s	s	20	1	SIC	457	ABS	2	1	02VD 10VO 02VC 02MD 02MO 02MC 02RD 02RO	0	1	2.55358290672	None	None	None	None	1
2.7	2015_Jun_01_1601	s	s	20	1	SIC	458	RC	2	2	09VD 02VO 02VC 02MD 02MO 02MC 02RD 02RO	1	0	0.776835203171	-103.0	-336.0	-112	-335	1
2.7	2015_Jun_01_1601	s	s	20	1	SIC	459	ABS	1	1	02VD 02VO 02VC 02MD 10MO 02MC 02RD 02RO	0	1	2.24782991409	None	None	None	None	1
2.7	2015_Jun_01_1601	s	s	20	1	SIC	460	RC	1	0	02VD 02VO 02VC 02MD 02MO 09MC 02RD 02RO	0	1	2.00657510757	-20.0	134.0	None	None	0
2.7	2015_Jun_01_1601	s	s	20	1	SIC	461	ABS	1	0	02VD 02VO 02VC 02MD 02MO 10MC 02RD 02RO	0	1	2.07098889351	None	None	None	None	1
2.7	2015_Jun_01_1601	s	s	20	1	SIC	462	ABS	1	2	02VD 02VO 02VC 10MD 02MO 02MC 02RD 02RO	0	1	1.992374897	None	None	None	None	1
2.7	2015_Jun_01_1601	s	s	20	1	SIC	463	ABS	0	1	02VD 02VO 02VC 02MD 02MO 02MC 02RD 10RO	0	1	5.19680595398	None	None	None	None	1
2.7	2015_Jun_01_1601	s	s	20	1	SIC	464	RC	2	1	02VD 09VO 02VC 02MD 02MO 02MC 02RD 02RO	1	0	0.76444196701	-142.0	-189.0	-132	-184	1
2.7	2015_Jun_01_1601	s	s	20	1	SIC	465	ABS	0	2	02VD 02VO 02VC 02MD 02MO 02MC 10RD 02RO	0	1	2.0356631279	None	None	None	None	1
2.7	2015_Jun_01_1601	s	s	20	1	SIC	466	RC	2	0	02VD 02VO 09VC 02MD 02MO 02MC 02RD 02RO	1	0	1.5648560524	273.0	122.0	262	126	1
2.7	2015_Jun_01_1601	s	s	20	1	SIC	467	ABS	1	0	02VD 02VO 02VC 02MD 02MO 10MC 02RD 02RO	0	1	3.17743706703	None	None	None	None	1
2.7	2015_Jun_01_1601	s	s	20	1	SIC	468	RC	1	2	02VD 02VO 02VC 09MD 02MO 02MC 02RD 02RO	1	0	0.846862077713	-67.0	-378.0	-68	-372	1
2.7	2015_Jun_01_1601	s	s	20	1	SIC	469	ABS	0	1	02VD 02VO 02VC 02MD 02MO 02MC 02RD 10RO	0	1	4.31925606728	None	None	None	None	1
2.7	2015_Jun_01_1601	s	s	20	1	SIC	470	ABS	2	2	10VD 02VO 02VC 02MD 02MO 02MC 02RD 02RO	1	0	2.85465693474	None	None	35	56	0
2.7	2015_Jun_01_1601	s	s	20	1	SIC	471	ABS	2	1	02VD 10VO 02VC 02MD 02MO 02MC 02RD 02RO	0	1	1.55993199348	None	None	None	None	1
2.7	2015_Jun_01_1601	s	s	20	1	SIC	472	RC	0	1	02VD 02VO 02VC 02MD 02MO 02MC 02RD 09RO	0	1	3.46683192253	-428.0	2.0	None	None	0
2.7	2015_Jun_01_1601	s	s	20	1	SIC	473	RC	0	2	02VD 02VO 02VC 02MD 02MO 02MC 09RD 02RO	1	0	1.74879002571	-512.0	231.0	-515	228	1
2.7	2015_Jun_01_1601	s	s	20	1	SIC	474	RC	1	1	02VD 02VO 02VC 02MD 09MO 02MC 02RD 02RO	1	0	2.47113394737	440.0	243.0	437	239	1
2.7	2015_Jun_01_1601	s	s	20	1	SIC	475	RC	2	1	02VD 09VO 02VC 02MD 02MO 02MC 02RD 02RO	1	0	0.92924618721	-223.0	196.0	-222	195	1
2.7	2015_Jun_01_1601	s	s	20	1	SIC	476	ABS	1	1	02VD 02VO 02VC 02MD 10MO 02MC 02RD 02RO	0	1	6.6652469635	None	None	None	None	1
2.7	2015_Jun_01_1601	s	s	20	1	SIC	477	ABS	2	0	02VD 02VO 10VC 02MD 02MO 02MC 02RD 02RO	0	1	3.85513496399	None	None	None	None	1
2.7	2015_Jun_01_1601	s	s	20	1	SIC	478	RC	1	0	02VD 02VO 02VC 02MD 02MO 09MC 02RD 02RO	1	0	2.28289103508	-330.0	273.0	-328	272	1
2.7	2015_Jun_01_1601	s	s	20	1	SIC	479	RC	2	2	09VD 02VO 02VC 02MD 02MO 02MC 02RD 02RO	1	0	1.32458305359	166.0	-157.0	164	-155	1
2.7	2015_Jun_01_1601	s	s	20	1	SIC	480	ABS	1	2	02VD 02VO 02VC 10MD 02MO 02MC 02RD 02RO	0	1	1.78850007057	None	None	None	None	1
