Version	Date	Stimuli	Method	Subject	Session	Condition	Trial	Target	Channel1	Channel2	Distractors	LMouseButton	RMouseButton	RT	TargetX	TargetY	ResponseX	ResponseY	Correct
2.7	2015_Jun_11_1120	s	s	21	4	Capacity	1	RC	0	1	08RD 15RO	1	0	1.37657594681	123.0	-287.0	126	-292	1
2.7	2015_Jun_11_1120	s	s	21	4	Capacity	2	RC	0	2	15RD 08RO	1	0	1.6182448864	314.0	270.0	317	279	1
2.7	2015_Jun_11_1120	s	s	21	4	Capacity	3	ABS	0	2	16RD 08RO	0	1	1.67069196701	None	None	None	None	1
2.7	2015_Jun_11_1120	s	s	21	4	Capacity	4	ABS	0	1	08RD 16RO	1	0	1.38832092285	None	None	-117	-27	0
2.7	2015_Jun_11_1120	s	s	21	4	Capacity	5	RC	0	1	08RD 15RO	1	0	1.623721838	95.0	22.0	94	22	1
2.7	2015_Jun_11_1120	s	s	21	4	Capacity	6	ABS	0	2	16RD 08RO	0	1	2.52983188629	None	None	None	None	1
2.7	2015_Jun_11_1120	s	s	21	4	Capacity	7	RC	0	2	15RD 08RO	1	0	1.19697880745	-386.0	241.0	-390	247	1
2.7	2015_Jun_11_1120	s	s	21	4	Capacity	8	ABS	0	1	08RD 16RO	0	1	2.47121095657	None	None	None	None	1
2.7	2015_Jun_11_1120	s	s	21	4	Capacity	9	RC	0	2	15RD 08RO	1	0	0.929242134094	-88.0	-341.0	-80	-347	1
2.7	2015_Jun_11_1120	s	s	21	4	Capacity	10	RC	0	1	08RD 15RO	1	0	0.576225996017	6.0	-8.0	5	-13	1
2.7	2015_Jun_11_1120	s	s	21	4	Capacity	11	ABS	0	2	16RD 08RO	0	1	0.688930034637	None	None	None	None	1
2.7	2015_Jun_11_1120	s	s	21	4	Capacity	12	ABS	0	1	08RD 16RO	0	1	1.05876588821	None	None	None	None	1
2.7	2015_Jun_11_1120	s	s	21	4	Capacity	13	RC	0	2	15RD 08RO	1	0	0.630357980728	217.0	259.0	222	262	1
2.7	2015_Jun_11_1120	s	s	21	4	Capacity	14	ABS	0	2	16RD 08RO	0	1	1.16466283798	None	None	None	None	1
2.7	2015_Jun_11_1120	s	s	21	4	Capacity	15	RC	0	1	08RD 15RO	1	0	1.18819999695	483.0	-60.0	487	-56	1
2.7	2015_Jun_11_1120	s	s	21	4	Capacity	16	ABS	0	1	08RD 16RO	0	1	1.26562094688	None	None	None	None	1
2.7	2015_Jun_11_1120	s	s	21	4	Capacity	17	ABS	0	2	16RD 08RO	0	1	1.05583786964	None	None	None	None	1
2.7	2015_Jun_11_1120	s	s	21	4	Capacity	18	RC	0	1	08RD 15RO	0	1	1.86826515198	-176.0	246.0	None	None	0
2.7	2015_Jun_11_1120	s	s	21	4	Capacity	19	ABS	0	1	08RD 16RO	0	1	1.18254804611	None	None	None	None	1
2.7	2015_Jun_11_1120	s	s	21	4	Capacity	20	RC	0	2	15RD 08RO	0	1	0.820907831192	-440.0	-54.0	None	None	0
2.7	2015_Jun_11_1120	s	s	21	4	Capacity	21	ABS	0	2	16RD 08RO	0	1	1.00912690163	None	None	None	None	1
2.7	2015_Jun_11_1120	s	s	21	4	Capacity	22	RC	0	1	08RD 15RO	0	1	0.946594953537	380.0	356.0	None	None	0
2.7	2015_Jun_11_1120	s	s	21	4	Capacity	23	RC	0	2	15RD 08RO	1	0	0.764320850372	51.0	128.0	50	120	1
2.7	2015_Jun_11_1120	s	s	21	4	Capacity	24	ABS	0	1	08RD 16RO	0	1	0.964514017105	None	None	None	None	1
2.7	2015_Jun_11_1120	s	s	21	4	Capacity	25	RC	0	1	08RD 15RO	1	0	0.623158216476	16.0	131.0	16	128	1
2.7	2015_Jun_11_1120	s	s	21	4	Capacity	26	ABS	0	2	16RD 08RO	0	1	1.67989611626	None	None	None	None	1
2.7	2015_Jun_11_1120	s	s	21	4	Capacity	27	ABS	0	1	08RD 16RO	0	1	1.09394598007	None	None	None	None	1
2.7	2015_Jun_11_1120	s	s	21	4	Capacity	28	RC	0	2	15RD 08RO	1	0	0.876563072205	171.0	13.0	166	7	1
2.7	2015_Jun_11_1120	s	s	21	4	Capacity	29	ABS	0	2	16RD 08RO	0	1	1.83060288429	None	None	None	None	1
2.7	2015_Jun_11_1120	s	s	21	4	Capacity	30	ABS	0	1	08RD 16RO	0	1	0.866657018661	None	None	None	None	1
2.7	2015_Jun_11_1120	s	s	21	4	Capacity	31	RC	0	2	15RD 08RO	0	1	0.996696949005	-323.0	-205.0	None	None	0
2.7	2015_Jun_11_1120	s	s	21	4	Capacity	32	RC	0	1	08RD 15RO	1	0	1.47064995766	470.0	266.0	471	258	1
2.7	2015_Jun_11_1120	s	s	21	4	Capacity	33	RC	0	2	15RD 08RO	1	0	0.964583158493	-366.0	-373.0	-367	-368	1
2.7	2015_Jun_11_1120	s	s	21	4	Capacity	34	ABS	0	2	16RD 08RO	0	1	1.54775309563	None	None	None	None	1
2.7	2015_Jun_11_1120	s	s	21	4	Capacity	35	ABS	0	1	08RD 16RO	0	1	0.970689058304	None	None	None	None	1
2.7	2015_Jun_11_1120	s	s	21	4	Capacity	36	RC	0	1	08RD 15RO	0	1	0.811429023743	341.0	172.0	None	None	0
2.7	2015_Jun_11_1120	s	s	21	4	Capacity	37	RC	0	2	15RD 08RO	1	0	0.926588058472	-167.0	354.0	-168	353	1
2.7	2015_Jun_11_1120	s	s	21	4	Capacity	38	ABS	0	2	16RD 08RO	0	1	0.858603954315	None	None	None	None	1
2.7	2015_Jun_11_1120	s	s	21	4	Capacity	39	RC	0	1	08RD 15RO	1	0	0.900115013123	-124.0	-172.0	-120	-176	1
2.7	2015_Jun_11_1120	s	s	21	4	Capacity	40	ABS	0	1	08RD 16RO	0	1	0.950054168701	None	None	None	None	1
2.7	2015_Jun_11_1120	s	s	21	4	Capacity	41	RC	0	2	15RD 08RO	1	0	0.737520933151	-130.0	-318.0	-133	-330	1
2.7	2015_Jun_11_1120	s	s	21	4	Capacity	42	ABS	0	2	16RD 08RO	0	1	1.28239488602	None	None	None	None	1
2.7	2015_Jun_11_1120	s	s	21	4	Capacity	43	ABS	0	1	08RD 16RO	0	1	2.81847810745	None	None	None	None	1
2.7	2015_Jun_11_1120	s	s	21	4	Capacity	44	RC	0	1	08RD 15RO	1	0	1.03073096275	116.0	250.0	120	247	1
2.7	2015_Jun_11_1120	s	s	21	4	Capacity	45	ABS	0	1	08RD 16RO	0	1	3.54238796234	None	None	None	None	1
2.7	2015_Jun_11_1120	s	s	21	4	Capacity	46	RC	0	2	15RD 08RO	0	1	0.796363115311	243.0	-52.0	None	None	0
2.7	2015_Jun_11_1120	s	s	21	4	Capacity	47	ABS	0	2	16RD 08RO	0	1	1.63087677956	None	None	None	None	1
2.7	2015_Jun_11_1120	s	s	21	4	Capacity	48	RC	0	1	08RD 15RO	1	0	0.806714057922	-153.0	-39.0	-150	-43	1
2.7	2015_Jun_11_1120	s	s	21	4	Capacity	49	RC	0	2	15RD 08RO	1	0	1.27741909027	452.0	137.0	451	137	1
2.7	2015_Jun_11_1120	s	s	21	4	Capacity	50	RC	0	1	08RD 15RO	0	1	1.25867199898	-462.0	-93.0	None	None	0
2.7	2015_Jun_11_1120	s	s	21	4	Capacity	51	ABS	0	2	16RD 08RO	0	1	0.971080064774	None	None	None	None	1
2.7	2015_Jun_11_1120	s	s	21	4	Capacity	52	ABS	0	1	08RD 16RO	0	1	0.924403905869	None	None	None	None	1
2.7	2015_Jun_11_1120	s	s	21	4	Capacity	53	RC	0	1	08RD 15RO	0	1	0.840982913971	395.0	-269.0	None	None	0
2.7	2015_Jun_11_1120	s	s	21	4	Capacity	54	ABS	0	2	16RD 08RO	0	1	1.03024411201	None	None	None	None	1
2.7	2015_Jun_11_1120	s	s	21	4	Capacity	55	RC	0	2	15RD 08RO	1	0	1.10105609894	-381.0	110.0	-383	108	1
2.7	2015_Jun_11_1120	s	s	21	4	Capacity	56	ABS	0	1	08RD 16RO	0	1	1.42364096642	None	None	None	None	1
2.7	2015_Jun_11_1120	s	s	21	4	Capacity	57	RC	0	1	08RD 15RO	1	0	1.01910805702	277.0	170.0	279	162	1
2.7	2015_Jun_11_1120	s	s	21	4	Capacity	58	RC	0	2	15RD 08RO	1	0	0.56446814537	-209.0	-60.0	-200	-64	1
2.7	2015_Jun_11_1120	s	s	21	4	Capacity	59	ABS	0	2	16RD 08RO	0	1	1.3715698719	None	None	None	None	1
2.7	2015_Jun_11_1120	s	s	21	4	Capacity	60	ABS	0	1	08RD 16RO	0	1	1.11740612984	None	None	None	None	1
2.7	2015_Jun_11_1120	s	s	21	4	Capacity	61	ABS	0	2	16RD 08RO	0	1	1.1528699398	None	None	None	None	1
2.7	2015_Jun_11_1120	s	s	21	4	Capacity	62	RC	0	1	08RD 15RO	0	1	1.36476683617	-227.0	177.0	None	None	0
2.7	2015_Jun_11_1120	s	s	21	4	Capacity	63	ABS	0	1	08RD 16RO	0	1	1.77111291885	None	None	None	None	1
2.7	2015_Jun_11_1120	s	s	21	4	Capacity	64	RC	0	2	15RD 08RO	1	0	1.45401096344	511.0	66.0	509	67	1
2.7	2015_Jun_11_1120	s	s	21	4	Capacity	1	ABS	1	0	08VC 16MC	0	1	1.02327203751	None	None	None	None	1
2.7	2015_Jun_11_1120	s	s	21	4	Capacity	2	ABS	2	0	16VC 08MC	0	1	0.959024190903	None	None	None	None	1
2.7	2015_Jun_11_1120	s	s	21	4	Capacity	3	RC	2	0	15VC 08MC	1	0	1.45404195786	-24.0	-367.0	-21	-374	1
2.7	2015_Jun_11_1120	s	s	21	4	Capacity	4	RC	1	0	08VC 15MC	1	0	0.830183982849	147.0	-245.0	145	-257	1
2.7	2015_Jun_11_1120	s	s	21	4	Capacity	5	RC	2	0	15VC 08MC	1	0	0.634816884995	-58.0	58.0	-58	61	1
2.7	2015_Jun_11_1120	s	s	21	4	Capacity	6	ABS	2	0	16VC 08MC	0	1	0.788327932358	None	None	None	None	1
2.7	2015_Jun_11_1120	s	s	21	4	Capacity	7	ABS	1	0	08VC 16MC	0	1	0.94811797142	None	None	None	None	1
2.7	2015_Jun_11_1120	s	s	21	4	Capacity	8	RC	1	0	08VC 15MC	1	0	0.929140806198	93.0	347.0	95	342	1
2.7	2015_Jun_11_1120	s	s	21	4	Capacity	9	ABS	1	0	08VC 16MC	0	1	0.882216215134	None	None	None	None	1
2.7	2015_Jun_11_1120	s	s	21	4	Capacity	10	RC	2	0	15VC 08MC	1	0	0.78799200058	197.0	402.0	201	403	1
2.7	2015_Jun_11_1120	s	s	21	4	Capacity	11	ABS	2	0	16VC 08MC	0	1	1.63552498817	None	None	None	None	1
2.7	2015_Jun_11_1120	s	s	21	4	Capacity	12	RC	1	0	08VC 15MC	0	1	0.603406190872	-459.0	-274.0	None	None	0
2.7	2015_Jun_11_1120	s	s	21	4	Capacity	13	RC	1	0	08VC 15MC	1	0	0.811583995819	157.0	221.0	152	229	1
2.7	2015_Jun_11_1120	s	s	21	4	Capacity	14	ABS	2	0	16VC 08MC	0	1	0.999863862991	None	None	None	None	1
2.7	2015_Jun_11_1120	s	s	21	4	Capacity	15	ABS	1	0	08VC 16MC	0	1	1.33633995056	None	None	None	None	1
2.7	2015_Jun_11_1120	s	s	21	4	Capacity	16	RC	2	0	15VC 08MC	0	1	0.584926128387	-281.0	-294.0	None	None	0
2.7	2015_Jun_11_1120	s	s	21	4	Capacity	17	RC	1	0	08VC 15MC	0	1	0.77628493309	-254.0	368.0	None	None	0
2.7	2015_Jun_11_1120	s	s	21	4	Capacity	18	ABS	1	0	08VC 16MC	0	1	0.799786090851	None	None	None	None	1
2.7	2015_Jun_11_1120	s	s	21	4	Capacity	19	ABS	2	0	16VC 08MC	0	1	0.697558164597	None	None	None	None	1
2.7	2015_Jun_11_1120	s	s	21	4	Capacity	20	RC	2	0	15VC 08MC	1	0	0.705666065216	-50.0	377.0	-56	381	1
2.7	2015_Jun_11_1120	s	s	21	4	Capacity	21	RC	1	0	08VC 15MC	1	0	0.77193403244	-278.0	391.0	-274	381	1
2.7	2015_Jun_11_1120	s	s	21	4	Capacity	22	RC	2	0	15VC 08MC	1	0	0.535394906998	1.0	292.0	-2	290	1
2.7	2015_Jun_11_1120	s	s	21	4	Capacity	23	ABS	1	0	08VC 16MC	0	1	0.90119099617	None	None	None	None	1
2.7	2015_Jun_11_1120	s	s	21	4	Capacity	24	ABS	2	0	16VC 08MC	0	1	0.635016918182	None	None	None	None	1
2.7	2015_Jun_11_1120	s	s	21	4	Capacity	25	ABS	1	0	08VC 16MC	0	1	0.842070817947	None	None	None	None	1
2.7	2015_Jun_11_1120	s	s	21	4	Capacity	26	ABS	2	0	16VC 08MC	0	1	0.6937520504	None	None	None	None	1
2.7	2015_Jun_11_1120	s	s	21	4	Capacity	27	RC	1	0	08VC 15MC	1	0	0.988114118576	310.0	-248.0	310	-249	1
2.7	2015_Jun_11_1120	s	s	21	4	Capacity	28	RC	2	0	15VC 08MC	1	0	0.831670999527	517.0	-165.0	517	-171	1
2.7	2015_Jun_11_1120	s	s	21	4	Capacity	29	RC	1	0	08VC 15MC	1	0	0.772564172745	-253.0	80.0	-245	81	1
2.7	2015_Jun_11_1120	s	s	21	4	Capacity	30	ABS	2	0	16VC 08MC	0	1	0.823264122009	None	None	None	None	1
2.7	2015_Jun_11_1120	s	s	21	4	Capacity	31	ABS	1	0	08VC 16MC	0	1	0.858665943146	None	None	None	None	1
2.7	2015_Jun_11_1120	s	s	21	4	Capacity	32	RC	2	0	15VC 08MC	1	0	0.738365888596	-151.0	-15.0	-146	-18	1
2.7	2015_Jun_11_1120	s	s	21	4	Capacity	33	ABS	1	0	08VC 16MC	1	0	0.629935026169	None	None	144	-100	0
2.7	2015_Jun_11_1120	s	s	21	4	Capacity	34	ABS	2	0	16VC 08MC	0	1	1.23899793625	None	None	None	None	1
2.7	2015_Jun_11_1120	s	s	21	4	Capacity	35	RC	2	0	15VC 08MC	1	0	0.540798187256	-300.0	-139.0	-302	-143	1
2.7	2015_Jun_11_1120	s	s	21	4	Capacity	36	RC	1	0	08VC 15MC	0	1	0.771372079849	503.0	-118.0	None	None	0
2.7	2015_Jun_11_1120	s	s	21	4	Capacity	37	ABS	1	0	08VC 16MC	0	1	0.890558004379	None	None	None	None	1
2.7	2015_Jun_11_1120	s	s	21	4	Capacity	38	RC	2	0	15VC 08MC	1	0	0.658989191055	194.0	230.0	189	228	1
2.7	2015_Jun_11_1120	s	s	21	4	Capacity	39	ABS	2	0	16VC 08MC	0	1	0.960899829865	None	None	None	None	1
2.7	2015_Jun_11_1120	s	s	21	4	Capacity	40	RC	1	0	08VC 15MC	1	0	0.735836029053	148.0	-100.0	142	-103	1
2.7	2015_Jun_11_1120	s	s	21	4	Capacity	41	ABS	2	0	16VC 08MC	0	1	1.07990908623	None	None	None	None	1
2.7	2015_Jun_11_1120	s	s	21	4	Capacity	42	ABS	1	0	08VC 16MC	0	1	0.67675280571	None	None	None	None	1
2.7	2015_Jun_11_1120	s	s	21	4	Capacity	43	RC	2	0	15VC 08MC	1	0	0.544600963593	262.0	151.0	259	150	1
2.7	2015_Jun_11_1120	s	s	21	4	Capacity	44	RC	1	0	08VC 15MC	1	0	0.665760993958	336.0	-154.0	329	-156	1
2.7	2015_Jun_11_1120	s	s	21	4	Capacity	45	ABS	2	0	16VC 08MC	0	1	0.888338088989	None	None	None	None	1
2.7	2015_Jun_11_1120	s	s	21	4	Capacity	46	RC	1	0	08VC 15MC	1	0	0.705605983734	432.0	-87.0	434	-85	1
2.7	2015_Jun_11_1120	s	s	21	4	Capacity	47	ABS	1	0	08VC 16MC	0	1	0.587931871414	None	None	None	None	1
2.7	2015_Jun_11_1120	s	s	21	4	Capacity	48	RC	2	0	15VC 08MC	1	0	0.517210006714	229.0	263.0	232	269	1
2.7	2015_Jun_11_1120	s	s	21	4	Capacity	49	RC	2	0	15VC 08MC	1	0	0.571313858032	162.0	194.0	165	200	1
2.7	2015_Jun_11_1120	s	s	21	4	Capacity	50	RC	1	0	08VC 15MC	0	1	0.61855506897	-447.0	306.0	None	None	0
2.7	2015_Jun_11_1120	s	s	21	4	Capacity	51	ABS	2	0	16VC 08MC	0	1	0.582836151123	None	None	None	None	1
2.7	2015_Jun_11_1120	s	s	21	4	Capacity	52	ABS	1	0	08VC 16MC	0	1	0.740956783295	None	None	None	None	1
2.7	2015_Jun_11_1120	s	s	21	4	Capacity	53	RC	1	0	08VC 15MC	0	1	0.712661027908	-273.0	-377.0	None	None	0
2.7	2015_Jun_11_1120	s	s	21	4	Capacity	54	ABS	1	0	08VC 16MC	0	1	0.705678939819	None	None	None	None	1
2.7	2015_Jun_11_1120	s	s	21	4	Capacity	55	ABS	2	0	16VC 08MC	0	1	0.792165994644	None	None	None	None	1
2.7	2015_Jun_11_1120	s	s	21	4	Capacity	56	RC	2	0	15VC 08MC	1	0	1.23046708107	318.0	-131.0	319	-133	1
2.7	2015_Jun_11_1120	s	s	21	4	Capacity	57	RC	1	0	08VC 15MC	1	0	0.988084793091	-299.0	-151.0	-300	-154	1
2.7	2015_Jun_11_1120	s	s	21	4	Capacity	58	ABS	1	0	08VC 16MC	0	1	0.761155128479	None	None	None	None	1
2.7	2015_Jun_11_1120	s	s	21	4	Capacity	59	ABS	2	0	16VC 08MC	0	1	1.11266589165	None	None	None	None	1
2.7	2015_Jun_11_1120	s	s	21	4	Capacity	60	RC	2	0	15VC 08MC	1	0	1.00662589073	-533.0	319.0	-532	318	1
2.7	2015_Jun_11_1120	s	s	21	4	Capacity	61	ABS	2	0	16VC 08MC	0	1	0.924322128296	None	None	None	None	1
2.7	2015_Jun_11_1120	s	s	21	4	Capacity	62	RC	2	0	15VC 08MC	1	0	0.823329210281	520.0	-44.0	515	-44	1
2.7	2015_Jun_11_1120	s	s	21	4	Capacity	63	ABS	1	0	08VC 16MC	0	1	1.03511977196	None	None	None	None	1
2.7	2015_Jun_11_1120	s	s	21	4	Capacity	64	RC	1	0	08VC 15MC	1	0	0.540898084641	-155.0	144.0	-146	140	1
2.7	2015_Jun_11_1120	s	s	21	4	SIC	1	RC	0	2	02VD 02VO 02VC 02MD 02MO 02MC 09RD 02RO	1	0	0.736005067825	-391.0	155.0	-388	159	1
2.7	2015_Jun_11_1120	s	s	21	4	SIC	2	RC	1	0	02VD 02VO 02VC 02MD 02MO 09MC 02RD 02RO	1	0	0.582403898239	-478.0	253.0	-16	-85	0
2.7	2015_Jun_11_1120	s	s	21	4	SIC	3	ABS	2	1	02VD 10VO 02VC 02MD 02MO 02MC 02RD 02RO	0	1	1.09403419495	None	None	None	None	1
2.7	2015_Jun_11_1120	s	s	21	4	SIC	4	ABS	2	0	02VD 02VO 10VC 02MD 02MO 02MC 02RD 02RO	0	1	1.32457995415	None	None	None	None	1
2.7	2015_Jun_11_1120	s	s	21	4	SIC	5	ABS	2	2	10VD 02VO 02VC 02MD 02MO 02MC 02RD 02RO	0	1	1.28937506676	None	None	None	None	1
2.7	2015_Jun_11_1120	s	s	21	4	SIC	6	RC	2	2	09VD 02VO 02VC 02MD 02MO 02MC 02RD 02RO	0	1	1.0823199749	128.0	402.0	None	None	0
2.7	2015_Jun_11_1120	s	s	21	4	SIC	7	RC	1	2	02VD 02VO 02VC 09MD 02MO 02MC 02RD 02RO	1	0	0.547265052795	17.0	166.0	16	160	1
2.7	2015_Jun_11_1120	s	s	21	4	SIC	8	ABS	1	0	02VD 02VO 02VC 02MD 02MO 10MC 02RD 02RO	0	1	1.00657582283	None	None	None	None	1
2.7	2015_Jun_11_1120	s	s	21	4	SIC	9	RC	1	1	02VD 02VO 02VC 02MD 09MO 02MC 02RD 02RO	1	0	0.900795936584	306.0	-353.0	309	-355	1
2.7	2015_Jun_11_1120	s	s	21	4	SIC	10	RC	2	0	02VD 02VO 09VC 02MD 02MO 02MC 02RD 02RO	1	0	0.976191997528	305.0	96.0	305	95	1
2.7	2015_Jun_11_1120	s	s	21	4	SIC	11	RC	2	1	02VD 09VO 02VC 02MD 02MO 02MC 02RD 02RO	1	0	1.1480410099	-496.0	-236.0	-497	-237	1
2.7	2015_Jun_11_1120	s	s	21	4	SIC	12	ABS	1	1	02VD 02VO 02VC 02MD 10MO 02MC 02RD 02RO	0	1	0.917423009872	None	None	None	None	1
2.7	2015_Jun_11_1120	s	s	21	4	SIC	13	ABS	1	2	02VD 02VO 02VC 10MD 02MO 02MC 02RD 02RO	0	1	1.16464400291	None	None	None	None	1
2.7	2015_Jun_11_1120	s	s	21	4	SIC	14	ABS	0	2	02VD 02VO 02VC 02MD 02MO 02MC 10RD 02RO	0	1	0.877230882645	None	None	None	None	1
2.7	2015_Jun_11_1120	s	s	21	4	SIC	15	ABS	0	1	02VD 02VO 02VC 02MD 02MO 02MC 02RD 10RO	0	1	1.5884001255	None	None	None	None	1
2.7	2015_Jun_11_1120	s	s	21	4	SIC	16	RC	0	1	02VD 02VO 02VC 02MD 02MO 02MC 02RD 09RO	1	0	1.27442908287	386.0	-81.0	391	-82	1
2.7	2015_Jun_11_1120	s	s	21	4	SIC	17	RC	2	2	09VD 02VO 02VC 02MD 02MO 02MC 02RD 02RO	1	0	1.41177606583	-257.0	-376.0	-260	-371	1
2.7	2015_Jun_11_1120	s	s	21	4	SIC	18	RC	2	1	02VD 09VO 02VC 02MD 02MO 02MC 02RD 02RO	0	1	1.36188101768	-344.0	347.0	None	None	0
2.7	2015_Jun_11_1120	s	s	21	4	SIC	19	ABS	1	0	02VD 02VO 02VC 02MD 02MO 10MC 02RD 02RO	0	1	1.00917410851	None	None	None	None	1
2.7	2015_Jun_11_1120	s	s	21	4	SIC	20	ABS	1	1	02VD 02VO 02VC 02MD 10MO 02MC 02RD 02RO	0	1	1.84752583504	None	None	None	None	1
2.7	2015_Jun_11_1120	s	s	21	4	SIC	21	RC	1	2	02VD 02VO 02VC 09MD 02MO 02MC 02RD 02RO	0	1	1.13637590408	364.0	225.0	None	None	0
2.7	2015_Jun_11_1120	s	s	21	4	SIC	22	RC	0	1	02VD 02VO 02VC 02MD 02MO 02MC 02RD 09RO	1	0	1.67076396942	405.0	-112.0	400	-118	1
2.7	2015_Jun_11_1120	s	s	21	4	SIC	23	RC	1	0	02VD 02VO 02VC 02MD 02MO 09MC 02RD 02RO	1	0	0.677100896835	7.0	-202.0	15	-206	1
2.7	2015_Jun_11_1120	s	s	21	4	SIC	24	ABS	0	1	02VD 02VO 02VC 02MD 02MO 02MC 02RD 10RO	0	1	1.26548290253	None	None	None	None	1
2.7	2015_Jun_11_1120	s	s	21	4	SIC	25	RC	0	2	02VD 02VO 02VC 02MD 02MO 02MC 09RD 02RO	1	0	0.629971981049	-248.0	251.0	-245	247	1
2.7	2015_Jun_11_1120	s	s	21	4	SIC	26	ABS	2	0	02VD 02VO 10VC 02MD 02MO 02MC 02RD 02RO	0	1	1.02343583107	None	None	None	None	1
2.7	2015_Jun_11_1120	s	s	21	4	SIC	27	ABS	2	2	10VD 02VO 02VC 02MD 02MO 02MC 02RD 02RO	0	1	0.677328109741	None	None	None	None	1
2.7	2015_Jun_11_1120	s	s	21	4	SIC	28	RC	1	1	02VD 02VO 02VC 02MD 09MO 02MC 02RD 02RO	1	0	1.03070998192	-437.0	150.0	-434	148	1
2.7	2015_Jun_11_1120	s	s	21	4	SIC	29	ABS	1	2	02VD 02VO 02VC 10MD 02MO 02MC 02RD 02RO	0	1	0.870513916016	None	None	None	None	1
2.7	2015_Jun_11_1120	s	s	21	4	SIC	30	ABS	0	2	02VD 02VO 02VC 02MD 02MO 02MC 10RD 02RO	0	1	0.776238918304	None	None	None	None	1
2.7	2015_Jun_11_1120	s	s	21	4	SIC	31	RC	2	0	02VD 02VO 09VC 02MD 02MO 02MC 02RD 02RO	0	1	0.748086929321	328.0	395.0	None	None	0
2.7	2015_Jun_11_1120	s	s	21	4	SIC	32	ABS	2	1	02VD 10VO 02VC 02MD 02MO 02MC 02RD 02RO	0	1	0.936494112015	None	None	None	None	1
2.7	2015_Jun_11_1120	s	s	21	4	SIC	33	ABS	1	2	02VD 02VO 02VC 10MD 02MO 02MC 02RD 02RO	0	1	1.53333497047	None	None	None	None	1
2.7	2015_Jun_11_1120	s	s	21	4	SIC	34	ABS	1	0	02VD 02VO 02VC 02MD 02MO 10MC 02RD 02RO	0	1	1.87770414352	None	None	None	None	1
2.7	2015_Jun_11_1120	s	s	21	4	SIC	35	RC	2	2	09VD 02VO 02VC 02MD 02MO 02MC 02RD 02RO	1	0	0.514706134796	-56.0	-66.0	-49	-65	1
2.7	2015_Jun_11_1120	s	s	21	4	SIC	36	RC	0	1	02VD 02VO 02VC 02MD 02MO 02MC 02RD 09RO	0	1	1.63041496277	393.0	251.0	None	None	0
2.7	2015_Jun_11_1120	s	s	21	4	SIC	37	RC	1	2	02VD 02VO 02VC 09MD 02MO 02MC 02RD 02RO	1	0	0.646770000458	29.0	-249.0	26	-255	1
2.7	2015_Jun_11_1120	s	s	21	4	SIC	38	RC	0	2	02VD 02VO 02VC 02MD 02MO 02MC 09RD 02RO	0	1	0.893841981888	256.0	-392.0	None	None	0
2.7	2015_Jun_11_1120	s	s	21	4	SIC	39	ABS	0	1	02VD 02VO 02VC 02MD 02MO 02MC 02RD 10RO	0	1	1.69438505173	None	None	None	None	1
2.7	2015_Jun_11_1120	s	s	21	4	SIC	40	RC	1	0	02VD 02VO 02VC 02MD 02MO 09MC 02RD 02RO	1	0	1.0120279789	167.0	-250.0	173	-254	1
2.7	2015_Jun_11_1120	s	s	21	4	SIC	41	RC	2	1	02VD 09VO 02VC 02MD 02MO 02MC 02RD 02RO	1	0	0.646764039993	79.0	-196.0	82	-203	1
2.7	2015_Jun_11_1120	s	s	21	4	SIC	42	ABS	2	2	10VD 02VO 02VC 02MD 02MO 02MC 02RD 02RO	0	1	1.02341985703	None	None	None	None	1
2.7	2015_Jun_11_1120	s	s	21	4	SIC	43	ABS	0	2	02VD 02VO 02VC 02MD 02MO 02MC 10RD 02RO	0	1	1.34772491455	None	None	None	None	1
2.7	2015_Jun_11_1120	s	s	21	4	SIC	44	RC	2	0	02VD 02VO 09VC 02MD 02MO 02MC 02RD 02RO	1	0	0.493751049042	121.0	87.0	116	77	1
2.7	2015_Jun_11_1120	s	s	21	4	SIC	45	RC	1	1	02VD 02VO 02VC 02MD 09MO 02MC 02RD 02RO	0	1	0.752698898315	477.0	-192.0	None	None	0
2.7	2015_Jun_11_1120	s	s	21	4	SIC	46	ABS	1	1	02VD 02VO 02VC 02MD 10MO 02MC 02RD 02RO	0	1	0.970290899277	None	None	None	None	1
2.7	2015_Jun_11_1120	s	s	21	4	SIC	47	ABS	2	1	02VD 10VO 02VC 02MD 02MO 02MC 02RD 02RO	0	1	0.941266059875	None	None	None	None	1
2.7	2015_Jun_11_1120	s	s	21	4	SIC	48	ABS	2	0	02VD 02VO 10VC 02MD 02MO 02MC 02RD 02RO	0	1	1.25301098824	None	None	None	None	1
2.7	2015_Jun_11_1120	s	s	21	4	SIC	49	RC	2	2	09VD 02VO 02VC 02MD 02MO 02MC 02RD 02RO	0	1	1.08890604973	-443.0	-145.0	None	None	0
2.7	2015_Jun_11_1120	s	s	21	4	SIC	50	RC	1	1	02VD 02VO 02VC 02MD 09MO 02MC 02RD 02RO	1	0	0.902321100235	75.0	-385.0	77	-394	1
2.7	2015_Jun_11_1120	s	s	21	4	SIC	51	ABS	2	1	02VD 10VO 02VC 02MD 02MO 02MC 02RD 02RO	0	1	0.74072098732	None	None	None	None	1
2.7	2015_Jun_11_1120	s	s	21	4	SIC	52	RC	0	2	02VD 02VO 02VC 02MD 02MO 02MC 09RD 02RO	1	0	0.999845981598	-307.0	-20.0	-304	-22	1
2.7	2015_Jun_11_1120	s	s	21	4	SIC	53	RC	2	1	02VD 09VO 02VC 02MD 02MO 02MC 02RD 02RO	1	0	0.912827014923	-209.0	-184.0	-202	-181	1
2.7	2015_Jun_11_1120	s	s	21	4	SIC	54	RC	0	1	02VD 02VO 02VC 02MD 02MO 02MC 02RD 09RO	1	0	1.77198195457	277.0	-104.0	279	-103	1
2.7	2015_Jun_11_1120	s	s	21	4	SIC	55	RC	1	2	02VD 02VO 02VC 09MD 02MO 02MC 02RD 02RO	1	0	0.77624297142	-234.0	-189.0	-237	-190	1
2.7	2015_Jun_11_1120	s	s	21	4	SIC	56	RC	1	0	02VD 02VO 02VC 02MD 02MO 09MC 02RD 02RO	1	0	0.86545085907	438.0	24.0	437	15	1
2.7	2015_Jun_11_1120	s	s	21	4	SIC	57	ABS	1	0	02VD 02VO 02VC 02MD 02MO 10MC 02RD 02RO	0	1	1.34717702866	None	None	None	None	1
2.7	2015_Jun_11_1120	s	s	21	4	SIC	58	ABS	1	1	02VD 02VO 02VC 02MD 10MO 02MC 02RD 02RO	0	1	1.25401210785	None	None	None	None	1
2.7	2015_Jun_11_1120	s	s	21	4	SIC	59	RC	2	0	02VD 02VO 09VC 02MD 02MO 02MC 02RD 02RO	1	0	0.582860946655	-162.0	-98.0	-163	-97	1
2.7	2015_Jun_11_1120	s	s	21	4	SIC	60	ABS	2	2	10VD 02VO 02VC 02MD 02MO 02MC 02RD 02RO	1	0	0.559419870377	None	None	-462	-67	0
2.7	2015_Jun_11_1120	s	s	21	4	SIC	61	ABS	0	2	02VD 02VO 02VC 02MD 02MO 02MC 10RD 02RO	0	1	1.19486904144	None	None	None	None	1
2.7	2015_Jun_11_1120	s	s	21	4	SIC	62	ABS	2	0	02VD 02VO 10VC 02MD 02MO 02MC 02RD 02RO	0	1	0.831984043121	None	None	None	None	1
2.7	2015_Jun_11_1120	s	s	21	4	SIC	63	ABS	1	2	02VD 02VO 02VC 10MD 02MO 02MC 02RD 02RO	0	1	0.736883163452	None	None	None	None	1
2.7	2015_Jun_11_1120	s	s	21	4	SIC	64	ABS	0	1	02VD 02VO 02VC 02MD 02MO 02MC 02RD 10RO	0	1	0.952862977982	None	None	None	None	1
2.7	2015_Jun_11_1120	s	s	21	4	SIC	65	RC	1	0	02VD 02VO 02VC 02MD 02MO 09MC 02RD 02RO	1	0	0.653081178665	-313.0	-114.0	-305	-115	1
2.7	2015_Jun_11_1120	s	s	21	4	SIC	66	ABS	2	0	02VD 02VO 10VC 02MD 02MO 02MC 02RD 02RO	0	1	0.759552955627	None	None	None	None	1
2.7	2015_Jun_11_1120	s	s	21	4	SIC	67	RC	0	2	02VD 02VO 02VC 02MD 02MO 02MC 09RD 02RO	1	0	0.889063835144	-537.0	66.0	-540	55	1
2.7	2015_Jun_11_1120	s	s	21	4	SIC	68	RC	1	2	02VD 02VO 02VC 09MD 02MO 02MC 02RD 02RO	1	0	0.893943071365	-357.0	249.0	-347	252	1
2.7	2015_Jun_11_1120	s	s	21	4	SIC	69	ABS	0	2	02VD 02VO 02VC 02MD 02MO 02MC 10RD 02RO	0	1	0.846940994263	None	None	None	None	1
2.7	2015_Jun_11_1120	s	s	21	4	SIC	70	RC	2	1	02VD 09VO 02VC 02MD 02MO 02MC 02RD 02RO	1	0	0.646780014038	-88.0	-221.0	-87	-217	1
2.7	2015_Jun_11_1120	s	s	21	4	SIC	71	RC	2	2	09VD 02VO 02VC 02MD 02MO 02MC 02RD 02RO	1	0	0.64676618576	117.0	81.0	111	75	1
2.7	2015_Jun_11_1120	s	s	21	4	SIC	72	ABS	2	2	10VD 02VO 02VC 02MD 02MO 02MC 02RD 02RO	0	1	0.776291131973	None	None	None	None	1
2.7	2015_Jun_11_1120	s	s	21	4	SIC	73	ABS	1	2	02VD 02VO 02VC 10MD 02MO 02MC 02RD 02RO	0	1	0.664716959	None	None	None	None	1
2.7	2015_Jun_11_1120	s	s	21	4	SIC	74	ABS	2	1	02VD 10VO 02VC 02MD 02MO 02MC 02RD 02RO	0	1	1.1763780117	None	None	None	None	1
2.7	2015_Jun_11_1120	s	s	21	4	SIC	75	RC	0	1	02VD 02VO 02VC 02MD 02MO 02MC 02RD 09RO	0	1	1.6943089962	313.0	-326.0	None	None	0
2.7	2015_Jun_11_1120	s	s	21	4	SIC	76	RC	1	1	02VD 02VO 02VC 02MD 09MO 02MC 02RD 02RO	0	1	1.14793992043	450.0	-372.0	None	None	0
2.7	2015_Jun_11_1120	s	s	21	4	SIC	77	RC	2	0	02VD 02VO 09VC 02MD 02MO 02MC 02RD 02RO	1	0	0.788045883179	-125.0	-230.0	-121	-233	1
2.7	2015_Jun_11_1120	s	s	21	4	SIC	78	ABS	1	1	02VD 02VO 02VC 02MD 10MO 02MC 02RD 02RO	0	1	0.917449235916	None	None	None	None	1
2.7	2015_Jun_11_1120	s	s	21	4	SIC	79	ABS	1	0	02VD 02VO 02VC 02MD 02MO 10MC 02RD 02RO	0	1	0.870344877243	None	None	None	None	1
2.7	2015_Jun_11_1120	s	s	21	4	SIC	80	ABS	0	1	02VD 02VO 02VC 02MD 02MO 02MC 02RD 10RO	0	1	1.1493768692	None	None	None	None	1
2.7	2015_Jun_11_1120	s	s	21	4	SIC	81	RC	1	2	02VD 02VO 02VC 09MD 02MO 02MC 02RD 02RO	0	1	0.794984102249	248.0	164.0	None	None	0
2.7	2015_Jun_11_1120	s	s	21	4	SIC	82	ABS	1	0	02VD 02VO 02VC 02MD 02MO 10MC 02RD 02RO	0	1	0.694167137146	None	None	None	None	1
2.7	2015_Jun_11_1120	s	s	21	4	SIC	83	ABS	1	1	02VD 02VO 02VC 02MD 10MO 02MC 02RD 02RO	0	1	0.632426977158	None	None	None	None	1
2.7	2015_Jun_11_1120	s	s	21	4	SIC	84	ABS	2	1	02VD 10VO 02VC 02MD 02MO 02MC 02RD 02RO	0	1	0.917468070984	None	None	None	None	1
2.7	2015_Jun_11_1120	s	s	21	4	SIC	85	ABS	0	1	02VD 02VO 02VC 02MD 02MO 02MC 02RD 10RO	0	1	1.47772598267	None	None	None	None	1
2.7	2015_Jun_11_1120	s	s	21	4	SIC	86	ABS	2	2	10VD 02VO 02VC 02MD 02MO 02MC 02RD 02RO	0	1	1.43525195122	None	None	None	None	1
2.7	2015_Jun_11_1120	s	s	21	4	SIC	87	RC	0	1	02VD 02VO 02VC 02MD 02MO 02MC 02RD 09RO	1	0	0.995074987411	-263.0	-196.0	-257	-193	1
2.7	2015_Jun_11_1120	s	s	21	4	SIC	88	RC	2	0	02VD 02VO 09VC 02MD 02MO 02MC 02RD 02RO	1	0	1.10058283806	225.0	272.0	227	268	1
2.7	2015_Jun_11_1120	s	s	21	4	SIC	89	RC	0	2	02VD 02VO 02VC 02MD 02MO 02MC 09RD 02RO	1	0	0.959503889084	106.0	91.0	112	97	1
2.7	2015_Jun_11_1120	s	s	21	4	SIC	90	RC	1	1	02VD 02VO 02VC 02MD 09MO 02MC 02RD 02RO	1	0	1.09419679642	176.0	117.0	175	111	1
2.7	2015_Jun_11_1120	s	s	21	4	SIC	91	RC	2	1	02VD 09VO 02VC 02MD 02MO 02MC 02RD 02RO	1	0	0.703151941299	191.0	232.0	196	228	1
2.7	2015_Jun_11_1120	s	s	21	4	SIC	92	ABS	0	2	02VD 02VO 02VC 02MD 02MO 02MC 10RD 02RO	1	0	1.03519892693	None	None	83	-267	0
2.7	2015_Jun_11_1120	s	s	21	4	SIC	93	RC	2	2	09VD 02VO 02VC 02MD 02MO 02MC 02RD 02RO	1	0	1.0586771965	-243.0	-368.0	-246	-377	1
2.7	2015_Jun_11_1120	s	s	21	4	SIC	94	ABS	2	0	02VD 02VO 10VC 02MD 02MO 02MC 02RD 02RO	0	1	0.929192066193	None	None	None	None	1
2.7	2015_Jun_11_1120	s	s	21	4	SIC	95	RC	1	0	02VD 02VO 02VC 02MD 02MO 09MC 02RD 02RO	0	1	1.40657997131	-473.0	-1.0	None	None	0
2.7	2015_Jun_11_1120	s	s	21	4	SIC	96	ABS	1	2	02VD 02VO 02VC 10MD 02MO 02MC 02RD 02RO	0	1	0.994946956635	None	None	None	None	1
2.7	2015_Jun_11_1120	s	s	21	4	SIC	97	ABS	1	2	02VD 02VO 02VC 10MD 02MO 02MC 02RD 02RO	0	1	1.32437205315	None	None	None	None	1
2.7	2015_Jun_11_1120	s	s	21	4	SIC	98	ABS	2	0	02VD 02VO 10VC 02MD 02MO 02MC 02RD 02RO	0	1	0.890293121338	None	None	None	None	1
2.7	2015_Jun_11_1120	s	s	21	4	SIC	99	RC	1	0	02VD 02VO 02VC 02MD 02MO 09MC 02RD 02RO	0	1	2.16519117355	455.0	220.0	None	None	0
2.7	2015_Jun_11_1120	s	s	21	4	SIC	100	RC	0	2	02VD 02VO 02VC 02MD 02MO 02MC 09RD 02RO	0	1	1.01160287857	441.0	321.0	None	None	0
2.7	2015_Jun_11_1120	s	s	21	4	SIC	101	ABS	2	2	10VD 02VO 02VC 02MD 02MO 02MC 02RD 02RO	0	1	1.10585808754	None	None	None	None	1
2.7	2015_Jun_11_1120	s	s	21	4	SIC	102	ABS	1	1	02VD 02VO 02VC 02MD 10MO 02MC 02RD 02RO	0	1	1.12468886375	None	None	None	None	1
2.7	2015_Jun_11_1120	s	s	21	4	SIC	103	RC	2	1	02VD 09VO 02VC 02MD 02MO 02MC 02RD 02RO	1	0	0.799702882767	360.0	-109.0	365	-107	1
2.7	2015_Jun_11_1120	s	s	21	4	SIC	104	RC	1	2	02VD 02VO 02VC 09MD 02MO 02MC 02RD 02RO	1	0	0.78799700737	-333.0	225.0	-329	227	1
2.7	2015_Jun_11_1120	s	s	21	4	SIC	105	RC	2	2	09VD 02VO 02VC 02MD 02MO 02MC 02RD 02RO	1	0	0.599600076675	-143.0	-225.0	-139	-232	1
2.7	2015_Jun_11_1120	s	s	21	4	SIC	106	ABS	1	0	02VD 02VO 02VC 02MD 02MO 10MC 02RD 02RO	0	1	1.22346401215	None	None	None	None	1
2.7	2015_Jun_11_1120	s	s	21	4	SIC	107	RC	0	1	02VD 02VO 02VC 02MD 02MO 02MC 02RD 09RO	0	1	1.05872297287	145.0	312.0	None	None	0
2.7	2015_Jun_11_1120	s	s	21	4	SIC	108	ABS	0	2	02VD 02VO 02VC 02MD 02MO 02MC 10RD 02RO	0	1	1.81798696518	None	None	None	None	1
2.7	2015_Jun_11_1120	s	s	21	4	SIC	109	RC	1	1	02VD 02VO 02VC 02MD 09MO 02MC 02RD 02RO	0	1	0.882171154022	-31.0	-378.0	None	None	0
2.7	2015_Jun_11_1120	s	s	21	4	SIC	110	ABS	0	1	02VD 02VO 02VC 02MD 02MO 02MC 02RD 10RO	0	1	1.54127287865	None	None	None	None	1
2.7	2015_Jun_11_1120	s	s	21	4	SIC	111	ABS	2	1	02VD 10VO 02VC 02MD 02MO 02MC 02RD 02RO	0	1	0.794857025146	None	None	None	None	1
2.7	2015_Jun_11_1120	s	s	21	4	SIC	112	RC	2	0	02VD 02VO 09VC 02MD 02MO 02MC 02RD 02RO	1	0	0.564341068268	-211.0	-115.0	-214	-109	1
2.7	2015_Jun_11_1120	s	s	21	4	SIC	113	RC	2	1	02VD 09VO 02VC 02MD 02MO 02MC 02RD 02RO	0	1	0.724234104156	-165.0	-335.0	None	None	0
2.7	2015_Jun_11_1120	s	s	21	4	SIC	114	RC	0	2	02VD 02VO 02VC 02MD 02MO 02MC 09RD 02RO	0	1	1.01159405708	-499.0	-286.0	None	None	0
2.7	2015_Jun_11_1120	s	s	21	4	SIC	115	RC	1	0	02VD 02VO 02VC 02MD 02MO 09MC 02RD 02RO	0	1	1.19509601593	-511.0	-3.0	None	None	0
2.7	2015_Jun_11_1120	s	s	21	4	SIC	116	RC	1	1	02VD 02VO 02VC 02MD 09MO 02MC 02RD 02RO	1	0	1.56487703323	-341.0	-242.0	-344	-247	1
2.7	2015_Jun_11_1120	s	s	21	4	SIC	117	RC	2	0	02VD 02VO 09VC 02MD 02MO 02MC 02RD 02RO	0	1	1.24702596664	509.0	94.0	None	None	0
2.7	2015_Jun_11_1120	s	s	21	4	SIC	118	ABS	1	2	02VD 02VO 02VC 10MD 02MO 02MC 02RD 02RO	0	1	1.07631206512	None	None	None	None	1
2.7	2015_Jun_11_1120	s	s	21	4	SIC	119	RC	1	2	02VD 02VO 02VC 09MD 02MO 02MC 02RD 02RO	0	1	1.89448094368	250.0	-139.0	None	None	0
2.7	2015_Jun_11_1120	s	s	21	4	SIC	120	ABS	1	1	02VD 02VO 02VC 02MD 10MO 02MC 02RD 02RO	0	1	1.61198306084	None	None	None	None	1
2.7	2015_Jun_11_1120	s	s	21	4	SIC	121	ABS	0	1	02VD 02VO 02VC 02MD 02MO 02MC 02RD 10RO	0	1	2.35348200798	None	None	None	None	1
2.7	2015_Jun_11_1120	s	s	21	4	SIC	122	ABS	2	2	10VD 02VO 02VC 02MD 02MO 02MC 02RD 02RO	0	1	0.841878890991	None	None	None	None	1
2.7	2015_Jun_11_1120	s	s	21	4	SIC	123	ABS	1	0	02VD 02VO 02VC 02MD 02MO 10MC 02RD 02RO	0	1	2.04743790627	None	None	None	None	1
2.7	2015_Jun_11_1120	s	s	21	4	SIC	124	RC	2	2	09VD 02VO 02VC 02MD 02MO 02MC 02RD 02RO	1	0	0.517249107361	28.0	-73.0	27	-73	1
2.7	2015_Jun_11_1120	s	s	21	4	SIC	125	ABS	2	0	02VD 02VO 10VC 02MD 02MO 02MC 02RD 02RO	0	1	0.971230983734	None	None	None	None	1
2.7	2015_Jun_11_1120	s	s	21	4	SIC	126	ABS	2	1	02VD 10VO 02VC 02MD 02MO 02MC 02RD 02RO	0	1	0.964539051056	None	None	None	None	1
2.7	2015_Jun_11_1120	s	s	21	4	SIC	127	ABS	0	2	02VD 02VO 02VC 02MD 02MO 02MC 10RD 02RO	0	1	0.818964004517	None	None	None	None	1
2.7	2015_Jun_11_1120	s	s	21	4	SIC	128	RC	0	1	02VD 02VO 02VC 02MD 02MO 02MC 02RD 09RO	1	0	2.0190911293	400.0	241.0	403	240	1
2.7	2015_Jun_11_1120	s	s	21	4	SIC	129	RC	1	2	02VD 02VO 02VC 09MD 02MO 02MC 02RD 02RO	1	0	1.03889298439	-473.0	-99.0	-478	-103	1
2.7	2015_Jun_11_1120	s	s	21	4	SIC	130	ABS	1	2	02VD 02VO 02VC 10MD 02MO 02MC 02RD 02RO	0	1	1.35333895683	None	None	None	None	1
2.7	2015_Jun_11_1120	s	s	21	4	SIC	131	RC	2	0	02VD 02VO 09VC 02MD 02MO 02MC 02RD 02RO	1	0	0.747817993164	162.0	-228.0	162	-228	1
2.7	2015_Jun_11_1120	s	s	21	4	SIC	132	ABS	2	0	02VD 02VO 10VC 02MD 02MO 02MC 02RD 02RO	0	1	0.935529232025	None	None	None	None	1
2.7	2015_Jun_11_1120	s	s	21	4	SIC	133	ABS	0	2	02VD 02VO 02VC 02MD 02MO 02MC 10RD 02RO	0	1	0.88246512413	None	None	None	None	1
2.7	2015_Jun_11_1120	s	s	21	4	SIC	134	RC	0	1	02VD 02VO 02VC 02MD 02MO 02MC 02RD 09RO	0	1	1.67976903915	100.0	354.0	None	None	0
2.7	2015_Jun_11_1120	s	s	21	4	SIC	135	ABS	2	1	02VD 10VO 02VC 02MD 02MO 02MC 02RD 02RO	0	1	0.717349052429	None	None	None	None	1
2.7	2015_Jun_11_1120	s	s	21	4	SIC	136	ABS	1	1	02VD 02VO 02VC 02MD 10MO 02MC 02RD 02RO	0	1	0.830679178238	None	None	None	None	1
2.7	2015_Jun_11_1120	s	s	21	4	SIC	137	ABS	0	1	02VD 02VO 02VC 02MD 02MO 02MC 02RD 10RO	0	1	1.43069911003	None	None	None	None	1
2.7	2015_Jun_11_1120	s	s	21	4	SIC	138	RC	1	1	02VD 02VO 02VC 02MD 09MO 02MC 02RD 02RO	1	0	1.33635401726	179.0	386.0	185	386	1
2.7	2015_Jun_11_1120	s	s	21	4	SIC	139	ABS	2	2	10VD 02VO 02VC 02MD 02MO 02MC 02RD 02RO	0	1	0.782932043076	None	None	None	None	1
2.7	2015_Jun_11_1120	s	s	21	4	SIC	140	RC	0	2	02VD 02VO 02VC 02MD 02MO 02MC 09RD 02RO	0	1	0.98254108429	249.0	-382.0	None	None	0
2.7	2015_Jun_11_1120	s	s	21	4	SIC	141	RC	2	2	09VD 02VO 02VC 02MD 02MO 02MC 02RD 02RO	1	0	1.14811396599	-377.0	335.0	-378	328	1
2.7	2015_Jun_11_1120	s	s	21	4	SIC	142	RC	2	1	02VD 09VO 02VC 02MD 02MO 02MC 02RD 02RO	1	0	1.64238595963	355.0	-202.0	363	-205	1
2.7	2015_Jun_11_1120	s	s	21	4	SIC	143	RC	1	0	02VD 02VO 02VC 02MD 02MO 09MC 02RD 02RO	0	1	0.747514009476	191.0	-375.0	None	None	0
2.7	2015_Jun_11_1120	s	s	21	4	SIC	144	ABS	1	0	02VD 02VO 02VC 02MD 02MO 10MC 02RD 02RO	0	1	1.22347903252	None	None	None	None	1
2.7	2015_Jun_11_1120	s	s	21	4	SIC	145	ABS	1	2	02VD 02VO 02VC 10MD 02MO 02MC 02RD 02RO	0	1	1.95330691338	None	None	None	None	1
2.7	2015_Jun_11_1120	s	s	21	4	SIC	146	RC	2	1	02VD 09VO 02VC 02MD 02MO 02MC 02RD 02RO	1	0	1.53589391708	-119.0	253.0	-115	241	1
2.7	2015_Jun_11_1120	s	s	21	4	SIC	147	ABS	2	0	02VD 02VO 10VC 02MD 02MO 02MC 02RD 02RO	0	1	1.32397294044	None	None	None	None	1
2.7	2015_Jun_11_1120	s	s	21	4	SIC	148	RC	2	2	09VD 02VO 02VC 02MD 02MO 02MC 02RD 02RO	1	0	0.929186105728	-527.0	53.0	-534	50	1
2.7	2015_Jun_11_1120	s	s	21	4	SIC	149	ABS	1	1	02VD 02VO 02VC 02MD 10MO 02MC 02RD 02RO	0	1	1.08224701881	None	None	None	None	1
2.7	2015_Jun_11_1120	s	s	21	4	SIC	150	ABS	2	1	02VD 10VO 02VC 02MD 02MO 02MC 02RD 02RO	0	1	1.15291810036	None	None	None	None	1
2.7	2015_Jun_11_1120	s	s	21	4	SIC	151	ABS	1	0	02VD 02VO 02VC 02MD 02MO 10MC 02RD 02RO	0	1	1.01164698601	None	None	None	None	1
2.7	2015_Jun_11_1120	s	s	21	4	SIC	152	ABS	2	2	10VD 02VO 02VC 02MD 02MO 02MC 02RD 02RO	0	1	1.81203699112	None	None	None	None	1
2.7	2015_Jun_11_1120	s	s	21	4	SIC	153	RC	1	2	02VD 02VO 02VC 09MD 02MO 02MC 02RD 02RO	1	0	0.677606105804	-314.0	153.0	-313	160	1
2.7	2015_Jun_11_1120	s	s	21	4	SIC	154	RC	2	0	02VD 02VO 09VC 02MD 02MO 02MC 02RD 02RO	1	0	1.14800286293	-78.0	-213.0	-87	-210	1
2.7	2015_Jun_11_1120	s	s	21	4	SIC	155	RC	0	2	02VD 02VO 02VC 02MD 02MO 02MC 09RD 02RO	0	1	1.37130999565	-370.0	-395.0	None	None	0
2.7	2015_Jun_11_1120	s	s	21	4	SIC	156	ABS	0	2	02VD 02VO 02VC 02MD 02MO 02MC 10RD 02RO	0	1	1.47117710114	None	None	None	None	1
2.7	2015_Jun_11_1120	s	s	21	4	SIC	157	RC	1	1	02VD 02VO 02VC 02MD 09MO 02MC 02RD 02RO	1	0	0.75261592865	79.0	-122.0	90	-116	1
2.7	2015_Jun_11_1120	s	s	21	4	SIC	158	ABS	0	1	02VD 02VO 02VC 02MD 02MO 02MC 02RD 10RO	0	1	1.4186899662	None	None	None	None	1
2.7	2015_Jun_11_1120	s	s	21	4	SIC	159	RC	1	0	02VD 02VO 02VC 02MD 02MO 09MC 02RD 02RO	0	1	1.04705691338	278.0	364.0	None	None	0
2.7	2015_Jun_11_1120	s	s	21	4	SIC	160	RC	0	1	02VD 02VO 02VC 02MD 02MO 02MC 02RD 09RO	1	0	0.876184940338	199.0	-85.0	208	-83	1
2.7	2015_Jun_11_1120	s	s	21	4	SIC	161	ABS	2	1	02VD 10VO 02VC 02MD 02MO 02MC 02RD 02RO	0	1	1.21171784401	None	None	None	None	1
2.7	2015_Jun_11_1120	s	s	21	4	SIC	162	RC	1	1	02VD 02VO 02VC 02MD 09MO 02MC 02RD 02RO	1	0	1.02342009544	47.0	397.0	50	393	1
2.7	2015_Jun_11_1120	s	s	21	4	SIC	163	ABS	1	1	02VD 02VO 02VC 02MD 10MO 02MC 02RD 02RO	0	1	0.924187898636	None	None	None	None	1
2.7	2015_Jun_11_1120	s	s	21	4	SIC	164	ABS	1	0	02VD 02VO 02VC 02MD 02MO 10MC 02RD 02RO	0	1	1.21860790253	None	None	None	None	1
2.7	2015_Jun_11_1120	s	s	21	4	SIC	165	ABS	2	0	02VD 02VO 10VC 02MD 02MO 02MC 02RD 02RO	0	1	1.22351312637	None	None	None	None	1
2.7	2015_Jun_11_1120	s	s	21	4	SIC	166	RC	0	1	02VD 02VO 02VC 02MD 02MO 02MC 02RD 09RO	1	0	1.98349785805	-444.0	-237.0	-443	-242	1
2.7	2015_Jun_11_1120	s	s	21	4	SIC	167	RC	2	2	09VD 02VO 02VC 02MD 02MO 02MC 02RD 02RO	1	0	1.00696992874	29.0	247.0	29	242	1
2.7	2015_Jun_11_1120	s	s	21	4	SIC	168	RC	2	1	02VD 09VO 02VC 02MD 02MO 02MC 02RD 02RO	1	0	1.12679100037	398.0	177.0	399	181	1
2.7	2015_Jun_11_1120	s	s	21	4	SIC	169	ABS	2	2	10VD 02VO 02VC 02MD 02MO 02MC 02RD 02RO	0	1	1.18818616867	None	None	None	None	1
2.7	2015_Jun_11_1120	s	s	21	4	SIC	170	RC	0	2	02VD 02VO 02VC 02MD 02MO 02MC 09RD 02RO	1	0	0.865170955658	327.0	6.0	320	9	1
2.7	2015_Jun_11_1120	s	s	21	4	SIC	171	ABS	0	2	02VD 02VO 02VC 02MD 02MO 02MC 10RD 02RO	0	1	0.912378787994	None	None	None	None	1
2.7	2015_Jun_11_1120	s	s	21	4	SIC	172	RC	2	0	02VD 02VO 09VC 02MD 02MO 02MC 02RD 02RO	1	0	0.941436052322	-412.0	233.0	-413	238	1
2.7	2015_Jun_11_1120	s	s	21	4	SIC	173	ABS	0	1	02VD 02VO 02VC 02MD 02MO 02MC 02RD 10RO	0	1	1.33629798889	None	None	None	None	1
2.7	2015_Jun_11_1120	s	s	21	4	SIC	174	ABS	1	2	02VD 02VO 02VC 10MD 02MO 02MC 02RD 02RO	0	1	1.31329107285	None	None	None	None	1
2.7	2015_Jun_11_1120	s	s	21	4	SIC	175	RC	1	0	02VD 02VO 02VC 02MD 02MO 09MC 02RD 02RO	1	0	1.34116196632	206.0	-291.0	205	-292	1
2.7	2015_Jun_11_1120	s	s	21	4	SIC	176	RC	1	2	02VD 02VO 02VC 09MD 02MO 02MC 02RD 02RO	1	0	0.529026985168	-205.0	-79.0	-203	-84	1
2.7	2015_Jun_11_1120	s	s	21	4	SIC	177	RC	2	1	02VD 09VO 02VC 02MD 02MO 02MC 02RD 02RO	1	0	0.50550198555	-224.0	12.0	-226	4	1
2.7	2015_Jun_11_1120	s	s	21	4	SIC	178	ABS	1	2	02VD 02VO 02VC 10MD 02MO 02MC 02RD 02RO	0	1	0.747672080994	None	None	None	None	1
2.7	2015_Jun_11_1120	s	s	21	4	SIC	179	ABS	0	2	02VD 02VO 02VC 02MD 02MO 02MC 10RD 02RO	0	1	1.45396900177	None	None	None	None	1
2.7	2015_Jun_11_1120	s	s	21	4	SIC	180	ABS	0	1	02VD 02VO 02VC 02MD 02MO 02MC 02RD 10RO	0	1	2.81922793388	None	None	None	None	1
2.7	2015_Jun_11_1120	s	s	21	4	SIC	181	ABS	2	1	02VD 10VO 02VC 02MD 02MO 02MC 02RD 02RO	0	1	1.24197387695	None	None	None	None	1
2.7	2015_Jun_11_1120	s	s	21	4	SIC	182	RC	2	2	09VD 02VO 02VC 02MD 02MO 02MC 02RD 02RO	1	0	1.45888996124	205.0	393.0	210	387	1
2.7	2015_Jun_11_1120	s	s	21	4	SIC	183	ABS	2	0	02VD 02VO 10VC 02MD 02MO 02MC 02RD 02RO	0	1	1.253510952	None	None	None	None	1
2.7	2015_Jun_11_1120	s	s	21	4	SIC	184	ABS	1	0	02VD 02VO 02VC 02MD 02MO 10MC 02RD 02RO	0	1	0.964533090591	None	None	None	None	1
2.7	2015_Jun_11_1120	s	s	21	4	SIC	185	RC	0	1	02VD 02VO 02VC 02MD 02MO 02MC 02RD 09RO	1	0	0.596435070038	-40.0	176.0	-35	166	1
2.7	2015_Jun_11_1120	s	s	21	4	SIC	186	RC	2	0	02VD 02VO 09VC 02MD 02MO 02MC 02RD 02RO	0	1	0.882109880447	374.0	170.0	None	None	0
2.7	2015_Jun_11_1120	s	s	21	4	SIC	187	RC	1	2	02VD 02VO 02VC 09MD 02MO 02MC 02RD 02RO	0	1	0.912384033203	-328.0	-146.0	None	None	0
2.7	2015_Jun_11_1120	s	s	21	4	SIC	188	ABS	2	2	10VD 02VO 02VC 02MD 02MO 02MC 02RD 02RO	0	1	0.794518947601	None	None	None	None	1
2.7	2015_Jun_11_1120	s	s	21	4	SIC	189	RC	1	0	02VD 02VO 02VC 02MD 02MO 09MC 02RD 02RO	1	0	1.03285694122	-345.0	-342.0	-350	-345	1
2.7	2015_Jun_11_1120	s	s	21	4	SIC	190	ABS	1	1	02VD 02VO 02VC 02MD 10MO 02MC 02RD 02RO	0	1	0.925800800323	None	None	None	None	1
2.7	2015_Jun_11_1120	s	s	21	4	SIC	191	RC	0	2	02VD 02VO 02VC 02MD 02MO 02MC 09RD 02RO	1	0	0.529072999954	-37.0	-1.0	-42	-5	1
2.7	2015_Jun_11_1120	s	s	21	4	SIC	192	RC	1	1	02VD 02VO 02VC 02MD 09MO 02MC 02RD 02RO	1	0	1.05874300003	-162.0	274.0	-163	278	1
2.7	2015_Jun_11_1120	s	s	21	4	SIC	193	ABS	2	1	02VD 10VO 02VC 02MD 02MO 02MC 02RD 02RO	0	1	1.12941002846	None	None	None	None	1
2.7	2015_Jun_11_1120	s	s	21	4	SIC	194	ABS	1	1	02VD 02VO 02VC 02MD 10MO 02MC 02RD 02RO	0	1	1.16468214989	None	None	None	None	1
2.7	2015_Jun_11_1120	s	s	21	4	SIC	195	ABS	0	2	02VD 02VO 02VC 02MD 02MO 02MC 10RD 02RO	0	1	0.941056966782	None	None	None	None	1
2.7	2015_Jun_11_1120	s	s	21	4	SIC	196	RC	1	2	02VD 02VO 02VC 09MD 02MO 02MC 02RD 02RO	0	1	1.12441205978	-313.0	282.0	None	None	0
2.7	2015_Jun_11_1120	s	s	21	4	SIC	197	RC	0	1	02VD 02VO 02VC 02MD 02MO 02MC 02RD 09RO	1	0	0.564368963242	-120.0	193.0	-119	193	1
2.7	2015_Jun_11_1120	s	s	21	4	SIC	198	ABS	1	2	02VD 02VO 02VC 10MD 02MO 02MC 02RD 02RO	0	1	0.853380203247	None	None	None	None	1
2.7	2015_Jun_11_1120	s	s	21	4	SIC	199	ABS	2	2	10VD 02VO 02VC 02MD 02MO 02MC 02RD 02RO	0	1	0.940937995911	None	None	None	None	1
2.7	2015_Jun_11_1120	s	s	21	4	SIC	200	ABS	0	1	02VD 02VO 02VC 02MD 02MO 02MC 02RD 10RO	0	1	1.6707470417	None	None	None	None	1
2.7	2015_Jun_11_1120	s	s	21	4	SIC	201	RC	0	2	02VD 02VO 02VC 02MD 02MO 02MC 09RD 02RO	1	0	0.584458827972	-150.0	202.0	-150	186	1
2.7	2015_Jun_11_1120	s	s	21	4	SIC	202	RC	2	1	02VD 09VO 02VC 02MD 02MO 02MC 02RD 02RO	1	0	0.717345952988	-205.0	-235.0	-209	-245	1
2.7	2015_Jun_11_1120	s	s	21	4	SIC	203	RC	2	2	09VD 02VO 02VC 02MD 02MO 02MC 02RD 02RO	1	0	0.88206410408	341.0	-116.0	344	-121	1
2.7	2015_Jun_11_1120	s	s	21	4	SIC	204	ABS	1	0	02VD 02VO 02VC 02MD 02MO 10MC 02RD 02RO	0	1	1.06521010399	None	None	None	None	1
2.7	2015_Jun_11_1120	s	s	21	4	SIC	205	RC	1	0	02VD 02VO 02VC 02MD 02MO 09MC 02RD 02RO	1	0	0.670274019241	144.0	-251.0	146	-252	1
2.7	2015_Jun_11_1120	s	s	21	4	SIC	206	RC	2	0	02VD 02VO 09VC 02MD 02MO 02MC 02RD 02RO	0	1	0.794685840607	499.0	176.0	None	None	0
2.7	2015_Jun_11_1120	s	s	21	4	SIC	207	RC	1	1	02VD 02VO 02VC 02MD 09MO 02MC 02RD 02RO	0	1	0.994629859924	477.0	-340.0	None	None	0
2.7	2015_Jun_11_1120	s	s	21	4	SIC	208	ABS	2	0	02VD 02VO 10VC 02MD 02MO 02MC 02RD 02RO	0	1	1.11269903183	None	None	None	None	1
2.7	2015_Jun_11_1120	s	s	21	4	SIC	209	RC	2	2	09VD 02VO 02VC 02MD 02MO 02MC 02RD 02RO	1	0	1.13546800613	171.0	-212.0	171	-210	1
2.7	2015_Jun_11_1120	s	s	21	4	SIC	210	ABS	2	1	02VD 10VO 02VC 02MD 02MO 02MC 02RD 02RO	0	1	0.717387914658	None	None	None	None	1
2.7	2015_Jun_11_1120	s	s	21	4	SIC	211	RC	1	0	02VD 02VO 02VC 02MD 02MO 09MC 02RD 02RO	1	0	1.15967798233	216.0	411.0	222	406	1
2.7	2015_Jun_11_1120	s	s	21	4	SIC	212	RC	2	0	02VD 02VO 09VC 02MD 02MO 02MC 02RD 02RO	1	0	0.57644701004	74.0	-165.0	78	-157	1
2.7	2015_Jun_11_1120	s	s	21	4	SIC	213	RC	0	1	02VD 02VO 02VC 02MD 02MO 02MC 02RD 09RO	0	1	0.995146989822	-433.0	182.0	None	None	0
2.7	2015_Jun_11_1120	s	s	21	4	SIC	214	ABS	1	0	02VD 02VO 02VC 02MD 02MO 10MC 02RD 02RO	0	1	1.22350788116	None	None	None	None	1
2.7	2015_Jun_11_1120	s	s	21	4	SIC	215	RC	1	2	02VD 02VO 02VC 09MD 02MO 02MC 02RD 02RO	1	0	0.723594903946	-228.0	-75.0	-218	-77	1
2.7	2015_Jun_11_1120	s	s	21	4	SIC	216	ABS	0	1	02VD 02VO 02VC 02MD 02MO 02MC 02RD 10RO	0	1	1.62005996704	None	None	None	None	1
2.7	2015_Jun_11_1120	s	s	21	4	SIC	217	RC	2	1	02VD 09VO 02VC 02MD 02MO 02MC 02RD 02RO	1	0	1.00840401649	-486.0	16.0	-487	6	1
2.7	2015_Jun_11_1120	s	s	21	4	SIC	218	ABS	2	0	02VD 02VO 10VC 02MD 02MO 02MC 02RD 02RO	0	1	0.976243019104	None	None	None	None	1
2.7	2015_Jun_11_1120	s	s	21	4	SIC	219	ABS	2	2	10VD 02VO 02VC 02MD 02MO 02MC 02RD 02RO	0	1	0.912494897842	None	None	None	None	1
2.7	2015_Jun_11_1120	s	s	21	4	SIC	220	ABS	1	1	02VD 02VO 02VC 02MD 10MO 02MC 02RD 02RO	0	1	1.60695815086	None	None	None	None	1
2.7	2015_Jun_11_1120	s	s	21	4	SIC	221	RC	1	1	02VD 02VO 02VC 02MD 09MO 02MC 02RD 02RO	1	0	0.688923120499	446.0	299.0	-352	-59	0
2.7	2015_Jun_11_1120	s	s	21	4	SIC	222	ABS	0	2	02VD 02VO 02VC 02MD 02MO 02MC 10RD 02RO	0	1	1.58869290352	None	None	None	None	1
2.7	2015_Jun_11_1120	s	s	21	4	SIC	223	ABS	1	2	02VD 02VO 02VC 10MD 02MO 02MC 02RD 02RO	0	1	0.855804920197	None	None	None	None	1
2.7	2015_Jun_11_1120	s	s	21	4	SIC	224	RC	0	2	02VD 02VO 02VC 02MD 02MO 02MC 09RD 02RO	1	0	0.752656936646	-387.0	-174.0	-387	-176	1
2.7	2015_Jun_11_1120	s	s	21	4	SIC	225	ABS	0	1	02VD 02VO 02VC 02MD 02MO 02MC 02RD 10RO	0	1	2.05926609039	None	None	None	None	1
2.7	2015_Jun_11_1120	s	s	21	4	SIC	226	ABS	2	2	10VD 02VO 02VC 02MD 02MO 02MC 02RD 02RO	0	1	1.65394496918	None	None	None	None	1
2.7	2015_Jun_11_1120	s	s	21	4	SIC	227	RC	0	2	02VD 02VO 02VC 02MD 02MO 02MC 09RD 02RO	1	0	0.630009889603	-228.0	-43.0	-230	-48	1
2.7	2015_Jun_11_1120	s	s	21	4	SIC	228	RC	1	2	02VD 02VO 02VC 09MD 02MO 02MC 02RD 02RO	0	1	1.12691283226	-168.0	259.0	None	None	0
2.7	2015_Jun_11_1120	s	s	21	4	SIC	229	ABS	1	1	02VD 02VO 02VC 02MD 10MO 02MC 02RD 02RO	0	1	1.41863012314	None	None	None	None	1
2.7	2015_Jun_11_1120	s	s	21	4	SIC	230	RC	1	1	02VD 02VO 02VC 02MD 09MO 02MC 02RD 02RO	1	0	1.22355008125	539.0	103.0	537	98	1
2.7	2015_Jun_11_1120	s	s	21	4	SIC	231	RC	2	2	09VD 02VO 02VC 02MD 02MO 02MC 02RD 02RO	1	0	0.688949108124	293.0	82.0	291	85	1
2.7	2015_Jun_11_1120	s	s	21	4	SIC	232	RC	2	1	02VD 09VO 02VC 02MD 02MO 02MC 02RD 02RO	1	0	1.10073709488	-478.0	-89.0	-478	-96	1
2.7	2015_Jun_11_1120	s	s	21	4	SIC	233	RC	1	0	02VD 02VO 02VC 02MD 02MO 09MC 02RD 02RO	1	0	0.587814092636	161.0	27.0	156	26	1
2.7	2015_Jun_11_1120	s	s	21	4	SIC	234	RC	0	1	02VD 02VO 02VC 02MD 02MO 02MC 02RD 09RO	1	0	2.32500505447	457.0	1.0	464	0	1
2.7	2015_Jun_11_1120	s	s	21	4	SIC	235	ABS	1	2	02VD 02VO 02VC 10MD 02MO 02MC 02RD 02RO	1	0	1.32451605797	None	None	466	2	0
2.7	2015_Jun_11_1120	s	s	21	4	SIC	236	ABS	2	0	02VD 02VO 10VC 02MD 02MO 02MC 02RD 02RO	0	1	1.35997509956	None	None	None	None	1
2.7	2015_Jun_11_1120	s	s	21	4	SIC	237	RC	2	0	02VD 02VO 09VC 02MD 02MO 02MC 02RD 02RO	1	0	0.888782978058	-133.0	336.0	-128	325	1
2.7	2015_Jun_11_1120	s	s	21	4	SIC	238	ABS	1	0	02VD 02VO 02VC 02MD 02MO 10MC 02RD 02RO	0	1	1.78373098373	None	None	None	None	1
2.7	2015_Jun_11_1120	s	s	21	4	SIC	239	ABS	0	2	02VD 02VO 02VC 02MD 02MO 02MC 10RD 02RO	0	1	2.12411499023	None	None	None	None	1
2.7	2015_Jun_11_1120	s	s	21	4	SIC	240	ABS	2	1	02VD 10VO 02VC 02MD 02MO 02MC 02RD 02RO	0	1	0.940997838974	None	None	None	None	1
2.7	2015_Jun_11_1120	s	s	21	4	SIC	241	RC	2	0	02VD 02VO 09VC 02MD 02MO 02MC 02RD 02RO	1	0	1.69474411011	379.0	55.0	379	55	1
2.7	2015_Jun_11_1120	s	s	21	4	SIC	242	RC	1	2	02VD 02VO 02VC 09MD 02MO 02MC 02RD 02RO	0	1	2.06772899628	-47.0	135.0	None	None	0
2.7	2015_Jun_11_1120	s	s	21	4	SIC	243	RC	1	0	02VD 02VO 02VC 02MD 02MO 09MC 02RD 02RO	1	0	1.12687015533	432.0	-209.0	434	-214	1
2.7	2015_Jun_11_1120	s	s	21	4	SIC	244	RC	2	1	02VD 09VO 02VC 02MD 02MO 02MC 02RD 02RO	1	0	0.84681391716	499.0	-68.0	493	-71	1
2.7	2015_Jun_11_1120	s	s	21	4	SIC	245	ABS	1	2	02VD 02VO 02VC 10MD 02MO 02MC 02RD 02RO	0	1	1.05392289162	None	None	None	None	1
2.7	2015_Jun_11_1120	s	s	21	4	SIC	246	RC	2	2	09VD 02VO 02VC 02MD 02MO 02MC 02RD 02RO	1	0	0.623285055161	211.0	61.0	215	52	1
2.7	2015_Jun_11_1120	s	s	21	4	SIC	247	ABS	0	2	02VD 02VO 02VC 02MD 02MO 02MC 10RD 02RO	0	1	0.912549972534	None	None	None	None	1
2.7	2015_Jun_11_1120	s	s	21	4	SIC	248	RC	0	1	02VD 02VO 02VC 02MD 02MO 02MC 02RD 09RO	1	0	2.80745697021	436.0	-278.0	447	-273	1
2.7	2015_Jun_11_1120	s	s	21	4	SIC	249	ABS	1	0	02VD 02VO 02VC 02MD 02MO 10MC 02RD 02RO	0	1	1.66273713112	None	None	None	None	1
2.7	2015_Jun_11_1120	s	s	21	4	SIC	250	ABS	2	1	02VD 10VO 02VC 02MD 02MO 02MC 02RD 02RO	0	1	1.07702589035	None	None	None	None	1
2.7	2015_Jun_11_1120	s	s	21	4	SIC	251	ABS	0	1	02VD 02VO 02VC 02MD 02MO 02MC 02RD 10RO	0	1	1.6237039566	None	None	None	None	1
2.7	2015_Jun_11_1120	s	s	21	4	SIC	252	ABS	2	0	02VD 02VO 10VC 02MD 02MO 02MC 02RD 02RO	0	1	1.21171402931	None	None	None	None	1
2.7	2015_Jun_11_1120	s	s	21	4	SIC	253	RC	1	1	02VD 02VO 02VC 02MD 09MO 02MC 02RD 02RO	1	0	1.25426888466	-397.0	69.0	-392	65	1
2.7	2015_Jun_11_1120	s	s	21	4	SIC	254	ABS	1	1	02VD 02VO 02VC 02MD 10MO 02MC 02RD 02RO	0	1	1.30098199844	None	None	None	None	1
2.7	2015_Jun_11_1120	s	s	21	4	SIC	255	ABS	2	2	10VD 02VO 02VC 02MD 02MO 02MC 02RD 02RO	0	1	1.27036786079	None	None	None	None	1
2.7	2015_Jun_11_1120	s	s	21	4	SIC	256	RC	0	2	02VD 02VO 02VC 02MD 02MO 02MC 09RD 02RO	1	0	0.524078845978	-24.0	-162.0	-21	-169	1
2.7	2015_Jun_11_1120	s	s	21	4	SIC	257	ABS	1	1	02VD 02VO 02VC 02MD 10MO 02MC 02RD 02RO	0	1	0.936354875565	None	None	None	None	1
2.7	2015_Jun_11_1120	s	s	21	4	SIC	258	ABS	2	0	02VD 02VO 10VC 02MD 02MO 02MC 02RD 02RO	0	1	1.05327010155	None	None	None	None	1
2.7	2015_Jun_11_1120	s	s	21	4	SIC	259	ABS	1	2	02VD 02VO 02VC 10MD 02MO 02MC 02RD 02RO	0	1	1.1293399334	None	None	None	None	1
2.7	2015_Jun_11_1120	s	s	21	4	SIC	260	ABS	1	0	02VD 02VO 02VC 02MD 02MO 10MC 02RD 02RO	0	1	1.10254502296	None	None	None	None	1
2.7	2015_Jun_11_1120	s	s	21	4	SIC	261	ABS	0	2	02VD 02VO 02VC 02MD 02MO 02MC 10RD 02RO	0	1	1.88949990273	None	None	None	None	1
2.7	2015_Jun_11_1120	s	s	21	4	SIC	262	ABS	0	1	02VD 02VO 02VC 02MD 02MO 02MC 02RD 10RO	0	1	2.18614602089	None	None	None	None	1
2.7	2015_Jun_11_1120	s	s	21	4	SIC	263	RC	2	1	02VD 09VO 02VC 02MD 02MO 02MC 02RD 02RO	1	0	0.858616113663	-285.0	-343.0	-281	-346	1
2.7	2015_Jun_11_1120	s	s	21	4	SIC	264	RC	1	0	02VD 02VO 02VC 02MD 02MO 09MC 02RD 02RO	0	1	0.682114124298	182.0	-368.0	None	None	0
2.7	2015_Jun_11_1120	s	s	21	4	SIC	265	ABS	2	2	10VD 02VO 02VC 02MD 02MO 02MC 02RD 02RO	0	1	1.4544301033	None	None	None	None	1
2.7	2015_Jun_11_1120	s	s	21	4	SIC	266	RC	1	1	02VD 02VO 02VC 02MD 09MO 02MC 02RD 02RO	1	0	2.21221494675	-420.0	262.0	-422	263	1
2.7	2015_Jun_11_1120	s	s	21	4	SIC	267	RC	2	2	09VD 02VO 02VC 02MD 02MO 02MC 02RD 02RO	1	0	1.28237295151	63.0	349.0	60	348	1
2.7	2015_Jun_11_1120	s	s	21	4	SIC	268	RC	1	2	02VD 02VO 02VC 09MD 02MO 02MC 02RD 02RO	1	0	0.870352983475	-353.0	111.0	-358	110	1
2.7	2015_Jun_11_1120	s	s	21	4	SIC	269	RC	2	0	02VD 02VO 09VC 02MD 02MO 02MC 02RD 02RO	1	0	1.35285186768	64.0	345.0	68	349	1
2.7	2015_Jun_11_1120	s	s	21	4	SIC	270	RC	0	2	02VD 02VO 02VC 02MD 02MO 02MC 09RD 02RO	1	0	1.353069067	-357.0	-365.0	-362	-365	1
2.7	2015_Jun_11_1120	s	s	21	4	SIC	271	RC	0	1	02VD 02VO 02VC 02MD 02MO 02MC 02RD 09RO	1	0	0.776197910309	233.0	175.0	233	175	1
2.7	2015_Jun_11_1120	s	s	21	4	SIC	272	ABS	2	1	02VD 10VO 02VC 02MD 02MO 02MC 02RD 02RO	0	1	0.982918977737	None	None	None	None	1
2.7	2015_Jun_11_1120	s	s	21	4	SIC	273	ABS	0	1	02VD 02VO 02VC 02MD 02MO 02MC 02RD 10RO	0	1	1.4443218708	None	None	None	None	1
2.7	2015_Jun_11_1120	s	s	21	4	SIC	274	RC	2	1	02VD 09VO 02VC 02MD 02MO 02MC 02RD 02RO	1	0	0.688844203949	-403.0	-67.0	-403	-70	1
2.7	2015_Jun_11_1120	s	s	21	4	SIC	275	RC	0	2	02VD 02VO 02VC 02MD 02MO 02MC 09RD 02RO	1	0	0.903106927872	59.0	-268.0	69	-261	1
2.7	2015_Jun_11_1120	s	s	21	4	SIC	276	ABS	1	0	02VD 02VO 02VC 02MD 02MO 10MC 02RD 02RO	0	1	1.4421350956	None	None	None	None	1
2.7	2015_Jun_11_1120	s	s	21	4	SIC	277	RC	2	2	09VD 02VO 02VC 02MD 02MO 02MC 02RD 02RO	0	1	0.788059949875	-404.0	273.0	None	None	0
2.7	2015_Jun_11_1120	s	s	21	4	SIC	278	RC	1	1	02VD 02VO 02VC 02MD 09MO 02MC 02RD 02RO	1	0	1.7414329052	-522.0	72.0	-516	75	1
2.7	2015_Jun_11_1120	s	s	21	4	SIC	279	ABS	2	2	10VD 02VO 02VC 02MD 02MO 02MC 02RD 02RO	0	1	0.996515035629	None	None	None	None	1
2.7	2015_Jun_11_1120	s	s	21	4	SIC	280	ABS	1	1	02VD 02VO 02VC 02MD 10MO 02MC 02RD 02RO	0	1	1.23242902756	None	None	None	None	1
2.7	2015_Jun_11_1120	s	s	21	4	SIC	281	RC	1	0	02VD 02VO 02VC 02MD 02MO 09MC 02RD 02RO	1	0	0.634985923767	-24.0	205.0	-27	210	1
2.7	2015_Jun_11_1120	s	s	21	4	SIC	282	RC	0	1	02VD 02VO 02VC 02MD 02MO 02MC 02RD 09RO	0	1	1.3177280426	343.0	-239.0	None	None	0
2.7	2015_Jun_11_1120	s	s	21	4	SIC	283	RC	1	2	02VD 02VO 02VC 09MD 02MO 02MC 02RD 02RO	1	0	1.24214315414	472.0	306.0	467	300	1
2.7	2015_Jun_11_1120	s	s	21	4	SIC	284	RC	2	0	02VD 02VO 09VC 02MD 02MO 02MC 02RD 02RO	1	0	0.571439027786	55.0	-64.0	55	-65	1
2.7	2015_Jun_11_1120	s	s	21	4	SIC	285	ABS	2	1	02VD 10VO 02VC 02MD 02MO 02MC 02RD 02RO	0	1	1.03520703316	None	None	None	None	1
2.7	2015_Jun_11_1120	s	s	21	4	SIC	286	ABS	1	2	02VD 02VO 02VC 10MD 02MO 02MC 02RD 02RO	0	1	1.04240298271	None	None	None	None	1
2.7	2015_Jun_11_1120	s	s	21	4	SIC	287	ABS	0	2	02VD 02VO 02VC 02MD 02MO 02MC 10RD 02RO	0	1	1.00655198097	None	None	None	None	1
2.7	2015_Jun_11_1120	s	s	21	4	SIC	288	ABS	2	0	02VD 02VO 10VC 02MD 02MO 02MC 02RD 02RO	0	1	1.25407791138	None	None	None	None	1
2.7	2015_Jun_11_1120	s	s	21	4	SIC	289	ABS	2	1	02VD 10VO 02VC 02MD 02MO 02MC 02RD 02RO	0	1	1.01864290237	None	None	None	None	1
2.7	2015_Jun_11_1120	s	s	21	4	SIC	290	RC	2	1	02VD 09VO 02VC 02MD 02MO 02MC 02RD 02RO	1	0	0.729401111603	82.0	-69.0	77	-67	1
2.7	2015_Jun_11_1120	s	s	21	4	SIC	291	ABS	1	0	02VD 02VO 02VC 02MD 02MO 10MC 02RD 02RO	0	1	1.16519117355	None	None	None	None	1
2.7	2015_Jun_11_1120	s	s	21	4	SIC	292	ABS	0	1	02VD 02VO 02VC 02MD 02MO 02MC 02RD 10RO	0	1	1.659085989	None	None	None	None	1
2.7	2015_Jun_11_1120	s	s	21	4	SIC	293	RC	2	2	09VD 02VO 02VC 02MD 02MO 02MC 02RD 02RO	1	0	0.759490966797	-47.0	-150.0	-55	-152	1
2.7	2015_Jun_11_1120	s	s	21	4	SIC	294	RC	1	1	02VD 02VO 02VC 02MD 09MO 02MC 02RD 02RO	0	1	0.736153841019	-429.0	175.0	None	None	0
2.7	2015_Jun_11_1120	s	s	21	4	SIC	295	RC	0	2	02VD 02VO 02VC 02MD 02MO 02MC 09RD 02RO	1	0	1.17641592026	122.0	-334.0	127	-332	1
2.7	2015_Jun_11_1120	s	s	21	4	SIC	296	ABS	2	0	02VD 02VO 10VC 02MD 02MO 02MC 02RD 02RO	0	1	0.95282292366	None	None	None	None	1
2.7	2015_Jun_11_1120	s	s	21	4	SIC	297	RC	0	1	02VD 02VO 02VC 02MD 02MO 02MC 02RD 09RO	1	0	0.69386100769	-73.0	-40.0	-67	-43	1
2.7	2015_Jun_11_1120	s	s	21	4	SIC	298	ABS	1	1	02VD 02VO 02VC 02MD 10MO 02MC 02RD 02RO	0	1	0.820599079132	None	None	None	None	1
2.7	2015_Jun_11_1120	s	s	21	4	SIC	299	ABS	2	2	10VD 02VO 02VC 02MD 02MO 02MC 02RD 02RO	0	1	0.806341171265	None	None	None	None	1
2.7	2015_Jun_11_1120	s	s	21	4	SIC	300	ABS	0	2	02VD 02VO 02VC 02MD 02MO 02MC 10RD 02RO	0	1	1.10574007034	None	None	None	None	1
2.7	2015_Jun_11_1120	s	s	21	4	SIC	301	RC	1	2	02VD 02VO 02VC 09MD 02MO 02MC 02RD 02RO	1	0	0.653056144714	-95.0	157.0	-95	138	1
2.7	2015_Jun_11_1120	s	s	21	4	SIC	302	ABS	1	2	02VD 02VO 02VC 10MD 02MO 02MC 02RD 02RO	0	1	0.947620868683	None	None	None	None	1
2.7	2015_Jun_11_1120	s	s	21	4	SIC	303	RC	1	0	02VD 02VO 02VC 02MD 02MO 09MC 02RD 02RO	1	0	0.54696893692	-69.0	-103.0	-61	-101	1
2.7	2015_Jun_11_1120	s	s	21	4	SIC	304	RC	2	0	02VD 02VO 09VC 02MD 02MO 02MC 02RD 02RO	0	1	1.17315006256	263.0	370.0	None	None	0
2.7	2015_Jun_11_1120	s	s	21	4	SIC	305	ABS	2	0	02VD 02VO 10VC 02MD 02MO 02MC 02RD 02RO	0	1	0.788303136826	None	None	None	None	1
2.7	2015_Jun_11_1120	s	s	21	4	SIC	306	RC	2	0	02VD 02VO 09VC 02MD 02MO 02MC 02RD 02RO	1	0	1.30044007301	-404.0	-395.0	-411	-398	1
2.7	2015_Jun_11_1120	s	s	21	4	SIC	307	RC	0	2	02VD 02VO 02VC 02MD 02MO 02MC 09RD 02RO	1	0	1.09431505203	174.0	-348.0	173	-354	1
2.7	2015_Jun_11_1120	s	s	21	4	SIC	308	RC	1	2	02VD 02VO 02VC 09MD 02MO 02MC 02RD 02RO	1	0	0.470206022263	-88.0	-111.0	-91	-108	1
2.7	2015_Jun_11_1120	s	s	21	4	SIC	309	RC	0	1	02VD 02VO 02VC 02MD 02MO 02MC 02RD 09RO	0	1	1.39544916153	-67.0	264.0	None	None	0
2.7	2015_Jun_11_1120	s	s	21	4	SIC	310	ABS	0	1	02VD 02VO 02VC 02MD 02MO 02MC 02RD 10RO	0	1	1.11318898201	None	None	None	None	1
2.7	2015_Jun_11_1120	s	s	21	4	SIC	311	RC	2	2	09VD 02VO 02VC 02MD 02MO 02MC 02RD 02RO	1	0	0.6550989151	-91.0	-116.0	-92	-126	1
2.7	2015_Jun_11_1120	s	s	21	4	SIC	312	RC	1	0	02VD 02VO 02VC 02MD 02MO 09MC 02RD 02RO	1	0	1.80694794655	330.0	-90.0	329	-87	1
2.7	2015_Jun_11_1120	s	s	21	4	SIC	313	ABS	1	2	02VD 02VO 02VC 10MD 02MO 02MC 02RD 02RO	0	1	1.39663386345	None	None	None	None	1
2.7	2015_Jun_11_1120	s	s	21	4	SIC	314	ABS	2	2	10VD 02VO 02VC 02MD 02MO 02MC 02RD 02RO	0	1	1.15289497375	None	None	None	None	1
2.7	2015_Jun_11_1120	s	s	21	4	SIC	315	ABS	1	1	02VD 02VO 02VC 02MD 10MO 02MC 02RD 02RO	0	1	0.829973936081	None	None	None	None	1
2.7	2015_Jun_11_1120	s	s	21	4	SIC	316	ABS	1	0	02VD 02VO 02VC 02MD 02MO 10MC 02RD 02RO	0	1	1.1095058918	None	None	None	None	1
2.7	2015_Jun_11_1120	s	s	21	4	SIC	317	RC	1	1	02VD 02VO 02VC 02MD 09MO 02MC 02RD 02RO	1	0	1.91303396225	301.0	360.0	304	358	1
2.7	2015_Jun_11_1120	s	s	21	4	SIC	318	RC	2	1	02VD 09VO 02VC 02MD 02MO 02MC 02RD 02RO	0	1	1.01849007607	210.0	399.0	None	None	0
2.7	2015_Jun_11_1120	s	s	21	4	SIC	319	ABS	2	1	02VD 10VO 02VC 02MD 02MO 02MC 02RD 02RO	0	1	1.69433689117	None	None	None	None	1
2.7	2015_Jun_11_1120	s	s	21	4	SIC	320	ABS	0	2	02VD 02VO 02VC 02MD 02MO 02MC 10RD 02RO	0	1	1.39536595345	None	None	None	None	1
2.7	2015_Jun_11_1120	s	s	21	4	SIC	321	ABS	1	0	02VD 02VO 02VC 02MD 02MO 10MC 02RD 02RO	0	1	2.07140207291	None	None	None	None	1
2.7	2015_Jun_11_1120	s	s	21	4	SIC	322	ABS	1	1	02VD 02VO 02VC 02MD 10MO 02MC 02RD 02RO	0	1	1.26682782173	None	None	None	None	1
2.7	2015_Jun_11_1120	s	s	21	4	SIC	323	RC	2	2	09VD 02VO 02VC 02MD 02MO 02MC 02RD 02RO	0	1	0.980036973953	453.0	195.0	None	None	0
2.7	2015_Jun_11_1120	s	s	21	4	SIC	324	ABS	0	2	02VD 02VO 02VC 02MD 02MO 02MC 10RD 02RO	0	1	1.82380104065	None	None	None	None	1
2.7	2015_Jun_11_1120	s	s	21	4	SIC	325	RC	1	2	02VD 02VO 02VC 09MD 02MO 02MC 02RD 02RO	1	0	0.611454963684	-156.0	174.0	-155	160	1
2.7	2015_Jun_11_1120	s	s	21	4	SIC	326	RC	1	1	02VD 02VO 02VC 02MD 09MO 02MC 02RD 02RO	1	0	1.11296010017	343.0	-146.0	347	-155	1
2.7	2015_Jun_11_1120	s	s	21	4	SIC	327	ABS	1	2	02VD 02VO 02VC 10MD 02MO 02MC 02RD 02RO	0	1	1.47734594345	None	None	None	None	1
2.7	2015_Jun_11_1120	s	s	21	4	SIC	328	ABS	2	0	02VD 02VO 10VC 02MD 02MO 02MC 02RD 02RO	0	1	1.46566700935	None	None	None	None	1
2.7	2015_Jun_11_1120	s	s	21	4	SIC	329	RC	2	0	02VD 02VO 09VC 02MD 02MO 02MC 02RD 02RO	1	0	0.862332820892	-64.0	-97.0	-67	-103	1
2.7	2015_Jun_11_1120	s	s	21	4	SIC	330	RC	0	1	02VD 02VO 02VC 02MD 02MO 02MC 02RD 09RO	1	0	1.45132303238	-412.0	8.0	-412	-1	1
2.7	2015_Jun_11_1120	s	s	21	4	SIC	331	ABS	0	1	02VD 02VO 02VC 02MD 02MO 02MC 02RD 10RO	0	1	1.04703998566	None	None	None	None	1
2.7	2015_Jun_11_1120	s	s	21	4	SIC	332	RC	2	1	02VD 09VO 02VC 02MD 02MO 02MC 02RD 02RO	1	0	1.31191205978	-427.0	345.0	-78	-299	0
2.7	2015_Jun_11_1120	s	s	21	4	SIC	333	ABS	2	2	10VD 02VO 02VC 02MD 02MO 02MC 02RD 02RO	0	1	1.09770703316	None	None	None	None	1
2.7	2015_Jun_11_1120	s	s	21	4	SIC	334	ABS	2	1	02VD 10VO 02VC 02MD 02MO 02MC 02RD 02RO	0	1	2.0945289135	None	None	None	None	1
2.7	2015_Jun_11_1120	s	s	21	4	SIC	335	RC	1	0	02VD 02VO 02VC 02MD 02MO 09MC 02RD 02RO	1	0	2.90673184395	-30.0	296.0	-24	299	1
2.7	2015_Jun_11_1120	s	s	21	4	SIC	336	RC	0	2	02VD 02VO 02VC 02MD 02MO 02MC 09RD 02RO	1	0	1.23525214195	469.0	-3.0	468	1	1
2.7	2015_Jun_11_1120	s	s	21	4	SIC	337	RC	2	1	02VD 09VO 02VC 02MD 02MO 02MC 02RD 02RO	0	1	1.11756706238	252.0	229.0	None	None	0
2.7	2015_Jun_11_1120	s	s	21	4	SIC	338	RC	1	0	02VD 02VO 02VC 02MD 02MO 09MC 02RD 02RO	1	0	0.917488098145	-447.0	353.0	-450	350	1
2.7	2015_Jun_11_1120	s	s	21	4	SIC	339	RC	1	2	02VD 02VO 02VC 09MD 02MO 02MC 02RD 02RO	1	0	0.77622795105	-314.0	396.0	-318	395	1
2.7	2015_Jun_11_1120	s	s	21	4	SIC	340	ABS	0	2	02VD 02VO 02VC 02MD 02MO 02MC 10RD 02RO	0	1	1.41185593605	None	None	None	None	1
2.7	2015_Jun_11_1120	s	s	21	4	SIC	341	ABS	2	1	02VD 10VO 02VC 02MD 02MO 02MC 02RD 02RO	0	1	1.19999098778	None	None	None	None	1
2.7	2015_Jun_11_1120	s	s	21	4	SIC	342	ABS	0	1	02VD 02VO 02VC 02MD 02MO 02MC 02RD 10RO	0	1	1.61193013191	None	None	None	None	1
2.7	2015_Jun_11_1120	s	s	21	4	SIC	343	ABS	1	0	02VD 02VO 02VC 02MD 02MO 10MC 02RD 02RO	0	1	1.76483917236	None	None	None	None	1
2.7	2015_Jun_11_1120	s	s	21	4	SIC	344	RC	0	1	02VD 02VO 02VC 02MD 02MO 02MC 02RD 09RO	1	0	0.858659029007	-190.0	113.0	-197	106	1
2.7	2015_Jun_11_1120	s	s	21	4	SIC	345	RC	2	0	02VD 02VO 09VC 02MD 02MO 02MC 02RD 02RO	1	0	0.653324842453	-226.0	-80.0	-221	-82	1
2.7	2015_Jun_11_1120	s	s	21	4	SIC	346	ABS	1	2	02VD 02VO 02VC 10MD 02MO 02MC 02RD 02RO	0	1	1.10096502304	None	None	None	None	1
2.7	2015_Jun_11_1120	s	s	21	4	SIC	347	RC	0	2	02VD 02VO 02VC 02MD 02MO 02MC 09RD 02RO	1	0	1.23029994965	110.0	-252.0	112	-250	1
2.7	2015_Jun_11_1120	s	s	21	4	SIC	348	ABS	2	0	02VD 02VO 10VC 02MD 02MO 02MC 02RD 02RO	0	1	1.29156303406	None	None	None	None	1
2.7	2015_Jun_11_1120	s	s	21	4	SIC	349	RC	1	1	02VD 02VO 02VC 02MD 09MO 02MC 02RD 02RO	1	0	0.877485990524	-378.0	-184.0	-385	-183	1
2.7	2015_Jun_11_1120	s	s	21	4	SIC	350	ABS	2	2	10VD 02VO 02VC 02MD 02MO 02MC 02RD 02RO	0	1	0.914855003357	None	None	None	None	1
2.7	2015_Jun_11_1120	s	s	21	4	SIC	351	ABS	1	1	02VD 02VO 02VC 02MD 10MO 02MC 02RD 02RO	0	1	0.994868040085	None	None	None	None	1
2.7	2015_Jun_11_1120	s	s	21	4	SIC	352	RC	2	2	09VD 02VO 02VC 02MD 02MO 02MC 02RD 02RO	1	0	0.583510160446	57.0	182.0	61	173	1
2.7	2015_Jun_11_1120	s	s	21	4	SIC	353	RC	2	1	02VD 09VO 02VC 02MD 02MO 02MC 02RD 02RO	0	1	0.903136014938	376.0	-308.0	None	None	0
2.7	2015_Jun_11_1120	s	s	21	4	SIC	354	ABS	0	2	02VD 02VO 02VC 02MD 02MO 02MC 10RD 02RO	0	1	0.776085138321	None	None	None	None	1
2.7	2015_Jun_11_1120	s	s	21	4	SIC	355	ABS	1	1	02VD 02VO 02VC 02MD 10MO 02MC 02RD 02RO	0	1	0.853952169418	None	None	None	None	1
2.7	2015_Jun_11_1120	s	s	21	4	SIC	356	ABS	1	0	02VD 02VO 02VC 02MD 02MO 10MC 02RD 02RO	0	1	1.560754776	None	None	None	None	1
2.7	2015_Jun_11_1120	s	s	21	4	SIC	357	ABS	2	1	02VD 10VO 02VC 02MD 02MO 02MC 02RD 02RO	0	1	1.06511211395	None	None	None	None	1
2.7	2015_Jun_11_1120	s	s	21	4	SIC	358	RC	0	2	02VD 02VO 02VC 02MD 02MO 02MC 09RD 02RO	0	1	1.27059102058	395.0	216.0	None	None	0
2.7	2015_Jun_11_1120	s	s	21	4	SIC	359	RC	1	1	02VD 02VO 02VC 02MD 09MO 02MC 02RD 02RO	1	0	0.606313228607	-7.0	-20.0	-5	-31	1
2.7	2015_Jun_11_1120	s	s	21	4	SIC	360	RC	1	0	02VD 02VO 02VC 02MD 02MO 09MC 02RD 02RO	1	0	1.09408807755	-116.0	-353.0	-113	-358	1
2.7	2015_Jun_11_1120	s	s	21	4	SIC	361	RC	2	2	09VD 02VO 02VC 02MD 02MO 02MC 02RD 02RO	1	0	0.865478992462	436.0	-243.0	432	-243	1
2.7	2015_Jun_11_1120	s	s	21	4	SIC	362	ABS	2	2	10VD 02VO 02VC 02MD 02MO 02MC 02RD 02RO	0	1	1.26425099373	None	None	None	None	1
2.7	2015_Jun_11_1120	s	s	21	4	SIC	363	ABS	0	1	02VD 02VO 02VC 02MD 02MO 02MC 02RD 10RO	0	1	0.867467880249	None	None	None	None	1
2.7	2015_Jun_11_1120	s	s	21	4	SIC	364	RC	1	2	02VD 02VO 02VC 09MD 02MO 02MC 02RD 02RO	1	0	1.12442994118	-331.0	-369.0	-334	-370	1
2.7	2015_Jun_11_1120	s	s	21	4	SIC	365	ABS	2	0	02VD 02VO 10VC 02MD 02MO 02MC 02RD 02RO	0	1	1.48247504234	None	None	None	None	1
2.7	2015_Jun_11_1120	s	s	21	4	SIC	366	ABS	1	2	02VD 02VO 02VC 10MD 02MO 02MC 02RD 02RO	0	1	1.14111876488	None	None	None	None	1
2.7	2015_Jun_11_1120	s	s	21	4	SIC	367	RC	0	1	02VD 02VO 02VC 02MD 02MO 02MC 02RD 09RO	0	1	2.77399897575	-405.0	310.0	None	None	0
2.7	2015_Jun_11_1120	s	s	21	4	SIC	368	RC	2	0	02VD 02VO 09VC 02MD 02MO 02MC 02RD 02RO	0	1	1.50119400024	-340.0	-32.0	None	None	0
2.7	2015_Jun_11_1120	s	s	21	4	SIC	369	ABS	1	0	02VD 02VO 02VC 02MD 02MO 10MC 02RD 02RO	0	1	1.4775891304	None	None	None	None	1
2.7	2015_Jun_11_1120	s	s	21	4	SIC	370	RC	0	2	02VD 02VO 02VC 02MD 02MO 02MC 09RD 02RO	1	0	1.67758584023	518.0	-151.0	521	-149	1
2.7	2015_Jun_11_1120	s	s	21	4	SIC	371	RC	0	1	02VD 02VO 02VC 02MD 02MO 02MC 02RD 09RO	1	0	1.42109084129	-498.0	92.0	-495	86	1
2.7	2015_Jun_11_1120	s	s	21	4	SIC	372	RC	1	1	02VD 02VO 02VC 02MD 09MO 02MC 02RD 02RO	1	0	0.665349960327	-381.0	-125.0	-376	-119	1
2.7	2015_Jun_11_1120	s	s	21	4	SIC	373	ABS	0	1	02VD 02VO 02VC 02MD 02MO 02MC 02RD 10RO	0	1	1.64195013046	None	None	None	None	1
2.7	2015_Jun_11_1120	s	s	21	4	SIC	374	RC	1	0	02VD 02VO 02VC 02MD 02MO 09MC 02RD 02RO	1	0	0.905783176422	179.0	-208.0	179	-212	1
2.7	2015_Jun_11_1120	s	s	21	4	SIC	375	RC	1	2	02VD 02VO 02VC 09MD 02MO 02MC 02RD 02RO	0	1	1.6590628624	-488.0	269.0	None	None	0
2.7	2015_Jun_11_1120	s	s	21	4	SIC	376	RC	2	1	02VD 09VO 02VC 02MD 02MO 02MC 02RD 02RO	1	0	1.31335997581	282.0	283.0	281	284	1
2.7	2015_Jun_11_1120	s	s	21	4	SIC	377	ABS	1	2	02VD 02VO 02VC 10MD 02MO 02MC 02RD 02RO	0	1	1.07731199265	None	None	None	None	1
2.7	2015_Jun_11_1120	s	s	21	4	SIC	378	ABS	2	0	02VD 02VO 10VC 02MD 02MO 02MC 02RD 02RO	1	0	1.14766287804	None	None	251	-227	0
2.7	2015_Jun_11_1120	s	s	21	4	SIC	379	RC	2	2	09VD 02VO 02VC 02MD 02MO 02MC 02RD 02RO	1	0	1.15287089348	250.0	163.0	246	163	1
2.7	2015_Jun_11_1120	s	s	21	4	SIC	380	ABS	1	1	02VD 02VO 02VC 02MD 10MO 02MC 02RD 02RO	0	1	1.28230690956	None	None	None	None	1
2.7	2015_Jun_11_1120	s	s	21	4	SIC	381	ABS	0	2	02VD 02VO 02VC 02MD 02MO 02MC 10RD 02RO	0	1	0.971287965775	None	None	None	None	1
2.7	2015_Jun_11_1120	s	s	21	4	SIC	382	ABS	2	1	02VD 10VO 02VC 02MD 02MO 02MC 02RD 02RO	0	1	1.00027990341	None	None	None	None	1
2.7	2015_Jun_11_1120	s	s	21	4	SIC	383	RC	2	0	02VD 02VO 09VC 02MD 02MO 02MC 02RD 02RO	1	0	0.615481853485	-12.0	-182.0	-13	-186	1
2.7	2015_Jun_11_1120	s	s	21	4	SIC	384	ABS	2	2	10VD 02VO 02VC 02MD 02MO 02MC 02RD 02RO	0	1	0.752716064453	None	None	None	None	1
2.7	2015_Jun_11_1120	s	s	21	4	SIC	385	ABS	0	1	02VD 02VO 02VC 02MD 02MO 02MC 02RD 10RO	0	1	1.46563887596	None	None	None	None	1
2.7	2015_Jun_11_1120	s	s	21	4	SIC	386	ABS	1	1	02VD 02VO 02VC 02MD 10MO 02MC 02RD 02RO	0	1	1.03012800217	None	None	None	None	1
2.7	2015_Jun_11_1120	s	s	21	4	SIC	387	RC	2	2	09VD 02VO 02VC 02MD 02MO 02MC 02RD 02RO	0	1	0.912494897842	-189.0	272.0	None	None	0
2.7	2015_Jun_11_1120	s	s	21	4	SIC	388	ABS	2	0	02VD 02VO 10VC 02MD 02MO 02MC 02RD 02RO	0	1	0.717394828796	None	None	None	None	1
2.7	2015_Jun_11_1120	s	s	21	4	SIC	389	RC	0	2	02VD 02VO 02VC 02MD 02MO 02MC 09RD 02RO	0	1	1.16214895248	-451.0	-404.0	None	None	0
2.7	2015_Jun_11_1120	s	s	21	4	SIC	390	RC	1	2	02VD 02VO 02VC 09MD 02MO 02MC 02RD 02RO	0	1	0.673995018005	407.0	-286.0	None	None	0
2.7	2015_Jun_11_1120	s	s	21	4	SIC	391	ABS	1	2	02VD 02VO 02VC 10MD 02MO 02MC 02RD 02RO	0	1	1.00680804253	None	None	None	None	1
2.7	2015_Jun_11_1120	s	s	21	4	SIC	392	RC	2	0	02VD 02VO 09VC 02MD 02MO 02MC 02RD 02RO	0	1	0.983006954193	-436.0	-400.0	None	None	0
2.7	2015_Jun_11_1120	s	s	21	4	SIC	393	ABS	0	2	02VD 02VO 02VC 02MD 02MO 02MC 10RD 02RO	0	1	1.29179000854	None	None	None	None	1
2.7	2015_Jun_11_1120	s	s	21	4	SIC	394	ABS	1	0	02VD 02VO 02VC 02MD 02MO 10MC 02RD 02RO	0	1	1.57164597511	None	None	None	None	1
2.7	2015_Jun_11_1120	s	s	21	4	SIC	395	ABS	2	2	10VD 02VO 02VC 02MD 02MO 02MC 02RD 02RO	0	1	1.43539690971	None	None	None	None	1
2.7	2015_Jun_11_1120	s	s	21	4	SIC	396	RC	2	1	02VD 09VO 02VC 02MD 02MO 02MC 02RD 02RO	1	0	0.917437076569	-528.0	-2.0	-523	-4	1
2.7	2015_Jun_11_1120	s	s	21	4	SIC	397	RC	1	0	02VD 02VO 02VC 02MD 02MO 09MC 02RD 02RO	1	0	0.493749141693	-89.0	52.0	-82	48	1
2.7	2015_Jun_11_1120	s	s	21	4	SIC	398	RC	0	1	02VD 02VO 02VC 02MD 02MO 02MC 02RD 09RO	0	1	2.05479097366	264.0	-242.0	None	None	0
2.7	2015_Jun_11_1120	s	s	21	4	SIC	399	ABS	2	1	02VD 10VO 02VC 02MD 02MO 02MC 02RD 02RO	0	1	1.78597187996	None	None	None	None	1
2.7	2015_Jun_11_1120	s	s	21	4	SIC	400	RC	1	1	02VD 02VO 02VC 02MD 09MO 02MC 02RD 02RO	0	1	0.958617925644	-257.0	-11.0	None	None	0
2.7	2015_Jun_11_1120	s	s	21	4	SIC	401	RC	0	2	02VD 02VO 02VC 02MD 02MO 02MC 09RD 02RO	0	1	0.929322004318	38.0	-399.0	None	None	0
2.7	2015_Jun_11_1120	s	s	21	4	SIC	402	RC	0	1	02VD 02VO 02VC 02MD 02MO 02MC 02RD 09RO	1	0	1.42371702194	-380.0	234.0	-376	226	1
2.7	2015_Jun_11_1120	s	s	21	4	SIC	403	ABS	2	2	10VD 02VO 02VC 02MD 02MO 02MC 02RD 02RO	0	1	0.90561580658	None	None	None	None	1
2.7	2015_Jun_11_1120	s	s	21	4	SIC	404	RC	2	2	09VD 02VO 02VC 02MD 02MO 02MC 02RD 02RO	1	0	1.52954697609	317.0	-379.0	324	-381	1
2.7	2015_Jun_11_1120	s	s	21	4	SIC	405	ABS	1	2	02VD 02VO 02VC 10MD 02MO 02MC 02RD 02RO	0	1	1.0080909729	None	None	None	None	1
2.7	2015_Jun_11_1120	s	s	21	4	SIC	406	ABS	1	0	02VD 02VO 02VC 02MD 02MO 10MC 02RD 02RO	1	0	1.48620295525	None	None	-75	-20	0
2.7	2015_Jun_11_1120	s	s	21	4	SIC	407	ABS	1	1	02VD 02VO 02VC 02MD 10MO 02MC 02RD 02RO	0	1	2.07780408859	None	None	None	None	1
2.7	2015_Jun_11_1120	s	s	21	4	SIC	408	RC	2	0	02VD 02VO 09VC 02MD 02MO 02MC 02RD 02RO	1	0	0.994940042496	317.0	-228.0	322	-233	1
2.7	2015_Jun_11_1120	s	s	21	4	SIC	409	RC	1	2	02VD 02VO 02VC 09MD 02MO 02MC 02RD 02RO	1	0	1.04121899605	140.0	409.0	144	409	1
2.7	2015_Jun_11_1120	s	s	21	4	SIC	410	RC	2	1	02VD 09VO 02VC 02MD 02MO 02MC 02RD 02RO	1	0	1.13691282272	266.0	284.0	272	286	1
2.7	2015_Jun_11_1120	s	s	21	4	SIC	411	ABS	2	1	02VD 10VO 02VC 02MD 02MO 02MC 02RD 02RO	0	1	1.3882830143	None	None	None	None	1
2.7	2015_Jun_11_1120	s	s	21	4	SIC	412	ABS	2	0	02VD 02VO 10VC 02MD 02MO 02MC 02RD 02RO	0	1	0.964463949203	None	None	None	None	1
2.7	2015_Jun_11_1120	s	s	21	4	SIC	413	ABS	0	1	02VD 02VO 02VC 02MD 02MO 02MC 02RD 10RO	0	1	2.17695617676	None	None	None	None	1
2.7	2015_Jun_11_1120	s	s	21	4	SIC	414	ABS	0	2	02VD 02VO 02VC 02MD 02MO 02MC 10RD 02RO	0	1	1.07054305077	None	None	None	None	1
2.7	2015_Jun_11_1120	s	s	21	4	SIC	415	RC	1	0	02VD 02VO 02VC 02MD 02MO 09MC 02RD 02RO	1	0	0.88220500946	244.0	0.0	245	-6	1
2.7	2015_Jun_11_1120	s	s	21	4	SIC	416	RC	1	1	02VD 02VO 02VC 02MD 09MO 02MC 02RD 02RO	1	0	0.7526679039	-151.0	-254.0	-146	-263	1
2.7	2015_Jun_11_1120	s	s	21	4	SIC	417	RC	2	0	02VD 02VO 09VC 02MD 02MO 02MC 02RD 02RO	1	0	0.952740192413	-325.0	-293.0	-323	-297	1
2.7	2015_Jun_11_1120	s	s	21	4	SIC	418	ABS	1	1	02VD 02VO 02VC 02MD 10MO 02MC 02RD 02RO	0	1	1.07051801682	None	None	None	None	1
2.7	2015_Jun_11_1120	s	s	21	4	SIC	419	ABS	2	0	02VD 02VO 10VC 02MD 02MO 02MC 02RD 02RO	0	1	0.914777994156	None	None	None	None	1
2.7	2015_Jun_11_1120	s	s	21	4	SIC	420	RC	0	1	02VD 02VO 02VC 02MD 02MO 02MC 02RD 09RO	1	0	1.37143802643	-323.0	-161.0	-329	-165	1
2.7	2015_Jun_11_1120	s	s	21	4	SIC	421	RC	0	2	02VD 02VO 02VC 02MD 02MO 02MC 09RD 02RO	1	0	1.09410595894	444.0	225.0	454	224	1
2.7	2015_Jun_11_1120	s	s	21	4	SIC	422	RC	1	2	02VD 02VO 02VC 09MD 02MO 02MC 02RD 02RO	1	0	0.595214128494	300.0	36.0	298	36	1
2.7	2015_Jun_11_1120	s	s	21	4	SIC	423	RC	2	1	02VD 09VO 02VC 02MD 02MO 02MC 02RD 02RO	1	0	0.617701053619	231.0	170.0	233	164	1
2.7	2015_Jun_11_1120	s	s	21	4	SIC	424	RC	1	0	02VD 02VO 02VC 02MD 02MO 09MC 02RD 02RO	1	0	1.560090065	393.0	-218.0	397	-220	1
2.7	2015_Jun_11_1120	s	s	21	4	SIC	425	ABS	2	2	10VD 02VO 02VC 02MD 02MO 02MC 02RD 02RO	0	1	1.10095095634	None	None	None	None	1
2.7	2015_Jun_11_1120	s	s	21	4	SIC	426	RC	1	1	02VD 02VO 02VC 02MD 09MO 02MC 02RD 02RO	0	1	1.33624601364	528.0	312.0	None	None	0
2.7	2015_Jun_11_1120	s	s	21	4	SIC	427	RC	2	2	09VD 02VO 02VC 02MD 02MO 02MC 02RD 02RO	1	0	0.724245071411	-264.0	36.0	-263	39	1
2.7	2015_Jun_11_1120	s	s	21	4	SIC	428	ABS	0	1	02VD 02VO 02VC 02MD 02MO 02MC 02RD 10RO	0	1	1.29417800903	None	None	None	None	1
2.7	2015_Jun_11_1120	s	s	21	4	SIC	429	ABS	1	0	02VD 02VO 02VC 02MD 02MO 10MC 02RD 02RO	0	1	1.30588507652	None	None	None	None	1
2.7	2015_Jun_11_1120	s	s	21	4	SIC	430	ABS	0	2	02VD 02VO 02VC 02MD 02MO 02MC 10RD 02RO	0	1	1.30589103699	None	None	None	None	1
2.7	2015_Jun_11_1120	s	s	21	4	SIC	431	ABS	1	2	02VD 02VO 02VC 10MD 02MO 02MC 02RD 02RO	0	1	0.705621004105	None	None	None	None	1
2.7	2015_Jun_11_1120	s	s	21	4	SIC	432	ABS	2	1	02VD 10VO 02VC 02MD 02MO 02MC 02RD 02RO	0	1	1.22943782806	None	None	None	None	1
2.7	2015_Jun_11_1120	s	s	21	4	SIC	433	RC	1	0	02VD 02VO 02VC 02MD 02MO 09MC 02RD 02RO	0	1	1.05856704712	459.0	394.0	None	None	0
2.7	2015_Jun_11_1120	s	s	21	4	SIC	434	ABS	1	1	02VD 02VO 02VC 02MD 10MO 02MC 02RD 02RO	0	1	0.901004076004	None	None	None	None	1
2.7	2015_Jun_11_1120	s	s	21	4	SIC	435	RC	2	0	02VD 02VO 09VC 02MD 02MO 02MC 02RD 02RO	0	1	0.905594110489	-528.0	396.0	None	None	0
2.7	2015_Jun_11_1120	s	s	21	4	SIC	436	RC	1	2	02VD 02VO 02VC 09MD 02MO 02MC 02RD 02RO	1	0	0.744533061981	248.0	-61.0	245	-57	1
2.7	2015_Jun_11_1120	s	s	21	4	SIC	437	ABS	1	0	02VD 02VO 02VC 02MD 02MO 10MC 02RD 02RO	0	1	1.05879211426	None	None	None	None	1
2.7	2015_Jun_11_1120	s	s	21	4	SIC	438	ABS	0	2	02VD 02VO 02VC 02MD 02MO 02MC 10RD 02RO	0	1	0.759417057037	None	None	None	None	1
2.7	2015_Jun_11_1120	s	s	21	4	SIC	439	RC	0	2	02VD 02VO 02VC 02MD 02MO 02MC 09RD 02RO	0	1	0.877101182938	408.0	395.0	None	None	0
2.7	2015_Jun_11_1120	s	s	21	4	SIC	440	RC	2	2	09VD 02VO 02VC 02MD 02MO 02MC 02RD 02RO	1	0	1.0469429493	-230.0	122.0	-220	120	1
2.7	2015_Jun_11_1120	s	s	21	4	SIC	441	RC	0	1	02VD 02VO 02VC 02MD 02MO 02MC 02RD 09RO	0	1	2.15993094444	-48.0	314.0	None	None	0
2.7	2015_Jun_11_1120	s	s	21	4	SIC	442	ABS	1	2	02VD 02VO 02VC 10MD 02MO 02MC 02RD 02RO	0	1	2.14159989357	None	None	None	None	1
2.7	2015_Jun_11_1120	s	s	21	4	SIC	443	ABS	2	0	02VD 02VO 10VC 02MD 02MO 02MC 02RD 02RO	0	1	0.901153087616	None	None	None	None	1
2.7	2015_Jun_11_1120	s	s	21	4	SIC	444	ABS	2	2	10VD 02VO 02VC 02MD 02MO 02MC 02RD 02RO	0	1	1.27061319351	None	None	None	None	1
2.7	2015_Jun_11_1120	s	s	21	4	SIC	445	ABS	0	1	02VD 02VO 02VC 02MD 02MO 02MC 02RD 10RO	0	1	1.43332099915	None	None	None	None	1
2.7	2015_Jun_11_1120	s	s	21	4	SIC	446	RC	2	1	02VD 09VO 02VC 02MD 02MO 02MC 02RD 02RO	1	0	0.811604976654	443.0	-29.0	445	-33	1
2.7	2015_Jun_11_1120	s	s	21	4	SIC	447	ABS	2	1	02VD 10VO 02VC 02MD 02MO 02MC 02RD 02RO	0	1	1.03028988838	None	None	None	None	1
2.7	2015_Jun_11_1120	s	s	21	4	SIC	448	RC	1	1	02VD 02VO 02VC 02MD 09MO 02MC 02RD 02RO	1	0	0.985637903214	-497.0	-41.0	-494	-46	1
2.7	2015_Jun_11_1120	s	s	21	4	SIC	449	ABS	1	0	02VD 02VO 02VC 02MD 02MO 10MC 02RD 02RO	0	1	1.96515607834	None	None	None	None	1
2.7	2015_Jun_11_1120	s	s	21	4	SIC	450	RC	1	1	02VD 02VO 02VC 02MD 09MO 02MC 02RD 02RO	1	0	1.82374405861	12.0	329.0	17	332	1
2.7	2015_Jun_11_1120	s	s	21	4	SIC	451	ABS	2	2	10VD 02VO 02VC 02MD 02MO 02MC 02RD 02RO	0	1	0.999891996384	None	None	None	None	1
2.7	2015_Jun_11_1120	s	s	21	4	SIC	452	ABS	1	1	02VD 02VO 02VC 02MD 10MO 02MC 02RD 02RO	0	1	1.60762906075	None	None	None	None	1
2.7	2015_Jun_11_1120	s	s	21	4	SIC	453	RC	1	0	02VD 02VO 02VC 02MD 02MO 09MC 02RD 02RO	1	0	0.971274852753	-5.0	-331.0	-10	-342	1
2.7	2015_Jun_11_1120	s	s	21	4	SIC	454	RC	2	2	09VD 02VO 02VC 02MD 02MO 02MC 02RD 02RO	1	0	1.40600705147	197.0	298.0	201	295	1
2.7	2015_Jun_11_1120	s	s	21	4	SIC	455	RC	0	2	02VD 02VO 02VC 02MD 02MO 02MC 09RD 02RO	1	0	0.663928031921	207.0	-3.0	197	-1	1
2.7	2015_Jun_11_1120	s	s	21	4	SIC	456	ABS	0	2	02VD 02VO 02VC 02MD 02MO 02MC 10RD 02RO	0	1	1.69802498817	None	None	None	None	1
2.7	2015_Jun_11_1120	s	s	21	4	SIC	457	RC	1	2	02VD 02VO 02VC 09MD 02MO 02MC 02RD 02RO	1	0	0.72424697876	-316.0	-185.0	-322	-194	1
2.7	2015_Jun_11_1120	s	s	21	4	SIC	458	RC	2	0	02VD 02VO 09VC 02MD 02MO 02MC 02RD 02RO	1	0	0.874207019806	-173.0	-315.0	-171	-318	1
2.7	2015_Jun_11_1120	s	s	21	4	SIC	459	ABS	1	2	02VD 02VO 02VC 10MD 02MO 02MC 02RD 02RO	0	1	1.19998979568	None	None	None	None	1
2.7	2015_Jun_11_1120	s	s	21	4	SIC	460	ABS	2	1	02VD 10VO 02VC 02MD 02MO 02MC 02RD 02RO	0	1	1.23526787758	None	None	None	None	1
2.7	2015_Jun_11_1120	s	s	21	4	SIC	461	ABS	2	0	02VD 02VO 10VC 02MD 02MO 02MC 02RD 02RO	0	1	1.3062748909	None	None	None	None	1
2.7	2015_Jun_11_1120	s	s	21	4	SIC	462	RC	0	1	02VD 02VO 02VC 02MD 02MO 02MC 02RD 09RO	0	1	1.37284994125	418.0	247.0	None	None	0
2.7	2015_Jun_11_1120	s	s	21	4	SIC	463	ABS	0	1	02VD 02VO 02VC 02MD 02MO 02MC 02RD 10RO	0	1	1.23525905609	None	None	None	None	1
2.7	2015_Jun_11_1120	s	s	21	4	SIC	464	RC	2	1	02VD 09VO 02VC 02MD 02MO 02MC 02RD 02RO	0	1	0.905740022659	502.0	234.0	None	None	0
2.7	2015_Jun_11_1120	s	s	21	4	SIC	465	RC	1	0	02VD 02VO 02VC 02MD 02MO 09MC 02RD 02RO	1	0	0.828712940216	124.0	375.0	121	384	1
2.7	2015_Jun_11_1120	s	s	21	4	SIC	466	RC	2	2	09VD 02VO 02VC 02MD 02MO 02MC 02RD 02RO	1	0	0.835103034973	247.0	266.0	244	253	1
2.7	2015_Jun_11_1120	s	s	21	4	SIC	467	ABS	2	1	02VD 10VO 02VC 02MD 02MO 02MC 02RD 02RO	0	1	1.36149501801	None	None	None	None	1
2.7	2015_Jun_11_1120	s	s	21	4	SIC	468	RC	1	2	02VD 02VO 02VC 09MD 02MO 02MC 02RD 02RO	1	0	0.729125022888	-170.0	-209.0	-170	-222	1
2.7	2015_Jun_11_1120	s	s	21	4	SIC	469	ABS	2	0	02VD 02VO 10VC 02MD 02MO 02MC 02RD 02RO	0	1	1.24197411537	None	None	None	None	1
2.7	2015_Jun_11_1120	s	s	21	4	SIC	470	ABS	1	2	02VD 02VO 02VC 10MD 02MO 02MC 02RD 02RO	0	1	1.1058511734	None	None	None	None	1
2.7	2015_Jun_11_1120	s	s	21	4	SIC	471	ABS	2	2	10VD 02VO 02VC 02MD 02MO 02MC 02RD 02RO	0	1	0.81159901619	None	None	None	None	1
2.7	2015_Jun_11_1120	s	s	21	4	SIC	472	ABS	0	2	02VD 02VO 02VC 02MD 02MO 02MC 10RD 02RO	0	1	1.3011879921	None	None	None	None	1
2.7	2015_Jun_11_1120	s	s	21	4	SIC	473	RC	2	0	02VD 02VO 09VC 02MD 02MO 02MC 02RD 02RO	1	0	1.23029899597	117.0	-347.0	118	-344	1
2.7	2015_Jun_11_1120	s	s	21	4	SIC	474	ABS	1	1	02VD 02VO 02VC 02MD 10MO 02MC 02RD 02RO	0	1	0.971317052841	None	None	None	None	1
2.7	2015_Jun_11_1120	s	s	21	4	SIC	475	RC	0	1	02VD 02VO 02VC 02MD 02MO 02MC 02RD 09RO	1	0	1.51779198647	416.0	73.0	424	69	1
2.7	2015_Jun_11_1120	s	s	21	4	SIC	476	RC	0	2	02VD 02VO 02VC 02MD 02MO 02MC 09RD 02RO	1	0	1.07046294212	-199.0	-189.0	-203	-187	1
2.7	2015_Jun_11_1120	s	s	21	4	SIC	477	ABS	0	1	02VD 02VO 02VC 02MD 02MO 02MC 02RD 10RO	0	1	1.84732699394	None	None	None	None	1
2.7	2015_Jun_11_1120	s	s	21	4	SIC	478	RC	1	1	02VD 02VO 02VC 02MD 09MO 02MC 02RD 02RO	1	0	0.973428010941	378.0	-222.0	378	-233	1
2.7	2015_Jun_11_1120	s	s	21	4	SIC	479	RC	2	1	02VD 09VO 02VC 02MD 02MO 02MC 02RD 02RO	1	0	0.924184083939	-185.0	-210.0	-186	-210	1
2.7	2015_Jun_11_1120	s	s	21	4	SIC	480	ABS	1	0	02VD 02VO 02VC 02MD 02MO 10MC 02RD 02RO	0	1	1.58306002617	None	None	None	None	1
