Version	Date	Stimuli	Method	Subject	Session	Condition	Trial	Target	Channel1	Channel2	Distractors	LMouseButton	RMouseButton	RT	TargetX	TargetY	ResponseX	ResponseY	Correct
2.7	2015_Jun_12_1141	s	s	21	5	Capacity	1	RC	0	1	08RD 15RO	1	0	0.783053874969	236.0	91.0	235	87	1
2.7	2015_Jun_12_1141	s	s	21	5	Capacity	2	RC	0	2	15RD 08RO	1	0	1.25395607948	475.0	-97.0	472	-96	1
2.7	2015_Jun_12_1141	s	s	21	5	Capacity	3	ABS	0	2	16RD 08RO	0	1	1.15044689178	None	None	None	None	1
2.7	2015_Jun_12_1141	s	s	21	5	Capacity	4	ABS	0	1	08RD 16RO	0	1	0.879948139191	None	None	None	None	1
2.7	2015_Jun_12_1141	s	s	21	5	Capacity	5	ABS	0	1	08RD 16RO	0	1	1.09070396423	None	None	None	None	1
2.7	2015_Jun_12_1141	s	s	21	5	Capacity	6	RC	0	1	08RD 15RO	0	1	1.36475992203	235.0	-80.0	None	None	0
2.7	2015_Jun_12_1141	s	s	21	5	Capacity	7	ABS	0	2	16RD 08RO	0	1	1.29400897026	None	None	None	None	1
2.7	2015_Jun_12_1141	s	s	21	5	Capacity	8	RC	0	2	15RD 08RO	1	0	0.700911998749	243.0	173.0	242	171	1
2.7	2015_Jun_12_1141	s	s	21	5	Capacity	9	RC	0	2	15RD 08RO	1	0	0.811500787735	152.0	226.0	158	226	1
2.7	2015_Jun_12_1141	s	s	21	5	Capacity	10	ABS	0	1	08RD 16RO	0	1	1.0656440258	None	None	None	None	1
2.7	2015_Jun_12_1141	s	s	21	5	Capacity	11	RC	0	1	08RD 15RO	0	1	0.783098936081	268.0	235.0	None	None	0
2.7	2015_Jun_12_1141	s	s	21	5	Capacity	12	ABS	0	2	16RD 08RO	0	1	0.952749013901	None	None	None	None	1
2.7	2015_Jun_12_1141	s	s	21	5	Capacity	13	ABS	0	1	08RD 16RO	0	1	1.12403297424	None	None	None	None	1
2.7	2015_Jun_12_1141	s	s	21	5	Capacity	14	RC	0	2	15RD 08RO	0	1	0.95268702507	334.0	104.0	None	None	0
2.7	2015_Jun_12_1141	s	s	21	5	Capacity	15	ABS	0	2	16RD 08RO	0	1	0.94477891922	None	None	None	None	1
2.7	2015_Jun_12_1141	s	s	21	5	Capacity	16	RC	0	1	08RD 15RO	0	1	0.929274082184	69.0	-278.0	None	None	0
2.7	2015_Jun_12_1141	s	s	21	5	Capacity	17	ABS	0	2	16RD 08RO	0	1	0.999866008759	None	None	None	None	1
2.7	2015_Jun_12_1141	s	s	21	5	Capacity	18	ABS	0	1	08RD 16RO	0	1	1.55309104919	None	None	None	None	1
2.7	2015_Jun_12_1141	s	s	21	5	Capacity	19	RC	0	1	08RD 15RO	0	1	0.771183013916	350.0	-214.0	None	None	0
2.7	2015_Jun_12_1141	s	s	21	5	Capacity	20	RC	0	2	15RD 08RO	1	0	1.15973305702	116.0	382.0	113	386	1
2.7	2015_Jun_12_1141	s	s	21	5	Capacity	21	RC	0	2	15RD 08RO	1	0	0.517220973969	6.0	-22.0	11	-23	1
2.7	2015_Jun_12_1141	s	s	21	5	Capacity	22	RC	0	1	08RD 15RO	1	0	1.34120821953	-245.0	-108.0	-251	-115	1
2.7	2015_Jun_12_1141	s	s	21	5	Capacity	23	ABS	0	1	08RD 16RO	0	1	1.00608515739	None	None	None	None	1
2.7	2015_Jun_12_1141	s	s	21	5	Capacity	24	ABS	0	2	16RD 08RO	0	1	0.858979940414	None	None	None	None	1
2.7	2015_Jun_12_1141	s	s	21	5	Capacity	25	RC	0	1	08RD 15RO	1	0	0.844981908798	-18.0	-297.0	-22	-296	1
2.7	2015_Jun_12_1141	s	s	21	5	Capacity	26	ABS	0	2	16RD 08RO	0	1	1.10211896896	None	None	None	None	1
2.7	2015_Jun_12_1141	s	s	21	5	Capacity	27	RC	0	2	15RD 08RO	1	0	0.925441980362	-243.0	176.0	-232	177	1
2.7	2015_Jun_12_1141	s	s	21	5	Capacity	28	ABS	0	1	08RD 16RO	0	1	1.27056598663	None	None	None	None	1
2.7	2015_Jun_12_1141	s	s	21	5	Capacity	29	ABS	0	2	16RD 08RO	0	1	1.53659009933	None	None	None	None	1
2.7	2015_Jun_12_1141	s	s	21	5	Capacity	30	RC	0	2	15RD 08RO	0	1	1.17171406746	-355.0	305.0	None	None	0
2.7	2015_Jun_12_1141	s	s	21	5	Capacity	31	RC	0	1	08RD 15RO	0	1	1.23046112061	-482.0	-185.0	None	None	0
2.7	2015_Jun_12_1141	s	s	21	5	Capacity	32	ABS	0	1	08RD 16RO	0	1	1.00664901733	None	None	None	None	1
2.7	2015_Jun_12_1141	s	s	21	5	Capacity	33	ABS	0	1	08RD 16RO	0	1	0.885937929153	None	None	None	None	1
2.7	2015_Jun_12_1141	s	s	21	5	Capacity	34	RC	0	1	08RD 15RO	0	1	1.60011601448	-504.0	-240.0	None	None	0
2.7	2015_Jun_12_1141	s	s	21	5	Capacity	35	RC	0	2	15RD 08RO	1	0	0.670295953751	26.0	244.0	31	233	1
2.7	2015_Jun_12_1141	s	s	21	5	Capacity	36	ABS	0	2	16RD 08RO	0	1	0.759526014328	None	None	None	None	1
2.7	2015_Jun_12_1141	s	s	21	5	Capacity	37	RC	0	2	15RD 08RO	1	0	0.752660989761	104.0	212.0	101	204	1
2.7	2015_Jun_12_1141	s	s	21	5	Capacity	38	RC	0	1	08RD 15RO	1	0	0.835106134415	-302.0	42.0	-299	43	1
2.7	2015_Jun_12_1141	s	s	21	5	Capacity	39	ABS	0	1	08RD 16RO	0	1	0.952704906464	None	None	None	None	1
2.7	2015_Jun_12_1141	s	s	21	5	Capacity	40	ABS	0	2	16RD 08RO	0	1	1.5248298645	None	None	None	None	1
2.7	2015_Jun_12_1141	s	s	21	5	Capacity	41	ABS	0	2	16RD 08RO	1	0	1.2355928421	None	None	-110	-50	0
2.7	2015_Jun_12_1141	s	s	21	5	Capacity	42	ABS	0	1	08RD 16RO	0	1	1.17642903328	None	None	None	None	1
2.7	2015_Jun_12_1141	s	s	21	5	Capacity	43	RC	0	2	15RD 08RO	1	0	0.809261798859	-306.0	-159.0	-306	-170	1
2.7	2015_Jun_12_1141	s	s	21	5	Capacity	44	RC	0	1	08RD 15RO	1	0	0.57608795166	-57.0	-32.0	-57	-37	1
2.7	2015_Jun_12_1141	s	s	21	5	Capacity	45	RC	0	1	08RD 15RO	1	0	1.5004131794	-339.0	-254.0	-348	-258	1
2.7	2015_Jun_12_1141	s	s	21	5	Capacity	46	ABS	0	1	08RD 16RO	0	1	0.776301860809	None	None	None	None	1
2.7	2015_Jun_12_1141	s	s	21	5	Capacity	47	RC	0	2	15RD 08RO	1	0	1.01160788536	172.0	-206.0	169	-210	1
2.7	2015_Jun_12_1141	s	s	21	5	Capacity	48	ABS	0	2	16RD 08RO	0	1	0.818450927734	None	None	None	None	1
2.7	2015_Jun_12_1141	s	s	21	5	Capacity	49	RC	0	2	15RD 08RO	0	1	1.26806902885	-458.0	377.0	None	None	0
2.7	2015_Jun_12_1141	s	s	21	5	Capacity	50	RC	0	1	08RD 15RO	0	1	1.16194200516	-453.0	-154.0	None	None	0
2.7	2015_Jun_12_1141	s	s	21	5	Capacity	51	ABS	0	2	16RD 08RO	0	1	0.952893972397	None	None	None	None	1
2.7	2015_Jun_12_1141	s	s	21	5	Capacity	52	ABS	0	1	08RD 16RO	0	1	1.32429003716	None	None	None	None	1
2.7	2015_Jun_12_1141	s	s	21	5	Capacity	53	RC	0	1	08RD 15RO	0	1	1.093998909	-532.0	-336.0	None	None	0
2.7	2015_Jun_12_1141	s	s	21	5	Capacity	54	ABS	0	1	08RD 16RO	0	1	0.968341112137	None	None	None	None	1
2.7	2015_Jun_12_1141	s	s	21	5	Capacity	55	RC	0	2	15RD 08RO	1	0	0.994974851608	173.0	367.0	165	361	1
2.7	2015_Jun_12_1141	s	s	21	5	Capacity	56	ABS	0	2	16RD 08RO	0	1	0.858672142029	None	None	None	None	1
2.7	2015_Jun_12_1141	s	s	21	5	Capacity	57	ABS	0	1	08RD 16RO	0	1	0.817739009857	None	None	None	None	1
2.7	2015_Jun_12_1141	s	s	21	5	Capacity	58	RC	0	1	08RD 15RO	0	1	1.16460704803	450.0	393.0	None	None	0
2.7	2015_Jun_12_1141	s	s	21	5	Capacity	59	RC	0	2	15RD 08RO	1	0	1.14143419266	-322.0	-175.0	-320	-177	1
2.7	2015_Jun_12_1141	s	s	21	5	Capacity	60	ABS	0	2	16RD 08RO	0	1	0.85583114624	None	None	None	None	1
2.7	2015_Jun_12_1141	s	s	21	5	Capacity	61	ABS	0	2	16RD 08RO	0	1	1.41179299355	None	None	None	None	1
2.7	2015_Jun_12_1141	s	s	21	5	Capacity	62	RC	0	1	08RD 15RO	1	0	1.25237393379	136.0	363.0	139	358	1
2.7	2015_Jun_12_1141	s	s	21	5	Capacity	63	ABS	0	1	08RD 16RO	0	1	1.171407938	None	None	None	None	1
2.7	2015_Jun_12_1141	s	s	21	5	Capacity	64	RC	0	2	15RD 08RO	0	1	1.09440898895	-198.0	-291.0	None	None	0
2.7	2015_Jun_12_1141	s	s	21	5	Capacity	1	RC	1	0	08VC 15MC	1	0	0.952764987946	462.0	196.0	454	191	1
2.7	2015_Jun_12_1141	s	s	21	5	Capacity	2	ABS	1	0	08VC 16MC	0	1	0.87028503418	None	None	None	None	1
2.7	2015_Jun_12_1141	s	s	21	5	Capacity	3	RC	2	0	15VC 08MC	1	0	0.72912311554	358.0	-71.0	368	-73	1
2.7	2015_Jun_12_1141	s	s	21	5	Capacity	4	ABS	2	0	16VC 08MC	0	1	1.0704228878	None	None	None	None	1
2.7	2015_Jun_12_1141	s	s	21	5	Capacity	5	ABS	1	0	08VC 16MC	0	1	1.12545490265	None	None	None	None	1
2.7	2015_Jun_12_1141	s	s	21	5	Capacity	6	ABS	2	0	16VC 08MC	0	1	1.57344579697	None	None	None	None	1
2.7	2015_Jun_12_1141	s	s	21	5	Capacity	7	RC	2	0	15VC 08MC	1	0	0.529029846191	-139.0	241.0	-143	249	1
2.7	2015_Jun_12_1141	s	s	21	5	Capacity	8	RC	1	0	08VC 15MC	1	0	0.78351187706	263.0	153.0	264	147	1
2.7	2015_Jun_12_1141	s	s	21	5	Capacity	9	RC	2	0	15VC 08MC	0	1	0.759553194046	-508.0	157.0	None	None	0
2.7	2015_Jun_12_1141	s	s	21	5	Capacity	10	RC	1	0	08VC 15MC	1	0	0.641134977341	472.0	-229.0	470	-240	1
2.7	2015_Jun_12_1141	s	s	21	5	Capacity	11	ABS	1	0	08VC 16MC	0	1	0.69064283371	None	None	None	None	1
2.7	2015_Jun_12_1141	s	s	21	5	Capacity	12	ABS	2	0	16VC 08MC	0	1	1.12935304642	None	None	None	None	1
2.7	2015_Jun_12_1141	s	s	21	5	Capacity	13	RC	1	0	08VC 15MC	1	0	0.587815999985	401.0	-84.0	405	-93	1
2.7	2015_Jun_12_1141	s	s	21	5	Capacity	14	RC	2	0	15VC 08MC	1	0	0.58301115036	-432.0	82.0	-431	83	1
2.7	2015_Jun_12_1141	s	s	21	5	Capacity	15	ABS	2	0	16VC 08MC	0	1	0.752712011337	None	None	None	None	1
2.7	2015_Jun_12_1141	s	s	21	5	Capacity	16	ABS	1	0	08VC 16MC	0	1	0.924306154251	None	None	None	None	1
2.7	2015_Jun_12_1141	s	s	21	5	Capacity	17	ABS	1	0	08VC 16MC	0	1	0.866951942444	None	None	None	None	1
2.7	2015_Jun_12_1141	s	s	21	5	Capacity	18	RC	2	0	15VC 08MC	1	0	0.879056930542	-468.0	-200.0	-478	-202	1
2.7	2015_Jun_12_1141	s	s	21	5	Capacity	19	RC	1	0	08VC 15MC	0	1	0.576094150543	-249.0	-353.0	None	None	0
2.7	2015_Jun_12_1141	s	s	21	5	Capacity	20	ABS	2	0	16VC 08MC	0	1	0.776248931885	None	None	None	None	1
2.7	2015_Jun_12_1141	s	s	21	5	Capacity	21	RC	2	0	15VC 08MC	1	0	0.964558124542	345.0	325.0	344	327	1
2.7	2015_Jun_12_1141	s	s	21	5	Capacity	22	ABS	1	0	08VC 16MC	0	1	0.641273975372	None	None	None	None	1
2.7	2015_Jun_12_1141	s	s	21	5	Capacity	23	RC	1	0	08VC 15MC	1	0	0.579928874969	-470.0	179.0	-469	174	1
2.7	2015_Jun_12_1141	s	s	21	5	Capacity	24	ABS	2	0	16VC 08MC	0	1	1.12934923172	None	None	None	None	1
2.7	2015_Jun_12_1141	s	s	21	5	Capacity	25	ABS	1	0	08VC 16MC	0	1	0.83512711525	None	None	None	None	1
2.7	2015_Jun_12_1141	s	s	21	5	Capacity	26	ABS	2	0	16VC 08MC	0	1	0.761667013168	None	None	None	None	1
2.7	2015_Jun_12_1141	s	s	21	5	Capacity	27	RC	2	0	15VC 08MC	0	1	0.752660989761	-380.0	-404.0	None	None	0
2.7	2015_Jun_12_1141	s	s	21	5	Capacity	28	RC	1	0	08VC 15MC	1	0	0.856253862381	396.0	-55.0	402	-52	1
2.7	2015_Jun_12_1141	s	s	21	5	Capacity	29	ABS	1	0	08VC 16MC	0	1	0.676936864853	None	None	None	None	1
2.7	2015_Jun_12_1141	s	s	21	5	Capacity	30	RC	2	0	15VC 08MC	1	0	0.552598953247	-223.0	293.0	-220	289	1
2.7	2015_Jun_12_1141	s	s	21	5	Capacity	31	ABS	2	0	16VC 08MC	0	1	0.712455034256	None	None	None	None	1
2.7	2015_Jun_12_1141	s	s	21	5	Capacity	32	RC	1	0	08VC 15MC	1	0	0.59968495369	-75.0	83.0	-72	75	1
2.7	2015_Jun_12_1141	s	s	21	5	Capacity	33	RC	2	0	15VC 08MC	0	1	0.717324018478	308.0	394.0	None	None	0
2.7	2015_Jun_12_1141	s	s	21	5	Capacity	34	ABS	1	0	08VC 16MC	0	1	0.835078954697	None	None	None	None	1
2.7	2015_Jun_12_1141	s	s	21	5	Capacity	35	ABS	2	0	16VC 08MC	0	1	0.820938825607	None	None	None	None	1
2.7	2015_Jun_12_1141	s	s	21	5	Capacity	36	RC	1	0	08VC 15MC	1	0	0.623142004013	-261.0	166.0	-264	162	1
2.7	2015_Jun_12_1141	s	s	21	5	Capacity	37	RC	2	0	15VC 08MC	0	1	0.705607891083	454.0	94.0	None	None	0
2.7	2015_Jun_12_1141	s	s	21	5	Capacity	38	ABS	2	0	16VC 08MC	0	1	0.900778055191	None	None	None	None	1
2.7	2015_Jun_12_1141	s	s	21	5	Capacity	39	RC	1	0	08VC 15MC	0	1	0.82100892067	-216.0	-255.0	None	None	0
2.7	2015_Jun_12_1141	s	s	21	5	Capacity	40	ABS	1	0	08VC 16MC	0	1	0.938694953918	None	None	None	None	1
2.7	2015_Jun_12_1141	s	s	21	5	Capacity	41	ABS	1	0	08VC 16MC	0	1	0.599692821503	None	None	None	None	1
2.7	2015_Jun_12_1141	s	s	21	5	Capacity	42	RC	2	0	15VC 08MC	1	0	0.535858869553	221.0	174.0	226	173	1
2.7	2015_Jun_12_1141	s	s	21	5	Capacity	43	ABS	2	0	16VC 08MC	0	1	0.587738990784	None	None	None	None	1
2.7	2015_Jun_12_1141	s	s	21	5	Capacity	44	RC	1	0	08VC 15MC	0	1	0.736082077026	-374.0	-202.0	None	None	0
2.7	2015_Jun_12_1141	s	s	21	5	Capacity	45	ABS	1	0	08VC 16MC	0	1	0.481969118118	None	None	None	None	1
2.7	2015_Jun_12_1141	s	s	21	5	Capacity	46	RC	1	0	08VC 15MC	1	0	0.72422003746	-491.0	246.0	-486	241	1
2.7	2015_Jun_12_1141	s	s	21	5	Capacity	47	RC	2	0	15VC 08MC	1	0	0.705710887909	170.0	284.0	169	270	1
2.7	2015_Jun_12_1141	s	s	21	5	Capacity	48	ABS	2	0	16VC 08MC	0	1	0.646951913834	None	None	None	None	1
2.7	2015_Jun_12_1141	s	s	21	5	Capacity	49	RC	1	0	08VC 15MC	1	0	0.935782909393	-141.0	398.0	-133	400	1
2.7	2015_Jun_12_1141	s	s	21	5	Capacity	50	ABS	1	0	08VC 16MC	0	1	0.547569990158	None	None	None	None	1
2.7	2015_Jun_12_1141	s	s	21	5	Capacity	51	RC	2	0	15VC 08MC	1	0	0.846857070923	-289.0	-228.0	-294	-222	1
2.7	2015_Jun_12_1141	s	s	21	5	Capacity	52	ABS	2	0	16VC 08MC	0	1	0.705692052841	None	None	None	None	1
2.7	2015_Jun_12_1141	s	s	21	5	Capacity	53	RC	1	0	08VC 15MC	1	0	0.740931034088	320.0	153.0	326	152	1
2.7	2015_Jun_12_1141	s	s	21	5	Capacity	54	ABS	1	0	08VC 16MC	0	1	0.634969949722	None	None	None	None	1
2.7	2015_Jun_12_1141	s	s	21	5	Capacity	55	RC	2	0	15VC 08MC	1	0	0.717360019684	440.0	199.0	444	201	1
2.7	2015_Jun_12_1141	s	s	21	5	Capacity	56	ABS	2	0	16VC 08MC	0	1	0.56432390213	None	None	None	None	1
2.7	2015_Jun_12_1141	s	s	21	5	Capacity	57	ABS	1	0	08VC 16MC	0	1	0.682016849518	None	None	None	None	1
2.7	2015_Jun_12_1141	s	s	21	5	Capacity	58	ABS	2	0	16VC 08MC	0	1	1.21842288971	None	None	None	None	1
2.7	2015_Jun_12_1141	s	s	21	5	Capacity	59	RC	1	0	08VC 15MC	1	0	1.00730109215	-531.0	176.0	-527	174	1
2.7	2015_Jun_12_1141	s	s	21	5	Capacity	60	RC	2	0	15VC 08MC	1	0	0.500653982162	-386.0	4.0	-385	-7	1
2.7	2015_Jun_12_1141	s	s	21	5	Capacity	61	RC	1	0	08VC 15MC	1	0	0.571220874786	144.0	-130.0	145	-131	1
2.7	2015_Jun_12_1141	s	s	21	5	Capacity	62	RC	2	0	15VC 08MC	1	0	0.608047962189	-175.0	143.0	-180	147	1
2.7	2015_Jun_12_1141	s	s	21	5	Capacity	63	ABS	2	0	16VC 08MC	0	1	0.705603837967	None	None	None	None	1
2.7	2015_Jun_12_1141	s	s	21	5	Capacity	64	ABS	1	0	08VC 16MC	0	1	0.564322948456	None	None	None	None	1
2.7	2015_Jun_12_1141	s	s	21	5	SIC	1	RC	0	2	02VD 02VO 02VC 02MD 02MO 02MC 09RD 02RO	1	0	0.59476685524	-444.0	106.0	-443	105	1
2.7	2015_Jun_12_1141	s	s	21	5	SIC	2	ABS	2	1	02VD 10VO 02VC 02MD 02MO 02MC 02RD 02RO	0	1	0.75953412056	None	None	None	None	1
2.7	2015_Jun_12_1141	s	s	21	5	SIC	3	ABS	0	2	02VD 02VO 02VC 02MD 02MO 02MC 10RD 02RO	1	0	0.938616991043	None	None	-93	-106	0
2.7	2015_Jun_12_1141	s	s	21	5	SIC	4	ABS	2	2	10VD 02VO 02VC 02MD 02MO 02MC 02RD 02RO	0	1	1.76882696152	None	None	None	None	1
2.7	2015_Jun_12_1141	s	s	21	5	SIC	5	RC	1	1	02VD 02VO 02VC 02MD 09MO 02MC 02RD 02RO	1	0	0.620778799057	200.0	184.0	208	179	1
2.7	2015_Jun_12_1141	s	s	21	5	SIC	6	ABS	1	0	02VD 02VO 02VC 02MD 02MO 10MC 02RD 02RO	0	1	1.24183893204	None	None	None	None	1
2.7	2015_Jun_12_1141	s	s	21	5	SIC	7	RC	2	0	02VD 02VO 09VC 02MD 02MO 02MC 02RD 02RO	1	0	0.788200855255	-94.0	328.0	-95	321	1
2.7	2015_Jun_12_1141	s	s	21	5	SIC	8	RC	1	0	02VD 02VO 02VC 02MD 02MO 09MC 02RD 02RO	0	1	0.917508125305	121.0	-284.0	None	None	0
2.7	2015_Jun_12_1141	s	s	21	5	SIC	9	RC	2	1	02VD 09VO 02VC 02MD 02MO 02MC 02RD 02RO	1	0	0.594938993454	354.0	-92.0	352	-85	1
2.7	2015_Jun_12_1141	s	s	21	5	SIC	10	ABS	2	0	02VD 02VO 10VC 02MD 02MO 02MC 02RD 02RO	0	1	0.762008190155	None	None	None	None	1
2.7	2015_Jun_12_1141	s	s	21	5	SIC	11	RC	1	2	02VD 02VO 02VC 09MD 02MO 02MC 02RD 02RO	1	0	0.882127046585	-472.0	184.0	-469	181	1
2.7	2015_Jun_12_1141	s	s	21	5	SIC	12	RC	0	1	02VD 02VO 02VC 02MD 02MO 02MC 02RD 09RO	1	0	0.94105386734	160.0	-238.0	159	-238	1
2.7	2015_Jun_12_1141	s	s	21	5	SIC	13	ABS	0	1	02VD 02VO 02VC 02MD 02MO 02MC 02RD 10RO	0	1	1.32388496399	None	None	None	None	1
2.7	2015_Jun_12_1141	s	s	21	5	SIC	14	ABS	1	2	02VD 02VO 02VC 10MD 02MO 02MC 02RD 02RO	0	1	1.24709296227	None	None	None	None	1
2.7	2015_Jun_12_1141	s	s	21	5	SIC	15	RC	2	2	09VD 02VO 02VC 02MD 02MO 02MC 02RD 02RO	1	0	0.634979009628	-208.0	-47.0	-208	-43	1
2.7	2015_Jun_12_1141	s	s	21	5	SIC	16	ABS	1	1	02VD 02VO 02VC 02MD 10MO 02MC 02RD 02RO	0	1	0.971080064774	None	None	None	None	1
2.7	2015_Jun_12_1141	s	s	21	5	SIC	17	RC	1	1	02VD 02VO 02VC 02MD 09MO 02MC 02RD 02RO	0	1	1.00841212273	74.0	-304.0	None	None	0
2.7	2015_Jun_12_1141	s	s	21	5	SIC	18	ABS	1	2	02VD 02VO 02VC 10MD 02MO 02MC 02RD 02RO	0	1	0.924309968948	None	None	None	None	1
2.7	2015_Jun_12_1141	s	s	21	5	SIC	19	RC	2	2	09VD 02VO 02VC 02MD 02MO 02MC 02RD 02RO	0	1	0.717835903168	532.0	340.0	None	None	0
2.7	2015_Jun_12_1141	s	s	21	5	SIC	20	RC	0	1	02VD 02VO 02VC 02MD 02MO 02MC 02RD 09RO	1	0	2.0590031147	-302.0	-376.0	-300	-381	1
2.7	2015_Jun_12_1141	s	s	21	5	SIC	21	ABS	2	0	02VD 02VO 10VC 02MD 02MO 02MC 02RD 02RO	0	1	0.905683994293	None	None	None	None	1
2.7	2015_Jun_12_1141	s	s	21	5	SIC	22	ABS	2	2	10VD 02VO 02VC 02MD 02MO 02MC 02RD 02RO	1	0	0.599541902542	None	None	120	-312	0
2.7	2015_Jun_12_1141	s	s	21	5	SIC	23	ABS	0	1	02VD 02VO 02VC 02MD 02MO 02MC 02RD 10RO	0	1	0.889459133148	None	None	None	None	1
2.7	2015_Jun_12_1141	s	s	21	5	SIC	24	ABS	2	1	02VD 10VO 02VC 02MD 02MO 02MC 02RD 02RO	0	1	0.823549985886	None	None	None	None	1
2.7	2015_Jun_12_1141	s	s	21	5	SIC	25	RC	1	2	02VD 02VO 02VC 09MD 02MO 02MC 02RD 02RO	0	1	1.04694700241	430.0	41.0	None	None	0
2.7	2015_Jun_12_1141	s	s	21	5	SIC	26	ABS	1	1	02VD 02VO 02VC 02MD 10MO 02MC 02RD 02RO	0	1	0.800145864487	None	None	None	None	1
2.7	2015_Jun_12_1141	s	s	21	5	SIC	27	RC	0	2	02VD 02VO 02VC 02MD 02MO 02MC 09RD 02RO	1	0	0.630107879639	38.0	-137.0	41	-136	1
2.7	2015_Jun_12_1141	s	s	21	5	SIC	28	ABS	1	0	02VD 02VO 02VC 02MD 02MO 10MC 02RD 02RO	0	1	1.04698586464	None	None	None	None	1
2.7	2015_Jun_12_1141	s	s	21	5	SIC	29	RC	2	1	02VD 09VO 02VC 02MD 02MO 02MC 02RD 02RO	0	1	0.877632856369	498.0	256.0	None	None	0
2.7	2015_Jun_12_1141	s	s	21	5	SIC	30	RC	2	0	02VD 02VO 09VC 02MD 02MO 02MC 02RD 02RO	0	1	1.13315606117	-406.0	-318.0	None	None	0
2.7	2015_Jun_12_1141	s	s	21	5	SIC	31	RC	1	0	02VD 02VO 02VC 02MD 02MO 09MC 02RD 02RO	1	0	0.587821006775	57.0	-6.0	65	-2	1
2.7	2015_Jun_12_1141	s	s	21	5	SIC	32	ABS	0	2	02VD 02VO 02VC 02MD 02MO 02MC 10RD 02RO	0	1	0.959707021713	None	None	None	None	1
2.7	2015_Jun_12_1141	s	s	21	5	SIC	33	ABS	2	2	10VD 02VO 02VC 02MD 02MO 02MC 02RD 02RO	0	1	1.09130096436	None	None	None	None	1
2.7	2015_Jun_12_1141	s	s	21	5	SIC	34	ABS	1	0	02VD 02VO 02VC 02MD 02MO 10MC 02RD 02RO	0	1	1.28898882866	None	None	None	None	1
2.7	2015_Jun_12_1141	s	s	21	5	SIC	35	ABS	0	1	02VD 02VO 02VC 02MD 02MO 02MC 02RD 10RO	0	1	1.02721095085	None	None	None	None	1
2.7	2015_Jun_12_1141	s	s	21	5	SIC	36	RC	0	1	02VD 02VO 02VC 02MD 02MO 02MC 02RD 09RO	1	0	0.540776014328	-50.0	-69.0	-42	-65	1
2.7	2015_Jun_12_1141	s	s	21	5	SIC	37	RC	1	0	02VD 02VO 02VC 02MD 02MO 09MC 02RD 02RO	1	0	0.784728050232	-444.0	92.0	-451	96	1
2.7	2015_Jun_12_1141	s	s	21	5	SIC	38	RC	1	2	02VD 02VO 02VC 09MD 02MO 02MC 02RD 02RO	0	1	0.924282073975	214.0	275.0	None	None	0
2.7	2015_Jun_12_1141	s	s	21	5	SIC	39	RC	2	2	09VD 02VO 02VC 02MD 02MO 02MC 02RD 02RO	1	0	0.678936958313	280.0	-43.0	291	-37	1
2.7	2015_Jun_12_1141	s	s	21	5	SIC	40	RC	2	0	02VD 02VO 09VC 02MD 02MO 02MC 02RD 02RO	1	0	0.899976968765	-491.0	29.0	-488	25	1
2.7	2015_Jun_12_1141	s	s	21	5	SIC	41	RC	1	1	02VD 02VO 02VC 02MD 09MO 02MC 02RD 02RO	1	0	0.682020187378	84.0	-195.0	93	-190	1
2.7	2015_Jun_12_1141	s	s	21	5	SIC	42	RC	0	2	02VD 02VO 02VC 02MD 02MO 02MC 09RD 02RO	1	0	0.764423847198	-288.0	-80.0	-284	-83	1
2.7	2015_Jun_12_1141	s	s	21	5	SIC	43	ABS	1	1	02VD 02VO 02VC 02MD 10MO 02MC 02RD 02RO	0	1	1.29408288002	None	None	None	None	1
2.7	2015_Jun_12_1141	s	s	21	5	SIC	44	ABS	1	2	02VD 02VO 02VC 10MD 02MO 02MC 02RD 02RO	0	1	1.04695701599	None	None	None	None	1
2.7	2015_Jun_12_1141	s	s	21	5	SIC	45	RC	2	1	02VD 09VO 02VC 02MD 02MO 02MC 02RD 02RO	0	1	0.882093906403	422.0	-202.0	None	None	0
2.7	2015_Jun_12_1141	s	s	21	5	SIC	46	ABS	2	0	02VD 02VO 10VC 02MD 02MO 02MC 02RD 02RO	0	1	0.929277896881	None	None	None	None	1
2.7	2015_Jun_12_1141	s	s	21	5	SIC	47	ABS	2	1	02VD 10VO 02VC 02MD 02MO 02MC 02RD 02RO	1	0	0.646764039993	None	None	-436	-284	0
2.7	2015_Jun_12_1141	s	s	21	5	SIC	48	ABS	0	2	02VD 02VO 02VC 02MD 02MO 02MC 10RD 02RO	0	1	1.03307795525	None	None	None	None	1
2.7	2015_Jun_12_1141	s	s	21	5	SIC	49	ABS	1	0	02VD 02VO 02VC 02MD 02MO 10MC 02RD 02RO	0	1	2.38888096809	None	None	None	None	1
2.7	2015_Jun_12_1141	s	s	21	5	SIC	50	ABS	2	0	02VD 02VO 10VC 02MD 02MO 02MC 02RD 02RO	0	1	1.1684679985	None	None	None	None	1
2.7	2015_Jun_12_1141	s	s	21	5	SIC	51	RC	0	1	02VD 02VO 02VC 02MD 02MO 02MC 02RD 09RO	1	0	0.882215976715	413.0	-55.0	410	-60	1
2.7	2015_Jun_12_1141	s	s	21	5	SIC	52	RC	2	1	02VD 09VO 02VC 02MD 02MO 02MC 02RD 02RO	0	1	0.882062911987	529.0	-255.0	None	None	0
2.7	2015_Jun_12_1141	s	s	21	5	SIC	53	ABS	1	2	02VD 02VO 02VC 10MD 02MO 02MC 02RD 02RO	0	1	0.982795953751	None	None	None	None	1
2.7	2015_Jun_12_1141	s	s	21	5	SIC	54	RC	1	0	02VD 02VO 02VC 02MD 02MO 09MC 02RD 02RO	1	0	0.688905954361	-428.0	114.0	-431	104	1
2.7	2015_Jun_12_1141	s	s	21	5	SIC	55	RC	0	2	02VD 02VO 02VC 02MD 02MO 02MC 09RD 02RO	1	0	0.641951084137	-91.0	-182.0	-94	-180	1
2.7	2015_Jun_12_1141	s	s	21	5	SIC	56	ABS	2	2	10VD 02VO 02VC 02MD 02MO 02MC 02RD 02RO	1	0	0.528887033463	None	None	508	153	0
2.7	2015_Jun_12_1141	s	s	21	5	SIC	57	ABS	0	2	02VD 02VO 02VC 02MD 02MO 02MC 10RD 02RO	0	1	1.14801096916	None	None	None	None	1
2.7	2015_Jun_12_1141	s	s	21	5	SIC	58	RC	1	2	02VD 02VO 02VC 09MD 02MO 02MC 02RD 02RO	1	0	0.795413970947	-62.0	-266.0	-61	-277	1
2.7	2015_Jun_12_1141	s	s	21	5	SIC	59	RC	2	2	09VD 02VO 02VC 02MD 02MO 02MC 02RD 02RO	0	1	0.92599105835	-411.0	288.0	None	None	0
2.7	2015_Jun_12_1141	s	s	21	5	SIC	60	ABS	0	1	02VD 02VO 02VC 02MD 02MO 02MC 02RD 10RO	0	1	2.19380402565	None	None	None	None	1
2.7	2015_Jun_12_1141	s	s	21	5	SIC	61	ABS	2	1	02VD 10VO 02VC 02MD 02MO 02MC 02RD 02RO	0	1	1.31196284294	None	None	None	None	1
2.7	2015_Jun_12_1141	s	s	21	5	SIC	62	ABS	1	1	02VD 02VO 02VC 02MD 10MO 02MC 02RD 02RO	0	1	1.03280496597	None	None	None	None	1
2.7	2015_Jun_12_1141	s	s	21	5	SIC	63	RC	1	1	02VD 02VO 02VC 02MD 09MO 02MC 02RD 02RO	1	0	0.740955114365	-38.0	260.0	-36	256	1
2.7	2015_Jun_12_1141	s	s	21	5	SIC	64	RC	2	0	02VD 02VO 09VC 02MD 02MO 02MC 02RD 02RO	0	1	0.903486967087	-318.0	401.0	None	None	0
2.7	2015_Jun_12_1141	s	s	21	5	SIC	65	ABS	2	1	02VD 10VO 02VC 02MD 02MO 02MC 02RD 02RO	0	1	1.70136785507	None	None	None	None	1
2.7	2015_Jun_12_1141	s	s	21	5	SIC	66	RC	1	0	02VD 02VO 02VC 02MD 02MO 09MC 02RD 02RO	1	0	1.31757616997	-197.0	-223.0	-194	-225	1
2.7	2015_Jun_12_1141	s	s	21	5	SIC	67	ABS	0	2	02VD 02VO 02VC 02MD 02MO 02MC 10RD 02RO	0	1	0.98819899559	None	None	None	None	1
2.7	2015_Jun_12_1141	s	s	21	5	SIC	68	RC	2	1	02VD 09VO 02VC 02MD 02MO 02MC 02RD 02RO	1	0	0.594758987427	-54.0	290.0	-51	286	1
2.7	2015_Jun_12_1141	s	s	21	5	SIC	69	RC	1	1	02VD 02VO 02VC 02MD 09MO 02MC 02RD 02RO	1	0	0.559471845627	-224.0	-44.0	-228	-41	1
2.7	2015_Jun_12_1141	s	s	21	5	SIC	70	ABS	0	1	02VD 02VO 02VC 02MD 02MO 02MC 02RD 10RO	0	1	2.40057992935	None	None	None	None	1
2.7	2015_Jun_12_1141	s	s	21	5	SIC	71	ABS	2	0	02VD 02VO 10VC 02MD 02MO 02MC 02RD 02RO	0	1	1.19996809959	None	None	None	None	1
2.7	2015_Jun_12_1141	s	s	21	5	SIC	72	RC	0	1	02VD 02VO 02VC 02MD 02MO 02MC 02RD 09RO	0	1	1.9885699749	285.0	379.0	None	None	0
2.7	2015_Jun_12_1141	s	s	21	5	SIC	73	ABS	2	2	10VD 02VO 02VC 02MD 02MO 02MC 02RD 02RO	0	1	0.980179071426	None	None	None	None	1
2.7	2015_Jun_12_1141	s	s	21	5	SIC	74	ABS	1	2	02VD 02VO 02VC 10MD 02MO 02MC 02RD 02RO	0	1	0.905642032623	None	None	None	None	1
2.7	2015_Jun_12_1141	s	s	21	5	SIC	75	ABS	1	1	02VD 02VO 02VC 02MD 10MO 02MC 02RD 02RO	0	1	1.24707484245	None	None	None	None	1
2.7	2015_Jun_12_1141	s	s	21	5	SIC	76	RC	1	2	02VD 02VO 02VC 09MD 02MO 02MC 02RD 02RO	1	0	1.21174502373	490.0	-160.0	491	-161	1
2.7	2015_Jun_12_1141	s	s	21	5	SIC	77	RC	2	2	09VD 02VO 02VC 02MD 02MO 02MC 02RD 02RO	0	1	1.43058204651	275.0	-319.0	None	None	0
2.7	2015_Jun_12_1141	s	s	21	5	SIC	78	ABS	1	0	02VD 02VO 02VC 02MD 02MO 10MC 02RD 02RO	1	0	0.917323827744	None	None	-39	-5	0
2.7	2015_Jun_12_1141	s	s	21	5	SIC	79	RC	2	0	02VD 02VO 09VC 02MD 02MO 02MC 02RD 02RO	1	0	0.771236896515	150.0	-191.0	148	-189	1
2.7	2015_Jun_12_1141	s	s	21	5	SIC	80	RC	0	2	02VD 02VO 02VC 02MD 02MO 02MC 09RD 02RO	0	1	1.1951239109	-490.0	-376.0	None	None	0
2.7	2015_Jun_12_1141	s	s	21	5	SIC	81	RC	1	1	02VD 02VO 02VC 02MD 09MO 02MC 02RD 02RO	1	0	0.64181804657	-331.0	319.0	-326	315	1
2.7	2015_Jun_12_1141	s	s	21	5	SIC	82	ABS	0	1	02VD 02VO 02VC 02MD 02MO 02MC 02RD 10RO	0	1	1.57660794258	None	None	None	None	1
2.7	2015_Jun_12_1141	s	s	21	5	SIC	83	ABS	1	1	02VD 02VO 02VC 02MD 10MO 02MC 02RD 02RO	0	1	1.33322882652	None	None	None	None	1
2.7	2015_Jun_12_1141	s	s	21	5	SIC	84	ABS	0	2	02VD 02VO 02VC 02MD 02MO 02MC 10RD 02RO	0	1	1.38345193863	None	None	None	None	1
2.7	2015_Jun_12_1141	s	s	21	5	SIC	85	RC	1	2	02VD 02VO 02VC 09MD 02MO 02MC 02RD 02RO	1	0	1.14492106438	411.0	-151.0	413	-155	1
2.7	2015_Jun_12_1141	s	s	21	5	SIC	86	RC	0	2	02VD 02VO 02VC 02MD 02MO 02MC 09RD 02RO	1	0	0.634989976883	112.0	72.0	113	67	1
2.7	2015_Jun_12_1141	s	s	21	5	SIC	87	ABS	1	0	02VD 02VO 02VC 02MD 02MO 10MC 02RD 02RO	0	1	0.964569091797	None	None	None	None	1
2.7	2015_Jun_12_1141	s	s	21	5	SIC	88	RC	0	1	02VD 02VO 02VC 02MD 02MO 02MC 02RD 09RO	1	0	0.867793083191	22.0	359.0	22	350	1
2.7	2015_Jun_12_1141	s	s	21	5	SIC	89	ABS	1	2	02VD 02VO 02VC 10MD 02MO 02MC 02RD 02RO	0	1	1.21849417686	None	None	None	None	1
2.7	2015_Jun_12_1141	s	s	21	5	SIC	90	ABS	2	2	10VD 02VO 02VC 02MD 02MO 02MC 02RD 02RO	0	1	1.05938386917	None	None	None	None	1
2.7	2015_Jun_12_1141	s	s	21	5	SIC	91	ABS	2	0	02VD 02VO 10VC 02MD 02MO 02MC 02RD 02RO	0	1	1.00640702248	None	None	None	None	1
2.7	2015_Jun_12_1141	s	s	21	5	SIC	92	RC	2	2	09VD 02VO 02VC 02MD 02MO 02MC 02RD 02RO	0	1	0.937119007111	300.0	-30.0	None	None	0
2.7	2015_Jun_12_1141	s	s	21	5	SIC	93	RC	1	0	02VD 02VO 02VC 02MD 02MO 09MC 02RD 02RO	1	0	0.587870121002	-44.0	-159.0	-37	-159	1
2.7	2015_Jun_12_1141	s	s	21	5	SIC	94	RC	2	0	02VD 02VO 09VC 02MD 02MO 02MC 02RD 02RO	1	0	0.889090061188	-416.0	114.0	-412	124	1
2.7	2015_Jun_12_1141	s	s	21	5	SIC	95	RC	2	1	02VD 09VO 02VC 02MD 02MO 02MC 02RD 02RO	1	0	0.583745956421	-54.0	-126.0	-50	-130	1
2.7	2015_Jun_12_1141	s	s	21	5	SIC	96	ABS	2	1	02VD 10VO 02VC 02MD 02MO 02MC 02RD 02RO	0	1	1.05375695229	None	None	None	None	1
2.7	2015_Jun_12_1141	s	s	21	5	SIC	97	RC	2	0	02VD 02VO 09VC 02MD 02MO 02MC 02RD 02RO	1	0	0.682256937027	-315.0	310.0	-307	305	1
2.7	2015_Jun_12_1141	s	s	21	5	SIC	98	RC	2	1	02VD 09VO 02VC 02MD 02MO 02MC 02RD 02RO	0	1	0.835088968277	194.0	-373.0	None	None	0
2.7	2015_Jun_12_1141	s	s	21	5	SIC	99	RC	1	2	02VD 02VO 02VC 09MD 02MO 02MC 02RD 02RO	1	0	0.571439027786	-329.0	17.0	-331	19	1
2.7	2015_Jun_12_1141	s	s	21	5	SIC	100	ABS	1	0	02VD 02VO 02VC 02MD 02MO 10MC 02RD 02RO	0	1	1.2588160038	None	None	None	None	1
2.7	2015_Jun_12_1141	s	s	21	5	SIC	101	ABS	2	2	10VD 02VO 02VC 02MD 02MO 02MC 02RD 02RO	0	1	1.08852291107	None	None	None	None	1
2.7	2015_Jun_12_1141	s	s	21	5	SIC	102	RC	2	2	09VD 02VO 02VC 02MD 02MO 02MC 02RD 02RO	1	0	0.984997987747	-540.0	-124.0	-538	-117	1
2.7	2015_Jun_12_1141	s	s	21	5	SIC	103	ABS	0	1	02VD 02VO 02VC 02MD 02MO 02MC 02RD 10RO	0	1	1.498016119	None	None	None	None	1
2.7	2015_Jun_12_1141	s	s	21	5	SIC	104	ABS	1	1	02VD 02VO 02VC 02MD 10MO 02MC 02RD 02RO	0	1	1.51774096489	None	None	None	None	1
2.7	2015_Jun_12_1141	s	s	21	5	SIC	105	RC	1	0	02VD 02VO 02VC 02MD 02MO 09MC 02RD 02RO	1	0	1.44273304939	-153.0	-239.0	-152	-234	1
2.7	2015_Jun_12_1141	s	s	21	5	SIC	106	ABS	0	2	02VD 02VO 02VC 02MD 02MO 02MC 10RD 02RO	0	1	0.781915903091	None	None	None	None	1
2.7	2015_Jun_12_1141	s	s	21	5	SIC	107	ABS	2	0	02VD 02VO 10VC 02MD 02MO 02MC 02RD 02RO	0	1	0.646728992462	None	None	None	None	1
2.7	2015_Jun_12_1141	s	s	21	5	SIC	108	ABS	1	2	02VD 02VO 02VC 10MD 02MO 02MC 02RD 02RO	0	1	0.818604946136	None	None	None	None	1
2.7	2015_Jun_12_1141	s	s	21	5	SIC	109	RC	0	1	02VD 02VO 02VC 02MD 02MO 02MC 02RD 09RO	1	0	2.37739896774	91.0	400.0	87	403	1
2.7	2015_Jun_12_1141	s	s	21	5	SIC	110	ABS	2	1	02VD 10VO 02VC 02MD 02MO 02MC 02RD 02RO	0	1	0.82944893837	None	None	None	None	1
2.7	2015_Jun_12_1141	s	s	21	5	SIC	111	RC	0	2	02VD 02VO 02VC 02MD 02MO 02MC 09RD 02RO	1	0	1.05383896828	-386.0	121.0	-385	122	1
2.7	2015_Jun_12_1141	s	s	21	5	SIC	112	RC	1	1	02VD 02VO 02VC 02MD 09MO 02MC 02RD 02RO	1	0	0.670235157013	259.0	77.0	254	73	1
2.7	2015_Jun_12_1141	s	s	21	5	SIC	113	ABS	0	2	02VD 02VO 02VC 02MD 02MO 02MC 10RD 02RO	0	1	1.37652087212	None	None	None	None	1
2.7	2015_Jun_12_1141	s	s	21	5	SIC	114	RC	0	2	02VD 02VO 02VC 02MD 02MO 02MC 09RD 02RO	1	0	1.11113095284	298.0	306.0	304	303	1
2.7	2015_Jun_12_1141	s	s	21	5	SIC	115	RC	2	2	09VD 02VO 02VC 02MD 02MO 02MC 02RD 02RO	1	0	0.991786956787	233.0	-157.0	228	-155	1
2.7	2015_Jun_12_1141	s	s	21	5	SIC	116	ABS	1	0	02VD 02VO 02VC 02MD 02MO 10MC 02RD 02RO	0	1	0.89421415329	None	None	None	None	1
2.7	2015_Jun_12_1141	s	s	21	5	SIC	117	ABS	0	1	02VD 02VO 02VC 02MD 02MO 02MC 02RD 10RO	0	1	1.89438915253	None	None	None	None	1
2.7	2015_Jun_12_1141	s	s	21	5	SIC	118	RC	0	1	02VD 02VO 02VC 02MD 02MO 02MC 02RD 09RO	1	0	0.972838163376	-260.0	15.0	-257	7	1
2.7	2015_Jun_12_1141	s	s	21	5	SIC	119	RC	1	0	02VD 02VO 02VC 02MD 02MO 09MC 02RD 02RO	1	0	1.22332501411	47.0	-323.0	46	-324	1
2.7	2015_Jun_12_1141	s	s	21	5	SIC	120	ABS	1	1	02VD 02VO 02VC 02MD 10MO 02MC 02RD 02RO	0	1	1.30128788948	None	None	None	None	1
2.7	2015_Jun_12_1141	s	s	21	5	SIC	121	ABS	1	2	02VD 02VO 02VC 10MD 02MO 02MC 02RD 02RO	0	1	0.947907924652	None	None	None	None	1
2.7	2015_Jun_12_1141	s	s	21	5	SIC	122	RC	2	0	02VD 02VO 09VC 02MD 02MO 02MC 02RD 02RO	1	0	1.16460800171	-371.0	-323.0	-372	-328	1
2.7	2015_Jun_12_1141	s	s	21	5	SIC	123	RC	1	1	02VD 02VO 02VC 02MD 09MO 02MC 02RD 02RO	0	1	1.14119195938	-443.0	352.0	None	None	0
2.7	2015_Jun_12_1141	s	s	21	5	SIC	124	RC	2	1	02VD 09VO 02VC 02MD 02MO 02MC 02RD 02RO	1	0	0.540854930878	93.0	82.0	91	78	1
2.7	2015_Jun_12_1141	s	s	21	5	SIC	125	RC	1	2	02VD 02VO 02VC 09MD 02MO 02MC 02RD 02RO	1	0	0.500751972198	-5.0	48.0	-2	43	1
2.7	2015_Jun_12_1141	s	s	21	5	SIC	126	ABS	2	0	02VD 02VO 10VC 02MD 02MO 02MC 02RD 02RO	0	1	1.23529601097	None	None	None	None	1
2.7	2015_Jun_12_1141	s	s	21	5	SIC	127	ABS	2	2	10VD 02VO 02VC 02MD 02MO 02MC 02RD 02RO	0	1	0.835126876831	None	None	None	None	1
2.7	2015_Jun_12_1141	s	s	21	5	SIC	128	ABS	2	1	02VD 10VO 02VC 02MD 02MO 02MC 02RD 02RO	0	1	1.19988512993	None	None	None	None	1
2.7	2015_Jun_12_1141	s	s	21	5	SIC	129	ABS	1	0	02VD 02VO 02VC 02MD 02MO 10MC 02RD 02RO	0	1	1.01166605949	None	None	None	None	1
2.7	2015_Jun_12_1141	s	s	21	5	SIC	130	ABS	0	2	02VD 02VO 02VC 02MD 02MO 02MC 10RD 02RO	0	1	1.03565096855	None	None	None	None	1
2.7	2015_Jun_12_1141	s	s	21	5	SIC	131	RC	1	0	02VD 02VO 02VC 02MD 02MO 09MC 02RD 02RO	1	0	0.915068149567	216.0	-329.0	214	-330	1
2.7	2015_Jun_12_1141	s	s	21	5	SIC	132	RC	2	1	02VD 09VO 02VC 02MD 02MO 02MC 02RD 02RO	1	0	1.24701690674	256.0	290.0	256	288	1
2.7	2015_Jun_12_1141	s	s	21	5	SIC	133	ABS	2	0	02VD 02VO 10VC 02MD 02MO 02MC 02RD 02RO	0	1	1.23033308983	None	None	None	None	1
2.7	2015_Jun_12_1141	s	s	21	5	SIC	134	RC	0	2	02VD 02VO 02VC 02MD 02MO 02MC 09RD 02RO	1	0	0.870763063431	30.0	309.0	36	310	1
2.7	2015_Jun_12_1141	s	s	21	5	SIC	135	RC	2	0	02VD 02VO 09VC 02MD 02MO 02MC 02RD 02RO	1	0	0.959898948669	-296.0	-393.0	-288	-391	1
2.7	2015_Jun_12_1141	s	s	21	5	SIC	136	RC	1	2	02VD 02VO 02VC 09MD 02MO 02MC 02RD 02RO	0	1	1.35974597931	-483.0	-198.0	None	None	0
2.7	2015_Jun_12_1141	s	s	21	5	SIC	137	ABS	0	1	02VD 02VO 02VC 02MD 02MO 02MC 02RD 10RO	0	1	1.29794001579	None	None	None	None	1
2.7	2015_Jun_12_1141	s	s	21	5	SIC	138	ABS	1	2	02VD 02VO 02VC 10MD 02MO 02MC 02RD 02RO	0	1	1.21182584763	None	None	None	None	1
2.7	2015_Jun_12_1141	s	s	21	5	SIC	139	RC	0	1	02VD 02VO 02VC 02MD 02MO 02MC 02RD 09RO	1	0	0.524092912674	-124.0	12.0	-129	10	1
2.7	2015_Jun_12_1141	s	s	21	5	SIC	140	RC	2	2	09VD 02VO 02VC 02MD 02MO 02MC 02RD 02RO	0	1	1.03089308739	-492.0	113.0	None	None	0
2.7	2015_Jun_12_1141	s	s	21	5	SIC	141	RC	1	1	02VD 02VO 02VC 02MD 09MO 02MC 02RD 02RO	1	0	1.51361203194	-346.0	112.0	-349	116	1
2.7	2015_Jun_12_1141	s	s	21	5	SIC	142	ABS	2	1	02VD 10VO 02VC 02MD 02MO 02MC 02RD 02RO	0	1	1.10100698471	None	None	None	None	1
2.7	2015_Jun_12_1141	s	s	21	5	SIC	143	ABS	2	2	10VD 02VO 02VC 02MD 02MO 02MC 02RD 02RO	1	0	0.78303694725	None	None	5	-32	0
2.7	2015_Jun_12_1141	s	s	21	5	SIC	144	ABS	1	1	02VD 02VO 02VC 02MD 10MO 02MC 02RD 02RO	0	1	1.0907959938	None	None	None	None	1
2.7	2015_Jun_12_1141	s	s	21	5	SIC	145	ABS	0	1	02VD 02VO 02VC 02MD 02MO 02MC 02RD 10RO	0	1	1.68259692192	None	None	None	None	1
2.7	2015_Jun_12_1141	s	s	21	5	SIC	146	ABS	1	1	02VD 02VO 02VC 02MD 10MO 02MC 02RD 02RO	0	1	1.00818705559	None	None	None	None	1
2.7	2015_Jun_12_1141	s	s	21	5	SIC	147	RC	2	1	02VD 09VO 02VC 02MD 02MO 02MC 02RD 02RO	1	0	0.724331855774	296.0	163.0	297	161	1
2.7	2015_Jun_12_1141	s	s	21	5	SIC	148	RC	2	0	02VD 02VO 09VC 02MD 02MO 02MC 02RD 02RO	0	1	0.806603908539	360.0	-49.0	None	None	0
2.7	2015_Jun_12_1141	s	s	21	5	SIC	149	ABS	1	2	02VD 02VO 02VC 10MD 02MO 02MC 02RD 02RO	0	1	0.935475826263	None	None	None	None	1
2.7	2015_Jun_12_1141	s	s	21	5	SIC	150	ABS	2	0	02VD 02VO 10VC 02MD 02MO 02MC 02RD 02RO	0	1	1.08738183975	None	None	None	None	1
2.7	2015_Jun_12_1141	s	s	21	5	SIC	151	ABS	1	0	02VD 02VO 02VC 02MD 02MO 10MC 02RD 02RO	0	1	1.18861603737	None	None	None	None	1
2.7	2015_Jun_12_1141	s	s	21	5	SIC	152	ABS	2	2	10VD 02VO 02VC 02MD 02MO 02MC 02RD 02RO	0	1	1.2307138443	None	None	None	None	1
2.7	2015_Jun_12_1141	s	s	21	5	SIC	153	RC	2	2	09VD 02VO 02VC 02MD 02MO 02MC 02RD 02RO	0	1	0.962553977966	515.0	189.0	None	None	0
2.7	2015_Jun_12_1141	s	s	21	5	SIC	154	RC	0	2	02VD 02VO 02VC 02MD 02MO 02MC 09RD 02RO	0	1	0.811579942703	313.0	338.0	None	None	0
2.7	2015_Jun_12_1141	s	s	21	5	SIC	155	RC	1	1	02VD 02VO 02VC 02MD 09MO 02MC 02RD 02RO	1	0	0.705962896347	-199.0	52.0	-195	44	1
2.7	2015_Jun_12_1141	s	s	21	5	SIC	156	RC	1	0	02VD 02VO 02VC 02MD 02MO 09MC 02RD 02RO	1	0	0.717386960983	-126.0	224.0	-123	216	1
2.7	2015_Jun_12_1141	s	s	21	5	SIC	157	ABS	0	2	02VD 02VO 02VC 02MD 02MO 02MC 10RD 02RO	0	1	0.827091932297	None	None	None	None	1
2.7	2015_Jun_12_1141	s	s	21	5	SIC	158	RC	0	1	02VD 02VO 02VC 02MD 02MO 02MC 02RD 09RO	1	0	1.25881695747	306.0	-203.0	315	-207	1
2.7	2015_Jun_12_1141	s	s	21	5	SIC	159	RC	1	2	02VD 02VO 02VC 09MD 02MO 02MC 02RD 02RO	1	0	0.9503428936	-324.0	-31.0	-322	-43	1
2.7	2015_Jun_12_1141	s	s	21	5	SIC	160	ABS	2	1	02VD 10VO 02VC 02MD 02MO 02MC 02RD 02RO	0	1	1.04692101479	None	None	None	None	1
2.7	2015_Jun_12_1141	s	s	21	5	SIC	161	ABS	1	0	02VD 02VO 02VC 02MD 02MO 10MC 02RD 02RO	0	1	1.79532909393	None	None	None	None	1
2.7	2015_Jun_12_1141	s	s	21	5	SIC	162	RC	1	1	02VD 02VO 02VC 02MD 09MO 02MC 02RD 02RO	1	0	0.536136865616	49.0	22.0	42	19	1
2.7	2015_Jun_12_1141	s	s	21	5	SIC	163	ABS	0	2	02VD 02VO 02VC 02MD 02MO 02MC 10RD 02RO	0	1	0.894022941589	None	None	None	None	1
2.7	2015_Jun_12_1141	s	s	21	5	SIC	164	ABS	1	2	02VD 02VO 02VC 10MD 02MO 02MC 02RD 02RO	0	1	0.947848081589	None	None	None	None	1
2.7	2015_Jun_12_1141	s	s	21	5	SIC	165	ABS	1	1	02VD 02VO 02VC 02MD 10MO 02MC 02RD 02RO	0	1	1.01541996002	None	None	None	None	1
2.7	2015_Jun_12_1141	s	s	21	5	SIC	166	RC	1	2	02VD 02VO 02VC 09MD 02MO 02MC 02RD 02RO	0	1	0.805510044098	-410.0	269.0	None	None	0
2.7	2015_Jun_12_1141	s	s	21	5	SIC	167	RC	2	0	02VD 02VO 09VC 02MD 02MO 02MC 02RD 02RO	1	0	0.629817008972	215.0	-136.0	222	-136	1
2.7	2015_Jun_12_1141	s	s	21	5	SIC	168	ABS	2	0	02VD 02VO 10VC 02MD 02MO 02MC 02RD 02RO	0	1	0.818323850632	None	None	None	None	1
2.7	2015_Jun_12_1141	s	s	21	5	SIC	169	ABS	2	1	02VD 10VO 02VC 02MD 02MO 02MC 02RD 02RO	0	1	1.18290400505	None	None	None	None	1
2.7	2015_Jun_12_1141	s	s	21	5	SIC	170	RC	1	0	02VD 02VO 02VC 02MD 02MO 09MC 02RD 02RO	0	1	1.41812610626	-260.0	-213.0	None	None	0
2.7	2015_Jun_12_1141	s	s	21	5	SIC	171	RC	0	2	02VD 02VO 02VC 02MD 02MO 02MC 09RD 02RO	1	0	0.488931179047	-139.0	33.0	-146	36	1
2.7	2015_Jun_12_1141	s	s	21	5	SIC	172	ABS	2	2	10VD 02VO 02VC 02MD 02MO 02MC 02RD 02RO	0	1	0.877327203751	None	None	None	None	1
2.7	2015_Jun_12_1141	s	s	21	5	SIC	173	RC	2	1	02VD 09VO 02VC 02MD 02MO 02MC 02RD 02RO	0	1	0.641983032227	58.0	345.0	None	None	0
2.7	2015_Jun_12_1141	s	s	21	5	SIC	174	RC	2	2	09VD 02VO 02VC 02MD 02MO 02MC 02RD 02RO	1	0	1.01179099083	-495.0	-46.0	-497	-51	1
2.7	2015_Jun_12_1141	s	s	21	5	SIC	175	ABS	0	1	02VD 02VO 02VC 02MD 02MO 02MC 02RD 10RO	0	1	1.3058450222	None	None	None	None	1
2.7	2015_Jun_12_1141	s	s	21	5	SIC	176	RC	0	1	02VD 02VO 02VC 02MD 02MO 02MC 02RD 09RO	1	0	0.655417919159	-26.0	39.0	-26	33	1
2.7	2015_Jun_12_1141	s	s	21	5	SIC	177	ABS	1	0	02VD 02VO 02VC 02MD 02MO 10MC 02RD 02RO	0	1	1.97719502449	None	None	None	None	1
2.7	2015_Jun_12_1141	s	s	21	5	SIC	178	ABS	0	1	02VD 02VO 02VC 02MD 02MO 02MC 02RD 10RO	0	1	1.05878901482	None	None	None	None	1
2.7	2015_Jun_12_1141	s	s	21	5	SIC	179	RC	1	1	02VD 02VO 02VC 02MD 09MO 02MC 02RD 02RO	1	0	1.28965091705	-479.0	-155.0	-471	-154	1
2.7	2015_Jun_12_1141	s	s	21	5	SIC	180	RC	2	1	02VD 09VO 02VC 02MD 02MO 02MC 02RD 02RO	1	0	1.17156410217	232.0	-170.0	236	-174	1
2.7	2015_Jun_12_1141	s	s	21	5	SIC	181	ABS	2	0	02VD 02VO 10VC 02MD 02MO 02MC 02RD 02RO	0	1	0.729146003723	None	None	None	None	1
2.7	2015_Jun_12_1141	s	s	21	5	SIC	182	RC	1	0	02VD 02VO 02VC 02MD 02MO 09MC 02RD 02RO	0	1	1.00838208199	348.0	371.0	None	None	0
2.7	2015_Jun_12_1141	s	s	21	5	SIC	183	RC	0	1	02VD 02VO 02VC 02MD 02MO 02MC 02RD 09RO	0	1	0.740941047668	354.0	32.0	None	None	0
2.7	2015_Jun_12_1141	s	s	21	5	SIC	184	ABS	0	2	02VD 02VO 02VC 02MD 02MO 02MC 10RD 02RO	0	1	1.21855902672	None	None	None	None	1
2.7	2015_Jun_12_1141	s	s	21	5	SIC	185	RC	2	2	09VD 02VO 02VC 02MD 02MO 02MC 02RD 02RO	1	0	0.838848114014	38.0	411.0	38	408	1
2.7	2015_Jun_12_1141	s	s	21	5	SIC	186	RC	1	2	02VD 02VO 02VC 09MD 02MO 02MC 02RD 02RO	1	0	0.552617073059	-477.0	20.0	-482	16	1
2.7	2015_Jun_12_1141	s	s	21	5	SIC	187	ABS	1	1	02VD 02VO 02VC 02MD 10MO 02MC 02RD 02RO	0	1	0.891163110733	None	None	None	None	1
2.7	2015_Jun_12_1141	s	s	21	5	SIC	188	ABS	1	2	02VD 02VO 02VC 10MD 02MO 02MC 02RD 02RO	0	1	1.37657380104	None	None	None	None	1
2.7	2015_Jun_12_1141	s	s	21	5	SIC	189	ABS	2	2	10VD 02VO 02VC 02MD 02MO 02MC 02RD 02RO	0	1	1.12456703186	None	None	None	None	1
2.7	2015_Jun_12_1141	s	s	21	5	SIC	190	RC	0	2	02VD 02VO 02VC 02MD 02MO 02MC 09RD 02RO	1	0	0.55259680748	-93.0	122.0	-92	116	1
2.7	2015_Jun_12_1141	s	s	21	5	SIC	191	ABS	2	1	02VD 10VO 02VC 02MD 02MO 02MC 02RD 02RO	1	0	0.747756004333	None	None	-389	8	0
2.7	2015_Jun_12_1141	s	s	21	5	SIC	192	RC	2	0	02VD 02VO 09VC 02MD 02MO 02MC 02RD 02RO	1	0	0.926826953888	278.0	54.0	288	59	1
2.7	2015_Jun_12_1141	s	s	21	5	SIC	193	RC	2	1	02VD 09VO 02VC 02MD 02MO 02MC 02RD 02RO	1	0	0.747716903687	209.0	-152.0	212	-150	1
2.7	2015_Jun_12_1141	s	s	21	5	SIC	194	RC	1	2	02VD 02VO 02VC 09MD 02MO 02MC 02RD 02RO	1	0	1.34115195274	-474.0	187.0	-482	191	1
2.7	2015_Jun_12_1141	s	s	21	5	SIC	195	ABS	2	2	10VD 02VO 02VC 02MD 02MO 02MC 02RD 02RO	0	1	1.98375201225	None	None	None	None	1
2.7	2015_Jun_12_1141	s	s	21	5	SIC	196	RC	0	2	02VD 02VO 02VC 02MD 02MO 02MC 09RD 02RO	1	0	0.893945217133	369.0	-120.0	379	-118	1
2.7	2015_Jun_12_1141	s	s	21	5	SIC	197	ABS	0	2	02VD 02VO 02VC 02MD 02MO 02MC 10RD 02RO	0	1	1.43538713455	None	None	None	None	1
2.7	2015_Jun_12_1141	s	s	21	5	SIC	198	RC	2	0	02VD 02VO 09VC 02MD 02MO 02MC 02RD 02RO	1	0	0.858618021011	-199.0	25.0	-199	19	1
2.7	2015_Jun_12_1141	s	s	21	5	SIC	199	ABS	2	0	02VD 02VO 10VC 02MD 02MO 02MC 02RD 02RO	0	1	1.14790821075	None	None	None	None	1
2.7	2015_Jun_12_1141	s	s	21	5	SIC	200	RC	2	2	09VD 02VO 02VC 02MD 02MO 02MC 02RD 02RO	1	0	0.811573982239	274.0	-370.0	282	-367	1
2.7	2015_Jun_12_1141	s	s	21	5	SIC	201	ABS	0	1	02VD 02VO 02VC 02MD 02MO 02MC 02RD 10RO	0	1	2.01835799217	None	None	None	None	1
2.7	2015_Jun_12_1141	s	s	21	5	SIC	202	ABS	2	1	02VD 10VO 02VC 02MD 02MO 02MC 02RD 02RO	0	1	1.0884950161	None	None	None	None	1
2.7	2015_Jun_12_1141	s	s	21	5	SIC	203	RC	1	0	02VD 02VO 02VC 02MD 02MO 09MC 02RD 02RO	1	0	0.548792123795	-128.0	-50.0	-134	-42	1
2.7	2015_Jun_12_1141	s	s	21	5	SIC	204	RC	0	1	02VD 02VO 02VC 02MD 02MO 02MC 02RD 09RO	0	1	0.8445789814	189.0	-122.0	None	None	0
2.7	2015_Jun_12_1141	s	s	21	5	SIC	205	RC	1	1	02VD 02VO 02VC 02MD 09MO 02MC 02RD 02RO	1	0	1.009360075	211.0	-396.0	216	-398	1
2.7	2015_Jun_12_1141	s	s	21	5	SIC	206	ABS	1	2	02VD 02VO 02VC 10MD 02MO 02MC 02RD 02RO	0	1	1.03292584419	None	None	None	None	1
2.7	2015_Jun_12_1141	s	s	21	5	SIC	207	ABS	1	1	02VD 02VO 02VC 02MD 10MO 02MC 02RD 02RO	0	1	0.929099082947	None	None	None	None	1
2.7	2015_Jun_12_1141	s	s	21	5	SIC	208	ABS	1	0	02VD 02VO 02VC 02MD 02MO 10MC 02RD 02RO	0	1	0.725989818573	None	None	None	None	1
2.7	2015_Jun_12_1141	s	s	21	5	SIC	209	RC	1	0	02VD 02VO 02VC 02MD 02MO 09MC 02RD 02RO	1	0	1.18331408501	278.0	132.0	279	117	1
2.7	2015_Jun_12_1141	s	s	21	5	SIC	210	ABS	1	1	02VD 02VO 02VC 02MD 10MO 02MC 02RD 02RO	0	1	1.48923206329	None	None	None	None	1
2.7	2015_Jun_12_1141	s	s	21	5	SIC	211	RC	2	0	02VD 02VO 09VC 02MD 02MO 02MC 02RD 02RO	1	0	1.90135884285	-43.0	402.0	-36	397	1
2.7	2015_Jun_12_1141	s	s	21	5	SIC	212	RC	1	2	02VD 02VO 02VC 09MD 02MO 02MC 02RD 02RO	1	0	0.771380901337	263.0	197.0	265	194	1
2.7	2015_Jun_12_1141	s	s	21	5	SIC	213	ABS	1	2	02VD 02VO 02VC 10MD 02MO 02MC 02RD 02RO	0	1	1.6189160347	None	None	None	None	1
2.7	2015_Jun_12_1141	s	s	21	5	SIC	214	ABS	0	2	02VD 02VO 02VC 02MD 02MO 02MC 10RD 02RO	0	1	1.21866202354	None	None	None	None	1
2.7	2015_Jun_12_1141	s	s	21	5	SIC	215	ABS	0	1	02VD 02VO 02VC 02MD 02MO 02MC 02RD 10RO	0	1	2.37740492821	None	None	None	None	1
2.7	2015_Jun_12_1141	s	s	21	5	SIC	216	RC	0	1	02VD 02VO 02VC 02MD 02MO 02MC 02RD 09RO	1	0	1.60638284683	-19.0	354.0	-22	357	1
2.7	2015_Jun_12_1141	s	s	21	5	SIC	217	RC	1	1	02VD 02VO 02VC 02MD 09MO 02MC 02RD 02RO	0	1	1.00842499733	215.0	314.0	None	None	0
2.7	2015_Jun_12_1141	s	s	21	5	SIC	218	RC	0	2	02VD 02VO 02VC 02MD 02MO 02MC 09RD 02RO	1	0	0.632412910461	-54.0	-193.0	-43	-186	1
2.7	2015_Jun_12_1141	s	s	21	5	SIC	219	ABS	2	1	02VD 10VO 02VC 02MD 02MO 02MC 02RD 02RO	0	1	0.888591051102	None	None	None	None	1
2.7	2015_Jun_12_1141	s	s	21	5	SIC	220	ABS	1	0	02VD 02VO 02VC 02MD 02MO 10MC 02RD 02RO	0	1	0.690768957138	None	None	None	None	1
2.7	2015_Jun_12_1141	s	s	21	5	SIC	221	RC	2	1	02VD 09VO 02VC 02MD 02MO 02MC 02RD 02RO	1	0	0.500803947449	9.0	115.0	3	106	1
2.7	2015_Jun_12_1141	s	s	21	5	SIC	222	RC	2	2	09VD 02VO 02VC 02MD 02MO 02MC 02RD 02RO	1	0	0.870344877243	-384.0	108.0	-383	101	1
2.7	2015_Jun_12_1141	s	s	21	5	SIC	223	ABS	2	0	02VD 02VO 10VC 02MD 02MO 02MC 02RD 02RO	0	1	1.41878008842	None	None	None	None	1
2.7	2015_Jun_12_1141	s	s	21	5	SIC	224	ABS	2	2	10VD 02VO 02VC 02MD 02MO 02MC 02RD 02RO	0	1	0.858621120453	None	None	None	None	1
2.7	2015_Jun_12_1141	s	s	21	5	SIC	225	RC	2	2	09VD 02VO 02VC 02MD 02MO 02MC 02RD 02RO	1	0	0.587860822678	89.0	-84.0	92	-89	1
2.7	2015_Jun_12_1141	s	s	21	5	SIC	226	RC	2	0	02VD 02VO 09VC 02MD 02MO 02MC 02RD 02RO	1	0	1.14109802246	-529.0	-350.0	-530	-357	1
2.7	2015_Jun_12_1141	s	s	21	5	SIC	227	RC	1	0	02VD 02VO 02VC 02MD 02MO 09MC 02RD 02RO	1	0	0.834995985031	-158.0	290.0	-159	293	1
2.7	2015_Jun_12_1141	s	s	21	5	SIC	228	RC	0	2	02VD 02VO 02VC 02MD 02MO 02MC 09RD 02RO	1	0	0.488485813141	-57.0	-4.0	-59	-12	1
2.7	2015_Jun_12_1141	s	s	21	5	SIC	229	ABS	1	0	02VD 02VO 02VC 02MD 02MO 10MC 02RD 02RO	0	1	1.9373588562	None	None	None	None	1
2.7	2015_Jun_12_1141	s	s	21	5	SIC	230	RC	0	1	02VD 02VO 02VC 02MD 02MO 02MC 02RD 09RO	1	0	0.858693122864	-290.0	52.0	-280	50	1
2.7	2015_Jun_12_1141	s	s	21	5	SIC	231	ABS	2	0	02VD 02VO 10VC 02MD 02MO 02MC 02RD 02RO	0	1	0.999820947647	None	None	None	None	1
2.7	2015_Jun_12_1141	s	s	21	5	SIC	232	ABS	1	1	02VD 02VO 02VC 02MD 10MO 02MC 02RD 02RO	0	1	1.11498188972	None	None	None	None	1
2.7	2015_Jun_12_1141	s	s	21	5	SIC	233	ABS	0	2	02VD 02VO 02VC 02MD 02MO 02MC 10RD 02RO	0	1	0.947478055954	None	None	None	None	1
2.7	2015_Jun_12_1141	s	s	21	5	SIC	234	RC	1	1	02VD 02VO 02VC 02MD 09MO 02MC 02RD 02RO	0	1	0.888607025146	411.0	-64.0	None	None	0
2.7	2015_Jun_12_1141	s	s	21	5	SIC	235	RC	1	2	02VD 02VO 02VC 09MD 02MO 02MC 02RD 02RO	0	1	0.818650960922	-531.0	230.0	None	None	0
2.7	2015_Jun_12_1141	s	s	21	5	SIC	236	ABS	2	1	02VD 10VO 02VC 02MD 02MO 02MC 02RD 02RO	0	1	0.783224821091	None	None	None	None	1
2.7	2015_Jun_12_1141	s	s	21	5	SIC	237	ABS	0	1	02VD 02VO 02VC 02MD 02MO 02MC 02RD 10RO	0	1	1.1480140686	None	None	None	None	1
2.7	2015_Jun_12_1141	s	s	21	5	SIC	238	RC	2	1	02VD 09VO 02VC 02MD 02MO 02MC 02RD 02RO	0	1	0.724118947983	296.0	354.0	None	None	0
2.7	2015_Jun_12_1141	s	s	21	5	SIC	239	ABS	1	2	02VD 02VO 02VC 10MD 02MO 02MC 02RD 02RO	0	1	0.611496925354	None	None	None	None	1
2.7	2015_Jun_12_1141	s	s	21	5	SIC	240	ABS	2	2	10VD 02VO 02VC 02MD 02MO 02MC 02RD 02RO	0	1	0.899659872055	None	None	None	None	1
2.7	2015_Jun_12_1141	s	s	21	5	SIC	241	ABS	2	1	02VD 10VO 02VC 02MD 02MO 02MC 02RD 02RO	0	1	1.04310011864	None	None	None	None	1
2.7	2015_Jun_12_1141	s	s	21	5	SIC	242	RC	0	2	02VD 02VO 02VC 02MD 02MO 02MC 09RD 02RO	1	0	1.19504094124	315.0	-365.0	316	-365	1
2.7	2015_Jun_12_1141	s	s	21	5	SIC	243	ABS	1	2	02VD 02VO 02VC 10MD 02MO 02MC 02RD 02RO	0	1	0.64176607132	None	None	None	None	1
2.7	2015_Jun_12_1141	s	s	21	5	SIC	244	RC	0	1	02VD 02VO 02VC 02MD 02MO 02MC 02RD 09RO	0	1	0.913421154022	-376.0	127.0	None	None	0
2.7	2015_Jun_12_1141	s	s	21	5	SIC	245	RC	2	0	02VD 02VO 09VC 02MD 02MO 02MC 02RD 02RO	0	1	1.77193117142	106.0	-361.0	None	None	0
2.7	2015_Jun_12_1141	s	s	21	5	SIC	246	RC	2	2	09VD 02VO 02VC 02MD 02MO 02MC 02RD 02RO	1	0	0.776220798492	447.0	-57.0	439	-57	1
2.7	2015_Jun_12_1141	s	s	21	5	SIC	247	RC	1	0	02VD 02VO 02VC 02MD 02MO 09MC 02RD 02RO	0	1	0.823303937912	423.0	376.0	None	None	0
2.7	2015_Jun_12_1141	s	s	21	5	SIC	248	ABS	0	2	02VD 02VO 02VC 02MD 02MO 02MC 10RD 02RO	0	1	1.08919906616	None	None	None	None	1
2.7	2015_Jun_12_1141	s	s	21	5	SIC	249	ABS	2	2	10VD 02VO 02VC 02MD 02MO 02MC 02RD 02RO	0	1	2.03565597534	None	None	None	None	1
2.7	2015_Jun_12_1141	s	s	21	5	SIC	250	ABS	1	1	02VD 02VO 02VC 02MD 10MO 02MC 02RD 02RO	0	1	0.752645969391	None	None	None	None	1
2.7	2015_Jun_12_1141	s	s	21	5	SIC	251	ABS	2	0	02VD 02VO 10VC 02MD 02MO 02MC 02RD 02RO	0	1	1.03083515167	None	None	None	None	1
2.7	2015_Jun_12_1141	s	s	21	5	SIC	252	RC	1	1	02VD 02VO 02VC 02MD 09MO 02MC 02RD 02RO	1	0	0.973135948181	-411.0	332.0	-412	329	1
2.7	2015_Jun_12_1141	s	s	21	5	SIC	253	ABS	0	1	02VD 02VO 02VC 02MD 02MO 02MC 02RD 10RO	0	1	1.51452517509	None	None	None	None	1
2.7	2015_Jun_12_1141	s	s	21	5	SIC	254	ABS	1	0	02VD 02VO 02VC 02MD 02MO 10MC 02RD 02RO	0	1	1.18595600128	None	None	None	None	1
2.7	2015_Jun_12_1141	s	s	21	5	SIC	255	RC	2	1	02VD 09VO 02VC 02MD 02MO 02MC 02RD 02RO	1	0	0.665328025818	246.0	-138.0	240	-145	1
2.7	2015_Jun_12_1141	s	s	21	5	SIC	256	RC	1	2	02VD 02VO 02VC 09MD 02MO 02MC 02RD 02RO	1	0	1.54128909111	-314.0	143.0	-307	139	1
2.7	2015_Jun_12_1141	s	s	21	5	SIC	257	RC	0	1	02VD 02VO 02VC 02MD 02MO 02MC 02RD 09RO	1	0	0.620992183685	51.0	-270.0	54	-282	1
2.7	2015_Jun_12_1141	s	s	21	5	SIC	258	RC	0	2	02VD 02VO 02VC 02MD 02MO 02MC 09RD 02RO	1	0	0.764521121979	202.0	-18.0	205	-21	1
2.7	2015_Jun_12_1141	s	s	21	5	SIC	259	RC	1	2	02VD 02VO 02VC 09MD 02MO 02MC 02RD 02RO	1	0	0.770537853241	264.0	-339.0	270	-343	1
2.7	2015_Jun_12_1141	s	s	21	5	SIC	260	ABS	2	2	10VD 02VO 02VC 02MD 02MO 02MC 02RD 02RO	0	1	1.11801409721	None	None	None	None	1
2.7	2015_Jun_12_1141	s	s	21	5	SIC	261	RC	2	0	02VD 02VO 09VC 02MD 02MO 02MC 02RD 02RO	0	1	0.988108873367	-436.0	335.0	None	None	0
2.7	2015_Jun_12_1141	s	s	21	5	SIC	262	RC	2	1	02VD 09VO 02VC 02MD 02MO 02MC 02RD 02RO	1	0	0.787977218628	-121.0	-296.0	-123	-306	1
2.7	2015_Jun_12_1141	s	s	21	5	SIC	263	RC	1	1	02VD 02VO 02VC 02MD 09MO 02MC 02RD 02RO	0	1	1.07045602798	-411.0	-193.0	None	None	0
2.7	2015_Jun_12_1141	s	s	21	5	SIC	264	ABS	1	0	02VD 02VO 02VC 02MD 02MO 10MC 02RD 02RO	1	0	1.9062359333	None	None	28	-97	0
2.7	2015_Jun_12_1141	s	s	21	5	SIC	265	ABS	0	1	02VD 02VO 02VC 02MD 02MO 02MC 02RD 10RO	0	1	1.38030791283	None	None	None	None	1
2.7	2015_Jun_12_1141	s	s	21	5	SIC	266	RC	1	0	02VD 02VO 02VC 02MD 02MO 09MC 02RD 02RO	1	0	1.5012140274	91.0	318.0	90	321	1
2.7	2015_Jun_12_1141	s	s	21	5	SIC	267	RC	2	2	09VD 02VO 02VC 02MD 02MO 02MC 02RD 02RO	1	0	0.679836034775	332.0	-118.0	336	-112	1
2.7	2015_Jun_12_1141	s	s	21	5	SIC	268	ABS	1	2	02VD 02VO 02VC 10MD 02MO 02MC 02RD 02RO	0	1	0.981809854507	None	None	None	None	1
2.7	2015_Jun_12_1141	s	s	21	5	SIC	269	ABS	2	0	02VD 02VO 10VC 02MD 02MO 02MC 02RD 02RO	0	1	1.63132405281	None	None	None	None	1
2.7	2015_Jun_12_1141	s	s	21	5	SIC	270	ABS	1	1	02VD 02VO 02VC 02MD 10MO 02MC 02RD 02RO	0	1	1.46532821655	None	None	None	None	1
2.7	2015_Jun_12_1141	s	s	21	5	SIC	271	ABS	2	1	02VD 10VO 02VC 02MD 02MO 02MC 02RD 02RO	0	1	1.37164497375	None	None	None	None	1
2.7	2015_Jun_12_1141	s	s	21	5	SIC	272	ABS	0	2	02VD 02VO 02VC 02MD 02MO 02MC 10RD 02RO	0	1	1.04134488106	None	None	None	None	1
2.7	2015_Jun_12_1141	s	s	21	5	SIC	273	ABS	0	1	02VD 02VO 02VC 02MD 02MO 02MC 02RD 10RO	0	1	2.00577998161	None	None	None	None	1
2.7	2015_Jun_12_1141	s	s	21	5	SIC	274	RC	0	2	02VD 02VO 02VC 02MD 02MO 02MC 09RD 02RO	1	0	1.36484909058	302.0	-374.0	302	-367	1
2.7	2015_Jun_12_1141	s	s	21	5	SIC	275	RC	2	2	09VD 02VO 02VC 02MD 02MO 02MC 02RD 02RO	0	1	1.20675897598	-425.0	-121.0	None	None	0
2.7	2015_Jun_12_1141	s	s	21	5	SIC	276	ABS	2	1	02VD 10VO 02VC 02MD 02MO 02MC 02RD 02RO	0	1	1.51775217056	None	None	None	None	1
2.7	2015_Jun_12_1141	s	s	21	5	SIC	277	RC	1	2	02VD 02VO 02VC 09MD 02MO 02MC 02RD 02RO	1	0	0.646746873856	-235.0	-34.0	-234	-43	1
2.7	2015_Jun_12_1141	s	s	21	5	SIC	278	RC	1	1	02VD 02VO 02VC 02MD 09MO 02MC 02RD 02RO	1	0	2.4661719799	-243.0	240.0	-240	236	1
2.7	2015_Jun_12_1141	s	s	21	5	SIC	279	RC	2	0	02VD 02VO 09VC 02MD 02MO 02MC 02RD 02RO	1	0	0.641924142838	-269.0	31.0	-259	34	1
2.7	2015_Jun_12_1141	s	s	21	5	SIC	280	ABS	2	2	10VD 02VO 02VC 02MD 02MO 02MC 02RD 02RO	0	1	2.08294320107	None	None	None	None	1
2.7	2015_Jun_12_1141	s	s	21	5	SIC	281	ABS	2	0	02VD 02VO 10VC 02MD 02MO 02MC 02RD 02RO	0	1	1.02338409424	None	None	None	None	1
2.7	2015_Jun_12_1141	s	s	21	5	SIC	282	ABS	1	2	02VD 02VO 02VC 10MD 02MO 02MC 02RD 02RO	0	1	0.776232004166	None	None	None	None	1
2.7	2015_Jun_12_1141	s	s	21	5	SIC	283	RC	2	1	02VD 09VO 02VC 02MD 02MO 02MC 02RD 02RO	1	0	0.740920066833	159.0	118.0	163	114	1
2.7	2015_Jun_12_1141	s	s	21	5	SIC	284	ABS	1	1	02VD 02VO 02VC 02MD 10MO 02MC 02RD 02RO	0	1	1.09056901932	None	None	None	None	1
2.7	2015_Jun_12_1141	s	s	21	5	SIC	285	ABS	0	2	02VD 02VO 02VC 02MD 02MO 02MC 10RD 02RO	0	1	1.02737879753	None	None	None	None	1
2.7	2015_Jun_12_1141	s	s	21	5	SIC	286	RC	1	0	02VD 02VO 02VC 02MD 02MO 09MC 02RD 02RO	1	0	0.677353858948	325.0	58.0	323	57	1
2.7	2015_Jun_12_1141	s	s	21	5	SIC	287	ABS	1	0	02VD 02VO 02VC 02MD 02MO 10MC 02RD 02RO	0	1	1.19997882843	None	None	None	None	1
2.7	2015_Jun_12_1141	s	s	21	5	SIC	288	RC	0	1	02VD 02VO 02VC 02MD 02MO 02MC 02RD 09RO	1	0	0.8061439991	-51.0	122.0	-58	126	1
2.7	2015_Jun_12_1141	s	s	21	5	SIC	289	RC	2	2	09VD 02VO 02VC 02MD 02MO 02MC 02RD 02RO	1	0	1.05491805077	272.0	-159.0	276	-162	1
2.7	2015_Jun_12_1141	s	s	21	5	SIC	290	ABS	2	2	10VD 02VO 02VC 02MD 02MO 02MC 02RD 02RO	0	1	1.05909085274	None	None	None	None	1
2.7	2015_Jun_12_1141	s	s	21	5	SIC	291	RC	1	2	02VD 02VO 02VC 09MD 02MO 02MC 02RD 02RO	0	1	0.903004169464	208.0	208.0	None	None	0
2.7	2015_Jun_12_1141	s	s	21	5	SIC	292	ABS	1	1	02VD 02VO 02VC 02MD 10MO 02MC 02RD 02RO	0	1	1.28912782669	None	None	None	None	1
2.7	2015_Jun_12_1141	s	s	21	5	SIC	293	ABS	2	1	02VD 10VO 02VC 02MD 02MO 02MC 02RD 02RO	0	1	1.11361002922	None	None	None	None	1
2.7	2015_Jun_12_1141	s	s	21	5	SIC	294	ABS	0	2	02VD 02VO 02VC 02MD 02MO 02MC 10RD 02RO	0	1	0.917414188385	None	None	None	None	1
2.7	2015_Jun_12_1141	s	s	21	5	SIC	295	ABS	0	1	02VD 02VO 02VC 02MD 02MO 02MC 02RD 10RO	0	1	1.63047099113	None	None	None	None	1
2.7	2015_Jun_12_1141	s	s	21	5	SIC	296	RC	2	0	02VD 02VO 09VC 02MD 02MO 02MC 02RD 02RO	1	0	1.35299396515	-347.0	404.0	-348	410	1
2.7	2015_Jun_12_1141	s	s	21	5	SIC	297	RC	1	0	02VD 02VO 02VC 02MD 02MO 09MC 02RD 02RO	0	1	1.38310194016	-166.0	228.0	None	None	0
2.7	2015_Jun_12_1141	s	s	21	5	SIC	298	ABS	2	0	02VD 02VO 10VC 02MD 02MO 02MC 02RD 02RO	0	1	0.806512832642	None	None	None	None	1
2.7	2015_Jun_12_1141	s	s	21	5	SIC	299	ABS	1	2	02VD 02VO 02VC 10MD 02MO 02MC 02RD 02RO	0	1	1.03533482552	None	None	None	None	1
2.7	2015_Jun_12_1141	s	s	21	5	SIC	300	RC	0	1	02VD 02VO 02VC 02MD 02MO 02MC 02RD 09RO	1	0	1.88927698135	378.0	-319.0	381	-317	1
2.7	2015_Jun_12_1141	s	s	21	5	SIC	301	RC	1	1	02VD 02VO 02VC 02MD 09MO 02MC 02RD 02RO	0	1	0.834923028946	456.0	-239.0	None	None	0
2.7	2015_Jun_12_1141	s	s	21	5	SIC	302	RC	0	2	02VD 02VO 02VC 02MD 02MO 02MC 09RD 02RO	1	0	0.924762010574	-124.0	-350.0	-133	-351	1
2.7	2015_Jun_12_1141	s	s	21	5	SIC	303	ABS	1	0	02VD 02VO 02VC 02MD 02MO 10MC 02RD 02RO	0	1	1.13624882698	None	None	None	None	1
2.7	2015_Jun_12_1141	s	s	21	5	SIC	304	RC	2	1	02VD 09VO 02VC 02MD 02MO 02MC 02RD 02RO	1	0	0.528921842575	-129.0	87.0	-132	89	1
2.7	2015_Jun_12_1141	s	s	21	5	SIC	305	RC	2	2	09VD 02VO 02VC 02MD 02MO 02MC 02RD 02RO	1	0	0.535938978195	-108.0	119.0	-104	117	1
2.7	2015_Jun_12_1141	s	s	21	5	SIC	306	RC	1	2	02VD 02VO 02VC 09MD 02MO 02MC 02RD 02RO	1	0	1.17647194862	-269.0	373.0	-270	382	1
2.7	2015_Jun_12_1141	s	s	21	5	SIC	307	RC	2	0	02VD 02VO 09VC 02MD 02MO 02MC 02RD 02RO	1	0	0.521010875702	-42.0	135.0	-45	131	1
2.7	2015_Jun_12_1141	s	s	21	5	SIC	308	ABS	2	0	02VD 02VO 10VC 02MD 02MO 02MC 02RD 02RO	0	1	1.7242500782	None	None	None	None	1
2.7	2015_Jun_12_1141	s	s	21	5	SIC	309	RC	0	1	02VD 02VO 02VC 02MD 02MO 02MC 02RD 09RO	1	0	1.42358398438	400.0	274.0	410	273	1
2.7	2015_Jun_12_1141	s	s	21	5	SIC	310	ABS	0	1	02VD 02VO 02VC 02MD 02MO 02MC 02RD 10RO	0	1	2.04260706902	None	None	None	None	1
2.7	2015_Jun_12_1141	s	s	21	5	SIC	311	ABS	1	1	02VD 02VO 02VC 02MD 10MO 02MC 02RD 02RO	0	1	1.23527002335	None	None	None	None	1
2.7	2015_Jun_12_1141	s	s	21	5	SIC	312	ABS	0	2	02VD 02VO 02VC 02MD 02MO 02MC 10RD 02RO	0	1	0.712666034698	None	None	None	None	1
2.7	2015_Jun_12_1141	s	s	21	5	SIC	313	RC	2	1	02VD 09VO 02VC 02MD 02MO 02MC 02RD 02RO	0	1	1.47654414177	-135.0	244.0	None	None	0
2.7	2015_Jun_12_1141	s	s	21	5	SIC	314	ABS	1	2	02VD 02VO 02VC 10MD 02MO 02MC 02RD 02RO	0	1	1.54132699966	None	None	None	None	1
2.7	2015_Jun_12_1141	s	s	21	5	SIC	315	RC	1	0	02VD 02VO 02VC 02MD 02MO 09MC 02RD 02RO	0	1	1.58476018906	-427.0	300.0	None	None	0
2.7	2015_Jun_12_1141	s	s	21	5	SIC	316	RC	0	2	02VD 02VO 02VC 02MD 02MO 02MC 09RD 02RO	1	0	0.982986927032	260.0	-174.0	268	-172	1
2.7	2015_Jun_12_1141	s	s	21	5	SIC	317	RC	1	1	02VD 02VO 02VC 02MD 09MO 02MC 02RD 02RO	1	0	0.915260076523	427.0	58.0	426	54	1
2.7	2015_Jun_12_1141	s	s	21	5	SIC	318	ABS	2	1	02VD 10VO 02VC 02MD 02MO 02MC 02RD 02RO	0	1	0.912840843201	None	None	None	None	1
2.7	2015_Jun_12_1141	s	s	21	5	SIC	319	ABS	1	0	02VD 02VO 02VC 02MD 02MO 10MC 02RD 02RO	1	0	0.623131990433	None	None	-131	-142	0
2.7	2015_Jun_12_1141	s	s	21	5	SIC	320	ABS	2	2	10VD 02VO 02VC 02MD 02MO 02MC 02RD 02RO	0	1	1.24148702621	None	None	None	None	1
2.7	2015_Jun_12_1141	s	s	21	5	SIC	321	RC	2	0	02VD 02VO 09VC 02MD 02MO 02MC 02RD 02RO	0	1	0.935973882675	221.0	336.0	None	None	0
2.7	2015_Jun_12_1141	s	s	21	5	SIC	322	ABS	0	1	02VD 02VO 02VC 02MD 02MO 02MC 02RD 10RO	0	1	1.40682792664	None	None	None	None	1
2.7	2015_Jun_12_1141	s	s	21	5	SIC	323	ABS	2	0	02VD 02VO 10VC 02MD 02MO 02MC 02RD 02RO	0	1	0.95964884758	None	None	None	None	1
2.7	2015_Jun_12_1141	s	s	21	5	SIC	324	RC	2	2	09VD 02VO 02VC 02MD 02MO 02MC 02RD 02RO	1	0	0.635004043579	142.0	49.0	137	45	1
2.7	2015_Jun_12_1141	s	s	21	5	SIC	325	ABS	1	1	02VD 02VO 02VC 02MD 10MO 02MC 02RD 02RO	0	1	2.37200498581	None	None	None	None	1
2.7	2015_Jun_12_1141	s	s	21	5	SIC	326	ABS	1	2	02VD 02VO 02VC 10MD 02MO 02MC 02RD 02RO	0	1	0.909471988678	None	None	None	None	1
2.7	2015_Jun_12_1141	s	s	21	5	SIC	327	ABS	1	0	02VD 02VO 02VC 02MD 02MO 10MC 02RD 02RO	0	1	0.90567111969	None	None	None	None	1
2.7	2015_Jun_12_1141	s	s	21	5	SIC	328	RC	2	1	02VD 09VO 02VC 02MD 02MO 02MC 02RD 02RO	0	1	1.36026000977	-389.0	310.0	None	None	0
2.7	2015_Jun_12_1141	s	s	21	5	SIC	329	RC	0	2	02VD 02VO 02VC 02MD 02MO 02MC 09RD 02RO	0	1	1.08916807175	349.0	-268.0	None	None	0
2.7	2015_Jun_12_1141	s	s	21	5	SIC	330	ABS	2	1	02VD 10VO 02VC 02MD 02MO 02MC 02RD 02RO	0	1	0.970939159393	None	None	None	None	1
2.7	2015_Jun_12_1141	s	s	21	5	SIC	331	RC	1	1	02VD 02VO 02VC 02MD 09MO 02MC 02RD 02RO	0	1	1.065502882	-311.0	332.0	None	None	0
2.7	2015_Jun_12_1141	s	s	21	5	SIC	332	RC	0	1	02VD 02VO 02VC 02MD 02MO 02MC 02RD 09RO	1	0	1.18318104744	323.0	120.0	323	119	1
2.7	2015_Jun_12_1141	s	s	21	5	SIC	333	ABS	0	2	02VD 02VO 02VC 02MD 02MO 02MC 10RD 02RO	0	1	1.17061519623	None	None	None	None	1
2.7	2015_Jun_12_1141	s	s	21	5	SIC	334	RC	1	0	02VD 02VO 02VC 02MD 02MO 09MC 02RD 02RO	1	0	0.893933057785	317.0	181.0	315	177	1
2.7	2015_Jun_12_1141	s	s	21	5	SIC	335	ABS	2	2	10VD 02VO 02VC 02MD 02MO 02MC 02RD 02RO	0	1	2.17696094513	None	None	None	None	1
2.7	2015_Jun_12_1141	s	s	21	5	SIC	336	RC	1	2	02VD 02VO 02VC 09MD 02MO 02MC 02RD 02RO	1	0	0.835116147995	-169.0	263.0	-164	267	1
2.7	2015_Jun_12_1141	s	s	21	5	SIC	337	ABS	2	0	02VD 02VO 10VC 02MD 02MO 02MC 02RD 02RO	0	1	2.21222805977	None	None	None	None	1
2.7	2015_Jun_12_1141	s	s	21	5	SIC	338	ABS	0	2	02VD 02VO 02VC 02MD 02MO 02MC 10RD 02RO	0	1	1.32944893837	None	None	None	None	1
2.7	2015_Jun_12_1141	s	s	21	5	SIC	339	RC	1	2	02VD 02VO 02VC 09MD 02MO 02MC 02RD 02RO	1	0	0.747694015503	-220.0	-220.0	-221	-226	1
2.7	2015_Jun_12_1141	s	s	21	5	SIC	340	RC	2	0	02VD 02VO 09VC 02MD 02MO 02MC 02RD 02RO	1	0	1.01841592789	-149.0	142.0	-151	148	1
2.7	2015_Jun_12_1141	s	s	21	5	SIC	341	RC	2	2	09VD 02VO 02VC 02MD 02MO 02MC 02RD 02RO	1	0	0.72913813591	-462.0	270.0	-459	274	1
2.7	2015_Jun_12_1141	s	s	21	5	SIC	342	ABS	2	2	10VD 02VO 02VC 02MD 02MO 02MC 02RD 02RO	0	1	1.09407496452	None	None	None	None	1
2.7	2015_Jun_12_1141	s	s	21	5	SIC	343	ABS	0	1	02VD 02VO 02VC 02MD 02MO 02MC 02RD 10RO	0	1	2.30688095093	None	None	None	None	1
2.7	2015_Jun_12_1141	s	s	21	5	SIC	344	RC	0	2	02VD 02VO 02VC 02MD 02MO 02MC 09RD 02RO	1	0	0.667757987976	85.0	249.0	90	250	1
2.7	2015_Jun_12_1141	s	s	21	5	SIC	345	ABS	1	2	02VD 02VO 02VC 10MD 02MO 02MC 02RD 02RO	0	1	1.51303696632	None	None	None	None	1
2.7	2015_Jun_12_1141	s	s	21	5	SIC	346	ABS	2	1	02VD 10VO 02VC 02MD 02MO 02MC 02RD 02RO	0	1	0.891466140747	None	None	None	None	1
2.7	2015_Jun_12_1141	s	s	21	5	SIC	347	ABS	1	1	02VD 02VO 02VC 02MD 10MO 02MC 02RD 02RO	0	1	1.30085706711	None	None	None	None	1
2.7	2015_Jun_12_1141	s	s	21	5	SIC	348	RC	1	1	02VD 02VO 02VC 02MD 09MO 02MC 02RD 02RO	0	1	0.865613937378	497.0	364.0	None	None	0
2.7	2015_Jun_12_1141	s	s	21	5	SIC	349	RC	1	0	02VD 02VO 02VC 02MD 02MO 09MC 02RD 02RO	1	0	0.606475114822	-124.0	101.0	-120	91	1
2.7	2015_Jun_12_1141	s	s	21	5	SIC	350	RC	0	1	02VD 02VO 02VC 02MD 02MO 02MC 02RD 09RO	0	1	1.30591917038	264.0	374.0	None	None	0
2.7	2015_Jun_12_1141	s	s	21	5	SIC	351	ABS	1	0	02VD 02VO 02VC 02MD 02MO 10MC 02RD 02RO	0	1	1.09400415421	None	None	None	None	1
2.7	2015_Jun_12_1141	s	s	21	5	SIC	352	RC	2	1	02VD 09VO 02VC 02MD 02MO 02MC 02RD 02RO	0	1	0.776211977005	-489.0	205.0	None	None	0
2.7	2015_Jun_12_1141	s	s	21	5	SIC	353	RC	1	1	02VD 02VO 02VC 02MD 09MO 02MC 02RD 02RO	1	0	0.806799173355	-170.0	251.0	-171	255	1
2.7	2015_Jun_12_1141	s	s	21	5	SIC	354	ABS	0	2	02VD 02VO 02VC 02MD 02MO 02MC 10RD 02RO	0	1	1.0352499485	None	None	None	None	1
2.7	2015_Jun_12_1141	s	s	21	5	SIC	355	ABS	1	1	02VD 02VO 02VC 02MD 10MO 02MC 02RD 02RO	0	1	1.32941317558	None	None	None	None	1
2.7	2015_Jun_12_1141	s	s	21	5	SIC	356	ABS	2	1	02VD 10VO 02VC 02MD 02MO 02MC 02RD 02RO	0	1	1.0591480732	None	None	None	None	1
2.7	2015_Jun_12_1141	s	s	21	5	SIC	357	RC	2	1	02VD 09VO 02VC 02MD 02MO 02MC 02RD 02RO	1	0	1.2306330204	-536.0	213.0	-536	205	1
2.7	2015_Jun_12_1141	s	s	21	5	SIC	358	RC	0	1	02VD 02VO 02VC 02MD 02MO 02MC 02RD 09RO	1	0	2.60064101219	-221.0	-194.0	-219	-190	1
2.7	2015_Jun_12_1141	s	s	21	5	SIC	359	ABS	2	2	10VD 02VO 02VC 02MD 02MO 02MC 02RD 02RO	0	1	1.65422391891	None	None	None	None	1
2.7	2015_Jun_12_1141	s	s	21	5	SIC	360	ABS	0	1	02VD 02VO 02VC 02MD 02MO 02MC 02RD 10RO	0	1	1.9712138176	None	None	None	None	1
2.7	2015_Jun_12_1141	s	s	21	5	SIC	361	ABS	2	0	02VD 02VO 10VC 02MD 02MO 02MC 02RD 02RO	0	1	1.29416394234	None	None	None	None	1
2.7	2015_Jun_12_1141	s	s	21	5	SIC	362	RC	2	2	09VD 02VO 02VC 02MD 02MO 02MC 02RD 02RO	1	0	1.12503004074	100.0	-208.0	110	-209	1
2.7	2015_Jun_12_1141	s	s	21	5	SIC	363	ABS	1	0	02VD 02VO 02VC 02MD 02MO 10MC 02RD 02RO	0	1	1.04198408127	None	None	None	None	1
2.7	2015_Jun_12_1141	s	s	21	5	SIC	364	RC	2	0	02VD 02VO 09VC 02MD 02MO 02MC 02RD 02RO	0	1	0.817243099213	-525.0	-224.0	None	None	0
2.7	2015_Jun_12_1141	s	s	21	5	SIC	365	ABS	1	2	02VD 02VO 02VC 10MD 02MO 02MC 02RD 02RO	0	1	0.842365026474	None	None	None	None	1
2.7	2015_Jun_12_1141	s	s	21	5	SIC	366	RC	0	2	02VD 02VO 02VC 02MD 02MO 02MC 09RD 02RO	1	0	0.976361989975	234.0	391.0	520	181	0
2.7	2015_Jun_12_1141	s	s	21	5	SIC	367	RC	1	0	02VD 02VO 02VC 02MD 02MO 09MC 02RD 02RO	1	0	0.682038068771	130.0	147.0	135	152	1
2.7	2015_Jun_12_1141	s	s	21	5	SIC	368	RC	1	2	02VD 02VO 02VC 09MD 02MO 02MC 02RD 02RO	1	0	0.513468027115	-8.0	-4.0	-15	-10	1
2.7	2015_Jun_12_1141	s	s	21	5	SIC	369	RC	1	2	02VD 02VO 02VC 09MD 02MO 02MC 02RD 02RO	1	0	0.701281070709	-472.0	40.0	-465	39	1
2.7	2015_Jun_12_1141	s	s	21	5	SIC	370	ABS	1	0	02VD 02VO 02VC 02MD 02MO 10MC 02RD 02RO	0	1	0.959742069244	None	None	None	None	1
2.7	2015_Jun_12_1141	s	s	21	5	SIC	371	RC	1	0	02VD 02VO 02VC 02MD 02MO 09MC 02RD 02RO	1	0	0.55256986618	-132.0	15.0	-136	9	1
2.7	2015_Jun_12_1141	s	s	21	5	SIC	372	RC	2	2	09VD 02VO 02VC 02MD 02MO 02MC 02RD 02RO	1	0	0.829195976257	-294.0	375.0	-292	377	1
2.7	2015_Jun_12_1141	s	s	21	5	SIC	373	ABS	0	2	02VD 02VO 02VC 02MD 02MO 02MC 10RD 02RO	0	1	0.90167593956	None	None	None	None	1
2.7	2015_Jun_12_1141	s	s	21	5	SIC	374	RC	0	1	02VD 02VO 02VC 02MD 02MO 02MC 02RD 09RO	0	1	1.24745202065	-259.0	236.0	None	None	0
2.7	2015_Jun_12_1141	s	s	21	5	SIC	375	RC	2	1	02VD 09VO 02VC 02MD 02MO 02MC 02RD 02RO	1	0	0.629436016083	-379.0	160.0	-376	155	1
2.7	2015_Jun_12_1141	s	s	21	5	SIC	376	ABS	1	2	02VD 02VO 02VC 10MD 02MO 02MC 02RD 02RO	0	1	1.45890593529	None	None	None	None	1
2.7	2015_Jun_12_1141	s	s	21	5	SIC	377	RC	1	1	02VD 02VO 02VC 02MD 09MO 02MC 02RD 02RO	0	1	0.973128795624	523.0	83.0	None	None	0
2.7	2015_Jun_12_1141	s	s	21	5	SIC	378	RC	0	2	02VD 02VO 02VC 02MD 02MO 02MC 09RD 02RO	0	1	1.31769585609	-526.0	-85.0	None	None	0
2.7	2015_Jun_12_1141	s	s	21	5	SIC	379	ABS	2	1	02VD 10VO 02VC 02MD 02MO 02MC 02RD 02RO	0	1	1.60040712357	None	None	None	None	1
2.7	2015_Jun_12_1141	s	s	21	5	SIC	380	ABS	0	1	02VD 02VO 02VC 02MD 02MO 02MC 02RD 10RO	0	1	1.23034310341	None	None	None	None	1
2.7	2015_Jun_12_1141	s	s	21	5	SIC	381	ABS	1	1	02VD 02VO 02VC 02MD 10MO 02MC 02RD 02RO	0	1	1.33876085281	None	None	None	None	1
2.7	2015_Jun_12_1141	s	s	21	5	SIC	382	RC	2	0	02VD 02VO 09VC 02MD 02MO 02MC 02RD 02RO	1	0	0.780011892319	414.0	-111.0	414	-120	1
2.7	2015_Jun_12_1141	s	s	21	5	SIC	383	ABS	2	0	02VD 02VO 10VC 02MD 02MO 02MC 02RD 02RO	0	1	1.2563688755	None	None	None	None	1
2.7	2015_Jun_12_1141	s	s	21	5	SIC	384	ABS	2	2	10VD 02VO 02VC 02MD 02MO 02MC 02RD 02RO	0	1	1.3352458477	None	None	None	None	1
2.7	2015_Jun_12_1141	s	s	21	5	SIC	385	RC	1	0	02VD 02VO 02VC 02MD 02MO 09MC 02RD 02RO	1	0	1.15938687325	-401.0	83.0	-401	82	1
2.7	2015_Jun_12_1141	s	s	21	5	SIC	386	ABS	2	0	02VD 02VO 10VC 02MD 02MO 02MC 02RD 02RO	0	1	0.90055513382	None	None	None	None	1
2.7	2015_Jun_12_1141	s	s	21	5	SIC	387	RC	2	2	09VD 02VO 02VC 02MD 02MO 02MC 02RD 02RO	1	0	0.688957929611	-262.0	307.0	-270	312	1
2.7	2015_Jun_12_1141	s	s	21	5	SIC	388	RC	2	1	02VD 09VO 02VC 02MD 02MO 02MC 02RD 02RO	1	0	0.594861030579	230.0	16.0	230	12	1
2.7	2015_Jun_12_1141	s	s	21	5	SIC	389	ABS	1	1	02VD 02VO 02VC 02MD 10MO 02MC 02RD 02RO	0	1	2.37367296219	None	None	None	None	1
2.7	2015_Jun_12_1141	s	s	21	5	SIC	390	RC	2	0	02VD 02VO 09VC 02MD 02MO 02MC 02RD 02RO	0	1	0.936228990555	440.0	-386.0	None	None	0
2.7	2015_Jun_12_1141	s	s	21	5	SIC	391	ABS	2	2	10VD 02VO 02VC 02MD 02MO 02MC 02RD 02RO	0	1	1.61893987656	None	None	None	None	1
2.7	2015_Jun_12_1141	s	s	21	5	SIC	392	ABS	2	1	02VD 10VO 02VC 02MD 02MO 02MC 02RD 02RO	0	1	1.15974998474	None	None	None	None	1
2.7	2015_Jun_12_1141	s	s	21	5	SIC	393	ABS	0	2	02VD 02VO 02VC 02MD 02MO 02MC 10RD 02RO	0	1	1.36156010628	None	None	None	None	1
2.7	2015_Jun_12_1141	s	s	21	5	SIC	394	RC	1	2	02VD 02VO 02VC 09MD 02MO 02MC 02RD 02RO	1	0	0.788008928299	-181.0	-34.0	-178	-40	1
2.7	2015_Jun_12_1141	s	s	21	5	SIC	395	RC	0	2	02VD 02VO 02VC 02MD 02MO 02MC 09RD 02RO	0	1	1.37182188034	-103.0	-326.0	None	None	0
2.7	2015_Jun_12_1141	s	s	21	5	SIC	396	RC	1	1	02VD 02VO 02VC 02MD 09MO 02MC 02RD 02RO	1	0	1.5006210804	317.0	140.0	314	136	1
2.7	2015_Jun_12_1141	s	s	21	5	SIC	397	ABS	1	2	02VD 02VO 02VC 10MD 02MO 02MC 02RD 02RO	0	1	1.46575808525	None	None	None	None	1
2.7	2015_Jun_12_1141	s	s	21	5	SIC	398	ABS	0	1	02VD 02VO 02VC 02MD 02MO 02MC 02RD 10RO	0	1	2.42415094376	None	None	None	None	1
2.7	2015_Jun_12_1141	s	s	21	5	SIC	399	RC	0	1	02VD 02VO 02VC 02MD 02MO 02MC 02RD 09RO	1	0	0.941001176834	-66.0	-239.0	-70	-251	1
2.7	2015_Jun_12_1141	s	s	21	5	SIC	400	ABS	1	0	02VD 02VO 02VC 02MD 02MO 10MC 02RD 02RO	0	1	1.6422059536	None	None	None	None	1
2.7	2015_Jun_12_1141	s	s	21	5	SIC	401	ABS	1	2	02VD 02VO 02VC 10MD 02MO 02MC 02RD 02RO	0	1	0.984508037567	None	None	None	None	1
2.7	2015_Jun_12_1141	s	s	21	5	SIC	402	ABS	2	2	10VD 02VO 02VC 02MD 02MO 02MC 02RD 02RO	0	1	0.999849081039	None	None	None	None	1
2.7	2015_Jun_12_1141	s	s	21	5	SIC	403	RC	2	0	02VD 02VO 09VC 02MD 02MO 02MC 02RD 02RO	1	0	0.752761125565	-440.0	-27.0	-437	-22	1
2.7	2015_Jun_12_1141	s	s	21	5	SIC	404	RC	2	2	09VD 02VO 02VC 02MD 02MO 02MC 02RD 02RO	1	0	0.58794093132	26.0	130.0	31	129	1
2.7	2015_Jun_12_1141	s	s	21	5	SIC	405	ABS	1	1	02VD 02VO 02VC 02MD 10MO 02MC 02RD 02RO	0	1	1.12412881851	None	None	None	None	1
2.7	2015_Jun_12_1141	s	s	21	5	SIC	406	ABS	0	2	02VD 02VO 02VC 02MD 02MO 02MC 10RD 02RO	0	1	1.07743000984	None	None	None	None	1
2.7	2015_Jun_12_1141	s	s	21	5	SIC	407	ABS	1	0	02VD 02VO 02VC 02MD 02MO 10MC 02RD 02RO	0	1	1.73558998108	None	None	None	None	1
2.7	2015_Jun_12_1141	s	s	21	5	SIC	408	RC	0	2	02VD 02VO 02VC 02MD 02MO 02MC 09RD 02RO	1	0	1.39694309235	354.0	-202.0	350	-209	1
2.7	2015_Jun_12_1141	s	s	21	5	SIC	409	RC	0	1	02VD 02VO 02VC 02MD 02MO 02MC 02RD 09RO	1	0	0.611168146133	399.0	-8.0	-335	-98	0
2.7	2015_Jun_12_1141	s	s	21	5	SIC	410	RC	1	1	02VD 02VO 02VC 02MD 09MO 02MC 02RD 02RO	1	0	0.446610927582	45.0	21.0	45	20	1
2.7	2015_Jun_12_1141	s	s	21	5	SIC	411	ABS	0	1	02VD 02VO 02VC 02MD 02MO 02MC 02RD 10RO	0	1	0.941035032272	None	None	None	None	1
2.7	2015_Jun_12_1141	s	s	21	5	SIC	412	ABS	2	0	02VD 02VO 10VC 02MD 02MO 02MC 02RD 02RO	1	0	1.19499993324	None	None	-518	-210	0
2.7	2015_Jun_12_1141	s	s	21	5	SIC	413	RC	2	1	02VD 09VO 02VC 02MD 02MO 02MC 02RD 02RO	1	0	1.05859899521	-289.0	271.0	-287	271	1
2.7	2015_Jun_12_1141	s	s	21	5	SIC	414	RC	1	2	02VD 02VO 02VC 09MD 02MO 02MC 02RD 02RO	1	0	1.0238609314	-466.0	289.0	-463	287	1
2.7	2015_Jun_12_1141	s	s	21	5	SIC	415	ABS	2	1	02VD 10VO 02VC 02MD 02MO 02MC 02RD 02RO	0	1	2.07105112076	None	None	None	None	1
2.7	2015_Jun_12_1141	s	s	21	5	SIC	416	RC	1	0	02VD 02VO 02VC 02MD 02MO 09MC 02RD 02RO	1	0	0.700633049011	222.0	92.0	218	86	1
2.7	2015_Jun_12_1141	s	s	21	5	SIC	417	ABS	1	1	02VD 02VO 02VC 02MD 10MO 02MC 02RD 02RO	0	1	1.51441907883	None	None	None	None	1
2.7	2015_Jun_12_1141	s	s	21	5	SIC	418	RC	1	1	02VD 02VO 02VC 02MD 09MO 02MC 02RD 02RO	0	1	0.948767185211	-43.0	-384.0	None	None	0
2.7	2015_Jun_12_1141	s	s	21	5	SIC	419	RC	0	2	02VD 02VO 02VC 02MD 02MO 02MC 09RD 02RO	0	1	0.929221868515	23.0	337.0	None	None	0
2.7	2015_Jun_12_1141	s	s	21	5	SIC	420	ABS	0	1	02VD 02VO 02VC 02MD 02MO 02MC 02RD 10RO	0	1	2.91847801208	None	None	None	None	1
2.7	2015_Jun_12_1141	s	s	21	5	SIC	421	RC	0	1	02VD 02VO 02VC 02MD 02MO 02MC 02RD 09RO	1	0	0.647147893906	-37.0	66.0	-35	53	1
2.7	2015_Jun_12_1141	s	s	21	5	SIC	422	ABS	0	2	02VD 02VO 02VC 02MD 02MO 02MC 10RD 02RO	0	1	1.12135696411	None	None	None	None	1
2.7	2015_Jun_12_1141	s	s	21	5	SIC	423	RC	2	0	02VD 02VO 09VC 02MD 02MO 02MC 02RD 02RO	1	0	1.2588160038	-342.0	-343.0	-344	-354	1
2.7	2015_Jun_12_1141	s	s	21	5	SIC	424	ABS	2	2	10VD 02VO 02VC 02MD 02MO 02MC 02RD 02RO	0	1	1.03517508507	None	None	None	None	1
2.7	2015_Jun_12_1141	s	s	21	5	SIC	425	ABS	1	2	02VD 02VO 02VC 10MD 02MO 02MC 02RD 02RO	0	1	0.936284065247	None	None	None	None	1
2.7	2015_Jun_12_1141	s	s	21	5	SIC	426	ABS	2	1	02VD 10VO 02VC 02MD 02MO 02MC 02RD 02RO	0	1	0.818563938141	None	None	None	None	1
2.7	2015_Jun_12_1141	s	s	21	5	SIC	427	RC	2	1	02VD 09VO 02VC 02MD 02MO 02MC 02RD 02RO	1	0	0.70227098465	-267.0	-64.0	-260	-57	1
2.7	2015_Jun_12_1141	s	s	21	5	SIC	428	RC	1	2	02VD 02VO 02VC 09MD 02MO 02MC 02RD 02RO	1	0	0.623093128204	-314.0	-112.0	-319	-115	1
2.7	2015_Jun_12_1141	s	s	21	5	SIC	429	ABS	1	0	02VD 02VO 02VC 02MD 02MO 10MC 02RD 02RO	0	1	0.752723932266	None	None	None	None	1
2.7	2015_Jun_12_1141	s	s	21	5	SIC	430	RC	1	0	02VD 02VO 02VC 02MD 02MO 09MC 02RD 02RO	1	0	1.23526597023	-490.0	-194.0	-488	-191	1
2.7	2015_Jun_12_1141	s	s	21	5	SIC	431	ABS	2	0	02VD 02VO 10VC 02MD 02MO 02MC 02RD 02RO	0	1	1.03513908386	None	None	None	None	1
2.7	2015_Jun_12_1141	s	s	21	5	SIC	432	RC	2	2	09VD 02VO 02VC 02MD 02MO 02MC 02RD 02RO	1	0	1.33776187897	-27.0	-205.0	-19	-203	1
2.7	2015_Jun_12_1141	s	s	21	5	SIC	433	ABS	2	1	02VD 10VO 02VC 02MD 02MO 02MC 02RD 02RO	1	0	0.974040985107	None	None	120	-12	0
2.7	2015_Jun_12_1141	s	s	21	5	SIC	434	RC	1	1	02VD 02VO 02VC 02MD 09MO 02MC 02RD 02RO	1	0	0.605183124542	-147.0	152.0	-153	150	1
2.7	2015_Jun_12_1141	s	s	21	5	SIC	435	ABS	2	0	02VD 02VO 10VC 02MD 02MO 02MC 02RD 02RO	0	1	1.74819397926	None	None	None	None	1
2.7	2015_Jun_12_1141	s	s	21	5	SIC	436	RC	2	2	09VD 02VO 02VC 02MD 02MO 02MC 02RD 02RO	1	0	0.559577941895	-229.0	-109.0	-227	-116	1
2.7	2015_Jun_12_1141	s	s	21	5	SIC	437	RC	1	2	02VD 02VO 02VC 09MD 02MO 02MC 02RD 02RO	0	1	1.02355718613	285.0	-408.0	None	None	0
2.7	2015_Jun_12_1141	s	s	21	5	SIC	438	ABS	1	2	02VD 02VO 02VC 10MD 02MO 02MC 02RD 02RO	0	1	1.19523000717	None	None	None	None	1
2.7	2015_Jun_12_1141	s	s	21	5	SIC	439	RC	0	2	02VD 02VO 02VC 02MD 02MO 02MC 09RD 02RO	1	0	0.713027954102	-79.0	-215.0	-78	-217	1
2.7	2015_Jun_12_1141	s	s	21	5	SIC	440	ABS	0	1	02VD 02VO 02VC 02MD 02MO 02MC 02RD 10RO	0	1	2.25933289528	None	None	None	None	1
2.7	2015_Jun_12_1141	s	s	21	5	SIC	441	ABS	0	2	02VD 02VO 02VC 02MD 02MO 02MC 10RD 02RO	0	1	1.71787285805	None	None	None	None	1
2.7	2015_Jun_12_1141	s	s	21	5	SIC	442	ABS	1	1	02VD 02VO 02VC 02MD 10MO 02MC 02RD 02RO	0	1	1.14734196663	None	None	None	None	1
2.7	2015_Jun_12_1141	s	s	21	5	SIC	443	RC	2	1	02VD 09VO 02VC 02MD 02MO 02MC 02RD 02RO	1	0	0.646723985672	91.0	245.0	84	242	1
2.7	2015_Jun_12_1141	s	s	21	5	SIC	444	RC	0	1	02VD 02VO 02VC 02MD 02MO 02MC 02RD 09RO	1	0	0.634994029999	-190.0	-98.0	-194	-109	1
2.7	2015_Jun_12_1141	s	s	21	5	SIC	445	RC	1	0	02VD 02VO 02VC 02MD 02MO 09MC 02RD 02RO	1	0	0.58314204216	-131.0	-208.0	-123	-205	1
2.7	2015_Jun_12_1141	s	s	21	5	SIC	446	RC	2	0	02VD 02VO 09VC 02MD 02MO 02MC 02RD 02RO	1	0	1.22077989578	446.0	188.0	445	190	1
2.7	2015_Jun_12_1141	s	s	21	5	SIC	447	ABS	1	0	02VD 02VO 02VC 02MD 02MO 10MC 02RD 02RO	0	1	3.10710000992	None	None	None	None	1
2.7	2015_Jun_12_1141	s	s	21	5	SIC	448	ABS	2	2	10VD 02VO 02VC 02MD 02MO 02MC 02RD 02RO	0	1	1.1478099823	None	None	None	None	1
2.7	2015_Jun_12_1141	s	s	21	5	SIC	449	RC	1	0	02VD 02VO 02VC 02MD 02MO 09MC 02RD 02RO	1	0	1.18338513374	273.0	351.0	275	354	1
2.7	2015_Jun_12_1141	s	s	21	5	SIC	450	ABS	2	2	10VD 02VO 02VC 02MD 02MO 02MC 02RD 02RO	0	1	1.06547188759	None	None	None	None	1
2.7	2015_Jun_12_1141	s	s	21	5	SIC	451	RC	1	2	02VD 02VO 02VC 09MD 02MO 02MC 02RD 02RO	1	0	1.04693007469	307.0	-144.0	298	-147	1
2.7	2015_Jun_12_1141	s	s	21	5	SIC	452	ABS	0	2	02VD 02VO 02VC 02MD 02MO 02MC 10RD 02RO	0	1	1.07049894333	None	None	None	None	1
2.7	2015_Jun_12_1141	s	s	21	5	SIC	453	RC	2	0	02VD 02VO 09VC 02MD 02MO 02MC 02RD 02RO	1	0	0.811530828476	-406.0	16.0	-415	12	1
2.7	2015_Jun_12_1141	s	s	21	5	SIC	454	ABS	1	2	02VD 02VO 02VC 10MD 02MO 02MC 02RD 02RO	0	1	1.29038000107	None	None	None	None	1
2.7	2015_Jun_12_1141	s	s	21	5	SIC	455	RC	0	1	02VD 02VO 02VC 02MD 02MO 02MC 02RD 09RO	1	0	0.984840154648	389.0	-127.0	394	-137	1
2.7	2015_Jun_12_1141	s	s	21	5	SIC	456	RC	1	1	02VD 02VO 02VC 02MD 09MO 02MC 02RD 02RO	1	0	0.571433067322	-179.0	-187.0	-176	-200	1
2.7	2015_Jun_12_1141	s	s	21	5	SIC	457	ABS	0	1	02VD 02VO 02VC 02MD 02MO 02MC 02RD 10RO	0	1	2.11007905006	None	None	None	None	1
2.7	2015_Jun_12_1141	s	s	21	5	SIC	458	ABS	1	0	02VD 02VO 02VC 02MD 02MO 10MC 02RD 02RO	0	1	1.51776814461	None	None	None	None	1
2.7	2015_Jun_12_1141	s	s	21	5	SIC	459	ABS	1	1	02VD 02VO 02VC 02MD 10MO 02MC 02RD 02RO	0	1	0.811561822891	None	None	None	None	1
2.7	2015_Jun_12_1141	s	s	21	5	SIC	460	RC	2	1	02VD 09VO 02VC 02MD 02MO 02MC 02RD 02RO	1	0	1.04195284843	-525.0	117.0	-522	118	1
2.7	2015_Jun_12_1141	s	s	21	5	SIC	461	RC	0	2	02VD 02VO 02VC 02MD 02MO 02MC 09RD 02RO	1	0	0.834943771362	41.0	-312.0	47	-307	1
2.7	2015_Jun_12_1141	s	s	21	5	SIC	462	ABS	2	1	02VD 10VO 02VC 02MD 02MO 02MC 02RD 02RO	0	1	1.49147105217	None	None	None	None	1
2.7	2015_Jun_12_1141	s	s	21	5	SIC	463	ABS	2	0	02VD 02VO 10VC 02MD 02MO 02MC 02RD 02RO	1	0	1.1882250309	None	None	44	-102	0
2.7	2015_Jun_12_1141	s	s	21	5	SIC	464	RC	2	2	09VD 02VO 02VC 02MD 02MO 02MC 02RD 02RO	1	0	0.650578975677	65.0	157.0	64	162	1
2.7	2015_Jun_12_1141	s	s	21	5	SIC	465	RC	0	2	02VD 02VO 02VC 02MD 02MO 02MC 09RD 02RO	1	0	1.17641401291	-115.0	371.0	-111	366	1
2.7	2015_Jun_12_1141	s	s	21	5	SIC	466	RC	2	2	09VD 02VO 02VC 02MD 02MO 02MC 02RD 02RO	1	0	1.2420759201	473.0	308.0	471	306	1
2.7	2015_Jun_12_1141	s	s	21	5	SIC	467	RC	0	1	02VD 02VO 02VC 02MD 02MO 02MC 02RD 09RO	1	0	0.783161878586	-185.0	211.0	-188	211	1
2.7	2015_Jun_12_1141	s	s	21	5	SIC	468	RC	2	1	02VD 09VO 02VC 02MD 02MO 02MC 02RD 02RO	1	0	1.03036808968	-344.0	209.0	-353	205	1
2.7	2015_Jun_12_1141	s	s	21	5	SIC	469	ABS	2	1	02VD 10VO 02VC 02MD 02MO 02MC 02RD 02RO	0	1	1.10039806366	None	None	None	None	1
2.7	2015_Jun_12_1141	s	s	21	5	SIC	470	RC	2	0	02VD 02VO 09VC 02MD 02MO 02MC 02RD 02RO	1	0	0.569582939148	-164.0	-146.0	-168	-149	1
2.7	2015_Jun_12_1141	s	s	21	5	SIC	471	ABS	1	1	02VD 02VO 02VC 02MD 10MO 02MC 02RD 02RO	0	1	2.38469314575	None	None	None	None	1
2.7	2015_Jun_12_1141	s	s	21	5	SIC	472	ABS	0	1	02VD 02VO 02VC 02MD 02MO 02MC 02RD 10RO	0	1	2.40987706184	None	None	None	None	1
2.7	2015_Jun_12_1141	s	s	21	5	SIC	473	RC	1	0	02VD 02VO 02VC 02MD 02MO 09MC 02RD 02RO	1	0	1.11757183075	88.0	-301.0	91	-312	1
2.7	2015_Jun_12_1141	s	s	21	5	SIC	474	ABS	2	0	02VD 02VO 10VC 02MD 02MO 02MC 02RD 02RO	0	1	1.0906329155	None	None	None	None	1
2.7	2015_Jun_12_1141	s	s	21	5	SIC	475	ABS	0	2	02VD 02VO 02VC 02MD 02MO 02MC 10RD 02RO	0	1	0.889224052429	None	None	None	None	1
2.7	2015_Jun_12_1141	s	s	21	5	SIC	476	ABS	1	0	02VD 02VO 02VC 02MD 02MO 10MC 02RD 02RO	0	1	1.43536496162	None	None	None	None	1
2.7	2015_Jun_12_1141	s	s	21	5	SIC	477	ABS	2	2	10VD 02VO 02VC 02MD 02MO 02MC 02RD 02RO	0	1	0.915125131607	None	None	None	None	1
2.7	2015_Jun_12_1141	s	s	21	5	SIC	478	RC	1	2	02VD 02VO 02VC 09MD 02MO 02MC 02RD 02RO	0	1	1.86533999443	-254.0	410.0	None	None	0
2.7	2015_Jun_12_1141	s	s	21	5	SIC	479	RC	1	1	02VD 02VO 02VC 02MD 09MO 02MC 02RD 02RO	0	1	1.33615708351	-133.0	-362.0	None	None	0
2.7	2015_Jun_12_1141	s	s	21	5	SIC	480	ABS	1	2	02VD 02VO 02VC 10MD 02MO 02MC 02RD 02RO	0	1	0.900107145309	None	None	None	None	1
