Version	Date	Stimuli	Method	Subject	Session	Condition	Trial	Target	Channel1	Channel2	Distractors	LMouseButton	RMouseButton	RT	TargetX	TargetY	ResponseX	ResponseY	Correct
2.7	2015_Jun_08_1159	s	s	21	1	Capacity	1	ABS	0	1	08RD 16RO	0	1	2.76542210579	None	None	None	None	1
2.7	2015_Jun_08_1159	s	s	21	1	Capacity	2	ABS	0	2	16RD 08RO	0	1	3.00903582573	None	None	None	None	1
2.7	2015_Jun_08_1159	s	s	21	1	Capacity	3	RC	0	2	15RD 08RO	1	0	2.2190220356	-168.0	-127.0	-168	-122	1
2.7	2015_Jun_08_1159	s	s	21	1	Capacity	4	RC	0	1	08RD 15RO	0	1	2.91596412659	-286.0	-128.0	None	None	0
2.7	2015_Jun_08_1159	s	s	21	1	Capacity	5	ABS	0	2	16RD 08RO	0	1	2.56536102295	None	None	None	None	1
2.7	2015_Jun_08_1159	s	s	21	1	Capacity	6	RC	0	2	15RD 08RO	1	0	1.90378904343	63.0	181.0	60	172	1
2.7	2015_Jun_08_1159	s	s	21	1	Capacity	7	ABS	0	1	08RD 16RO	0	1	6.2730820179	None	None	None	None	1
2.7	2015_Jun_08_1159	s	s	21	1	Capacity	8	RC	0	1	08RD 15RO	1	0	0.996704101562	-80.0	243.0	-80	236	1
2.7	2015_Jun_08_1159	s	s	21	1	Capacity	9	RC	0	1	08RD 15RO	0	1	2.78892588615	-243.0	-228.0	None	None	0
2.7	2015_Jun_08_1159	s	s	21	1	Capacity	10	RC	0	2	15RD 08RO	1	0	1.97367787361	425.0	-189.0	433	-195	1
2.7	2015_Jun_08_1159	s	s	21	1	Capacity	11	ABS	0	2	16RD 08RO	0	1	2.05918002129	None	None	None	None	1
2.7	2015_Jun_08_1159	s	s	21	1	Capacity	12	ABS	0	1	08RD 16RO	0	1	2.715528965	None	None	None	None	1
2.7	2015_Jun_08_1159	s	s	21	1	Capacity	13	ABS	0	2	16RD 08RO	0	1	2.76063799858	None	None	None	None	1
2.7	2015_Jun_08_1159	s	s	21	1	Capacity	14	RC	0	1	08RD 15RO	1	0	2.00717997551	-488.0	205.0	-486	193	1
2.7	2015_Jun_08_1159	s	s	21	1	Capacity	15	ABS	0	1	08RD 16RO	0	1	2.98902082443	None	None	None	None	1
2.7	2015_Jun_08_1159	s	s	21	1	Capacity	16	RC	0	2	15RD 08RO	1	0	2.05434918404	134.0	-160.0	133	-167	1
2.7	2015_Jun_08_1159	s	s	21	1	Capacity	17	RC	0	1	08RD 15RO	1	0	0.950496912003	8.0	-91.0	11	-88	1
2.7	2015_Jun_08_1159	s	s	21	1	Capacity	18	RC	0	2	15RD 08RO	1	0	1.59690213203	-421.0	-298.0	-428	-291	1
2.7	2015_Jun_08_1159	s	s	21	1	Capacity	19	ABS	0	1	08RD 16RO	0	1	2.76047492027	None	None	None	None	1
2.7	2015_Jun_08_1159	s	s	21	1	Capacity	20	ABS	0	2	16RD 08RO	0	1	3.36579990387	None	None	None	None	1
2.7	2015_Jun_08_1159	s	s	21	1	Capacity	21	RC	0	2	15RD 08RO	0	1	2.25441908836	-370.0	235.0	None	None	0
2.7	2015_Jun_08_1159	s	s	21	1	Capacity	22	RC	0	1	08RD 15RO	1	0	1.5884540081	-147.0	297.0	-142	298	1
2.7	2015_Jun_08_1159	s	s	21	1	Capacity	23	ABS	0	1	08RD 16RO	0	1	3.39626193047	None	None	None	None	1
2.7	2015_Jun_08_1159	s	s	21	1	Capacity	24	ABS	0	2	16RD 08RO	0	1	3.80829596519	None	None	None	None	1
2.7	2015_Jun_08_1159	s	s	21	1	Capacity	25	RC	0	2	15RD 08RO	1	0	1.90648198128	-533.0	72.0	-537	71	1
2.7	2015_Jun_08_1159	s	s	21	1	Capacity	26	RC	0	1	08RD 15RO	1	0	2.83103299141	393.0	-410.0	397	-417	1
2.7	2015_Jun_08_1159	s	s	21	1	Capacity	27	ABS	0	1	08RD 16RO	0	1	3.71886181831	None	None	None	None	1
2.7	2015_Jun_08_1159	s	s	21	1	Capacity	28	ABS	0	2	16RD 08RO	0	1	3.53908491135	None	None	None	None	1
2.7	2015_Jun_08_1159	s	s	21	1	Capacity	29	RC	0	2	15RD 08RO	1	0	1.08224987984	143.0	105.0	145	96	1
2.7	2015_Jun_08_1159	s	s	21	1	Capacity	30	RC	0	1	08RD 15RO	1	0	0.900780200958	2.0	73.0	10	72	1
2.7	2015_Jun_08_1159	s	s	21	1	Capacity	31	ABS	0	2	16RD 08RO	0	1	2.19800519943	None	None	None	None	1
2.7	2015_Jun_08_1159	s	s	21	1	Capacity	32	ABS	0	1	08RD 16RO	1	0	3.17742109299	None	None	-92	-200	0
2.7	2015_Jun_08_1159	s	s	21	1	Capacity	33	RC	0	1	08RD 15RO	1	0	2.58425498009	487.0	-52.0	486	-46	1
2.7	2015_Jun_08_1159	s	s	21	1	Capacity	34	RC	0	2	15RD 08RO	0	1	2.69858813286	344.0	275.0	None	None	0
2.7	2015_Jun_08_1159	s	s	21	1	Capacity	35	ABS	0	1	08RD 16RO	0	1	3.33663797379	None	None	None	None	1
2.7	2015_Jun_08_1159	s	s	21	1	Capacity	36	ABS	0	2	16RD 08RO	0	1	3.27887606621	None	None	None	None	1
2.7	2015_Jun_08_1159	s	s	21	1	Capacity	37	RC	0	1	08RD 15RO	1	0	3.73817396164	378.0	-403.0	380	-417	1
2.7	2015_Jun_08_1159	s	s	21	1	Capacity	38	RC	0	2	15RD 08RO	1	0	1.11761188507	-539.0	125.0	-538	127	1
2.7	2015_Jun_08_1159	s	s	21	1	Capacity	39	ABS	0	2	16RD 08RO	0	1	2.77428889275	None	None	None	None	1
2.7	2015_Jun_08_1159	s	s	21	1	Capacity	40	ABS	0	1	08RD 16RO	0	1	3.28337812424	None	None	None	None	1
2.7	2015_Jun_08_1159	s	s	21	1	Capacity	41	ABS	0	1	08RD 16RO	0	1	3.43143081665	None	None	None	None	1
2.7	2015_Jun_08_1159	s	s	21	1	Capacity	42	RC	0	1	08RD 15RO	1	0	3.21099495888	125.0	-394.0	118	-388	1
2.7	2015_Jun_08_1159	s	s	21	1	Capacity	43	ABS	0	2	16RD 08RO	0	1	3.04367303848	None	None	None	None	1
2.7	2015_Jun_08_1159	s	s	21	1	Capacity	44	RC	0	2	15RD 08RO	1	0	1.31268191338	438.0	381.0	446	378	1
2.7	2015_Jun_08_1159	s	s	21	1	Capacity	45	ABS	0	2	16RD 08RO	0	1	2.71832609177	None	None	None	None	1
2.7	2015_Jun_08_1159	s	s	21	1	Capacity	46	RC	0	2	15RD 08RO	1	0	1.87795186043	236.0	-284.0	228	-289	1
2.7	2015_Jun_08_1159	s	s	21	1	Capacity	47	ABS	0	1	08RD 16RO	0	1	3.1609210968	None	None	None	None	1
2.7	2015_Jun_08_1159	s	s	21	1	Capacity	48	RC	0	1	08RD 15RO	1	0	2.80080485344	-419.0	223.0	-422	221	1
2.7	2015_Jun_08_1159	s	s	21	1	Capacity	49	ABS	0	1	08RD 16RO	0	1	3.42462301254	None	None	None	None	1
2.7	2015_Jun_08_1159	s	s	21	1	Capacity	50	RC	0	2	15RD 08RO	1	0	1.6440141201	445.0	214.0	453	211	1
2.7	2015_Jun_08_1159	s	s	21	1	Capacity	51	RC	0	1	08RD 15RO	0	1	4.03139805794	252.0	341.0	None	None	0
2.7	2015_Jun_08_1159	s	s	21	1	Capacity	52	ABS	0	2	16RD 08RO	1	0	2.38889098167	None	None	-95	-8	0
2.7	2015_Jun_08_1159	s	s	21	1	Capacity	53	RC	0	2	15RD 08RO	1	0	1.77351093292	-484.0	36.0	-479	36	1
2.7	2015_Jun_08_1159	s	s	21	1	Capacity	54	ABS	0	2	16RD 08RO	0	1	2.76229095459	None	None	None	None	1
2.7	2015_Jun_08_1159	s	s	21	1	Capacity	55	ABS	0	1	08RD 16RO	0	1	2.63096809387	None	None	None	None	1
2.7	2015_Jun_08_1159	s	s	21	1	Capacity	56	RC	0	1	08RD 15RO	1	0	4.04846000671	237.0	285.0	241	277	1
2.7	2015_Jun_08_1159	s	s	21	1	Capacity	57	RC	0	1	08RD 15RO	1	0	1.47832798958	-514.0	59.0	-506	56	1
2.7	2015_Jun_08_1159	s	s	21	1	Capacity	58	ABS	0	1	08RD 16RO	0	1	2.85986399651	None	None	None	None	1
2.7	2015_Jun_08_1159	s	s	21	1	Capacity	59	RC	0	2	15RD 08RO	1	0	1.13635420799	-46.0	342.0	-38	336	1
2.7	2015_Jun_08_1159	s	s	21	1	Capacity	60	ABS	0	2	16RD 08RO	0	1	2.80884718895	None	None	None	None	1
2.7	2015_Jun_08_1159	s	s	21	1	Capacity	61	RC	0	2	15RD 08RO	1	0	1.44715619087	-258.0	-138.0	-257	-149	1
2.7	2015_Jun_08_1159	s	s	21	1	Capacity	62	ABS	0	1	08RD 16RO	0	1	3.2902970314	None	None	None	None	1
2.7	2015_Jun_08_1159	s	s	21	1	Capacity	63	RC	0	1	08RD 15RO	1	0	3.71878910065	-359.0	-332.0	-356	-335	1
2.7	2015_Jun_08_1159	s	s	21	1	Capacity	64	ABS	0	2	16RD 08RO	0	1	2.14540600777	None	None	None	None	1
2.7	2015_Jun_08_1159	s	s	21	1	Capacity	1	ABS	1	0	08VC 16MC	1	0	6.18584394455	None	None	-430	232	0
2.7	2015_Jun_08_1159	s	s	21	1	Capacity	2	ABS	2	0	16VC 08MC	1	0	9.22748684883	None	None	-104	-253	0
2.7	2015_Jun_08_1159	s	s	21	1	Capacity	3	RC	1	0	08VC 15MC	0	1	7.32067704201	-499.0	-175.0	None	None	0
2.7	2015_Jun_08_1159	s	s	21	1	Capacity	4	RC	2	0	15VC 08MC	1	0	1.60705900192	-243.0	-94.0	-246	-89	1
2.7	2015_Jun_08_1159	s	s	21	1	Capacity	5	ABS	1	0	08VC 16MC	0	1	4.31426620483	None	None	None	None	1
2.7	2015_Jun_08_1159	s	s	21	1	Capacity	6	RC	1	0	08VC 15MC	1	0	2.01213288307	-1.0	236.0	-2	229	1
2.7	2015_Jun_08_1159	s	s	21	1	Capacity	7	ABS	2	0	16VC 08MC	0	1	2.28912901878	None	None	None	None	1
2.7	2015_Jun_08_1159	s	s	21	1	Capacity	8	RC	2	0	15VC 08MC	1	0	3.5422680378	277.0	396.0	281	390	1
2.7	2015_Jun_08_1159	s	s	21	1	Capacity	9	RC	2	0	15VC 08MC	1	0	1.52661204338	-130.0	344.0	-117	352	1
2.7	2015_Jun_08_1159	s	s	21	1	Capacity	10	ABS	1	0	08VC 16MC	0	1	3.07965993881	None	None	None	None	1
2.7	2015_Jun_08_1159	s	s	21	1	Capacity	11	RC	1	0	08VC 15MC	1	0	2.67119002342	-451.0	-104.0	-449	-110	1
2.7	2015_Jun_08_1159	s	s	21	1	Capacity	12	ABS	2	0	16VC 08MC	0	1	1.93617391586	None	None	None	None	1
2.7	2015_Jun_08_1159	s	s	21	1	Capacity	13	ABS	1	0	08VC 16MC	0	1	4.2837498188	None	None	None	None	1
2.7	2015_Jun_08_1159	s	s	21	1	Capacity	14	RC	2	0	15VC 08MC	1	0	1.30623912811	54.0	287.0	51	281	1
2.7	2015_Jun_08_1159	s	s	21	1	Capacity	15	RC	1	0	08VC 15MC	0	1	4.06990504265	-443.0	-304.0	None	None	0
2.7	2015_Jun_08_1159	s	s	21	1	Capacity	16	ABS	2	0	16VC 08MC	0	1	2.53016114235	None	None	None	None	1
2.7	2015_Jun_08_1159	s	s	21	1	Capacity	17	RC	2	0	15VC 08MC	0	1	4.63349294662	-319.0	-315.0	None	None	0
2.7	2015_Jun_08_1159	s	s	21	1	Capacity	18	ABS	2	0	16VC 08MC	0	1	2.52525496483	None	None	None	None	1
2.7	2015_Jun_08_1159	s	s	21	1	Capacity	19	RC	1	0	08VC 15MC	1	0	1.52443194389	109.0	56.0	109	56	1
2.7	2015_Jun_08_1159	s	s	21	1	Capacity	20	ABS	1	0	08VC 16MC	0	1	2.15955090523	None	None	None	None	1
2.7	2015_Jun_08_1159	s	s	21	1	Capacity	21	RC	2	0	15VC 08MC	1	0	0.858822822571	105.0	-60.0	107	-68	1
2.7	2015_Jun_08_1159	s	s	21	1	Capacity	22	RC	1	0	08VC 15MC	1	0	2.6477291584	210.0	404.0	212	406	1
2.7	2015_Jun_08_1159	s	s	21	1	Capacity	23	ABS	2	0	16VC 08MC	0	1	2.48311591148	None	None	None	None	1
2.7	2015_Jun_08_1159	s	s	21	1	Capacity	24	ABS	1	0	08VC 16MC	0	1	2.45428180695	None	None	None	None	1
2.7	2015_Jun_08_1159	s	s	21	1	Capacity	25	RC	2	0	15VC 08MC	1	0	1.21172499657	-185.0	270.0	-184	270	1
2.7	2015_Jun_08_1159	s	s	21	1	Capacity	26	RC	1	0	08VC 15MC	1	0	1.2470459938	-261.0	316.0	-261	308	1
2.7	2015_Jun_08_1159	s	s	21	1	Capacity	27	ABS	2	0	16VC 08MC	0	1	1.87468194962	None	None	None	None	1
2.7	2015_Jun_08_1159	s	s	21	1	Capacity	28	ABS	1	0	08VC 16MC	1	0	2.94188404083	None	None	540	113	0
2.7	2015_Jun_08_1159	s	s	21	1	Capacity	29	ABS	2	0	16VC 08MC	0	1	3.25981998444	None	None	None	None	1
2.7	2015_Jun_08_1159	s	s	21	1	Capacity	30	RC	2	0	15VC 08MC	1	0	2.4189748764	7.0	209.0	9	208	1
2.7	2015_Jun_08_1159	s	s	21	1	Capacity	31	RC	1	0	08VC 15MC	0	1	1.20687294006	426.0	48.0	None	None	0
2.7	2015_Jun_08_1159	s	s	21	1	Capacity	32	ABS	1	0	08VC 16MC	0	1	2.84285497665	None	None	None	None	1
2.7	2015_Jun_08_1159	s	s	21	1	Capacity	33	ABS	1	0	08VC 16MC	0	1	2.00835704803	None	None	None	None	1
2.7	2015_Jun_08_1159	s	s	21	1	Capacity	34	RC	1	0	08VC 15MC	1	0	1.14111399651	206.0	262.0	203	263	1
2.7	2015_Jun_08_1159	s	s	21	1	Capacity	35	ABS	2	0	16VC 08MC	0	1	2.76186299324	None	None	None	None	1
2.7	2015_Jun_08_1159	s	s	21	1	Capacity	36	RC	2	0	15VC 08MC	0	1	1.69089412689	-507.0	-301.0	None	None	0
2.7	2015_Jun_08_1159	s	s	21	1	Capacity	37	RC	1	0	08VC 15MC	0	1	2.76547193527	-16.0	246.0	None	None	0
2.7	2015_Jun_08_1159	s	s	21	1	Capacity	38	ABS	1	0	08VC 16MC	0	1	3.2597899437	None	None	None	None	1
2.7	2015_Jun_08_1159	s	s	21	1	Capacity	39	ABS	2	0	16VC 08MC	0	1	4.06727790833	None	None	None	None	1
2.7	2015_Jun_08_1159	s	s	21	1	Capacity	40	RC	2	0	15VC 08MC	1	0	1.13597893715	-47.0	373.0	-42	373	1
2.7	2015_Jun_08_1159	s	s	21	1	Capacity	41	RC	1	0	08VC 15MC	1	0	1.8002011776	142.0	277.0	153	278	1
2.7	2015_Jun_08_1159	s	s	21	1	Capacity	42	ABS	2	0	16VC 08MC	0	1	3.3304579258	None	None	None	None	1
2.7	2015_Jun_08_1159	s	s	21	1	Capacity	43	RC	2	0	15VC 08MC	1	0	3.58450818062	537.0	-217.0	536	-222	1
2.7	2015_Jun_08_1159	s	s	21	1	Capacity	44	ABS	1	0	08VC 16MC	0	1	2.72741389275	None	None	None	None	1
2.7	2015_Jun_08_1159	s	s	21	1	Capacity	45	RC	2	0	15VC 08MC	0	1	5.73165512085	527.0	115.0	None	None	0
2.7	2015_Jun_08_1159	s	s	21	1	Capacity	46	RC	1	0	08VC 15MC	1	0	1.97673392296	-496.0	-111.0	-493	-114	1
2.7	2015_Jun_08_1159	s	s	21	1	Capacity	47	ABS	2	0	16VC 08MC	0	1	1.07076001167	None	None	None	None	1
2.7	2015_Jun_08_1159	s	s	21	1	Capacity	48	ABS	1	0	08VC 16MC	0	1	2.85978317261	None	None	None	None	1
2.7	2015_Jun_08_1159	s	s	21	1	Capacity	49	ABS	2	0	16VC 08MC	0	1	3.87185811996	None	None	None	None	1
2.7	2015_Jun_08_1159	s	s	21	1	Capacity	50	RC	1	0	08VC 15MC	1	0	2.10270190239	-70.0	-174.0	-67	-173	1
2.7	2015_Jun_08_1159	s	s	21	1	Capacity	51	RC	2	0	15VC 08MC	0	1	1.88936400414	-279.0	-49.0	None	None	0
2.7	2015_Jun_08_1159	s	s	21	1	Capacity	52	ABS	1	0	08VC 16MC	0	1	2.72522115707	None	None	None	None	1
2.7	2015_Jun_08_1159	s	s	21	1	Capacity	53	ABS	2	0	16VC 08MC	0	1	6.22269487381	None	None	None	None	1
2.7	2015_Jun_08_1159	s	s	21	1	Capacity	54	RC	2	0	15VC 08MC	1	0	1.69439792633	433.0	234.0	439	233	1
2.7	2015_Jun_08_1159	s	s	21	1	Capacity	55	RC	1	0	08VC 15MC	1	0	2.27490901947	-525.0	227.0	-518	222	1
2.7	2015_Jun_08_1159	s	s	21	1	Capacity	56	ABS	1	0	08VC 16MC	0	1	2.11799812317	None	None	None	None	1
2.7	2015_Jun_08_1159	s	s	21	1	Capacity	57	ABS	1	0	08VC 16MC	0	1	2.48303413391	None	None	None	None	1
2.7	2015_Jun_08_1159	s	s	21	1	Capacity	58	ABS	2	0	16VC 08MC	0	1	1.59521222115	None	None	None	None	1
2.7	2015_Jun_08_1159	s	s	21	1	Capacity	59	RC	2	0	15VC 08MC	1	0	1.7649679184	334.0	72.0	342	73	1
2.7	2015_Jun_08_1159	s	s	21	1	Capacity	60	RC	1	0	08VC 15MC	1	0	1.81865000725	-437.0	357.0	-442	348	1
2.7	2015_Jun_08_1159	s	s	21	1	Capacity	61	ABS	2	0	16VC 08MC	0	1	2.09021782875	None	None	None	None	1
2.7	2015_Jun_08_1159	s	s	21	1	Capacity	62	ABS	1	0	08VC 16MC	0	1	4.00142717361	None	None	None	None	1
2.7	2015_Jun_08_1159	s	s	21	1	Capacity	63	RC	2	0	15VC 08MC	1	0	2.38881611824	134.0	-71.0	138	-73	1
2.7	2015_Jun_08_1159	s	s	21	1	Capacity	64	RC	1	0	08VC 15MC	0	1	1.76000094414	-200.0	256.0	None	None	0
2.7	2015_Jun_08_1159	s	s	21	1	SIC	1	ABS	1	0	02VD 02VO 02VC 02MD 02MO 10MC 02RD 02RO	0	1	3.59911894798	None	None	None	None	1
2.7	2015_Jun_08_1159	s	s	21	1	SIC	2	ABS	0	2	02VD 02VO 02VC 02MD 02MO 02MC 10RD 02RO	0	1	5.0960688591	None	None	None	None	1
2.7	2015_Jun_08_1159	s	s	21	1	SIC	3	ABS	1	1	02VD 02VO 02VC 02MD 10MO 02MC 02RD 02RO	0	1	5.39851593971	None	None	None	None	1
2.7	2015_Jun_08_1159	s	s	21	1	SIC	4	RC	2	1	02VD 09VO 02VC 02MD 02MO 02MC 02RD 02RO	1	0	1.96064901352	-27.0	233.0	-27	241	1
2.7	2015_Jun_08_1159	s	s	21	1	SIC	5	RC	0	2	02VD 02VO 02VC 02MD 02MO 02MC 09RD 02RO	0	1	3.24309492111	448.0	56.0	None	None	0
2.7	2015_Jun_08_1159	s	s	21	1	SIC	6	RC	0	1	02VD 02VO 02VC 02MD 02MO 02MC 02RD 09RO	0	1	3.3136920929	307.0	136.0	None	None	0
2.7	2015_Jun_08_1159	s	s	21	1	SIC	7	ABS	2	0	02VD 02VO 10VC 02MD 02MO 02MC 02RD 02RO	0	1	3.47216200829	None	None	None	None	1
2.7	2015_Jun_08_1159	s	s	21	1	SIC	8	ABS	2	1	02VD 10VO 02VC 02MD 02MO 02MC 02RD 02RO	0	1	5.97918581963	None	None	None	None	1
2.7	2015_Jun_08_1159	s	s	21	1	SIC	9	RC	2	0	02VD 02VO 09VC 02MD 02MO 02MC 02RD 02RO	1	0	2.17181491852	534.0	109.0	539	104	1
2.7	2015_Jun_08_1159	s	s	21	1	SIC	10	ABS	0	1	02VD 02VO 02VC 02MD 02MO 02MC 02RD 10RO	0	1	3.836550951	None	None	None	None	1
2.7	2015_Jun_08_1159	s	s	21	1	SIC	11	RC	1	2	02VD 02VO 02VC 09MD 02MO 02MC 02RD 02RO	1	0	0.971922159195	-35.0	226.0	-33	223	1
2.7	2015_Jun_08_1159	s	s	21	1	SIC	12	RC	2	2	09VD 02VO 02VC 02MD 02MO 02MC 02RD 02RO	1	0	1.55999112129	134.0	-205.0	136	-204	1
2.7	2015_Jun_08_1159	s	s	21	1	SIC	13	ABS	1	2	02VD 02VO 02VC 10MD 02MO 02MC 02RD 02RO	0	1	2.40952587128	None	None	None	None	1
2.7	2015_Jun_08_1159	s	s	21	1	SIC	14	RC	1	0	02VD 02VO 02VC 02MD 02MO 09MC 02RD 02RO	1	0	2.08278393745	533.0	405.0	527	397	1
2.7	2015_Jun_08_1159	s	s	21	1	SIC	15	RC	1	1	02VD 02VO 02VC 02MD 09MO 02MC 02RD 02RO	1	0	2.53688001633	-506.0	-272.0	-506	-278	1
2.7	2015_Jun_08_1159	s	s	21	1	SIC	16	ABS	2	2	10VD 02VO 02VC 02MD 02MO 02MC 02RD 02RO	0	1	3.34903502464	None	None	None	None	1
2.7	2015_Jun_08_1159	s	s	21	1	SIC	17	RC	1	1	02VD 02VO 02VC 02MD 09MO 02MC 02RD 02RO	1	0	2.27109193802	280.0	-40.0	280	-37	1
2.7	2015_Jun_08_1159	s	s	21	1	SIC	18	RC	2	0	02VD 02VO 09VC 02MD 02MO 02MC 02RD 02RO	1	0	1.26264810562	-168.0	-136.0	-167	-140	1
2.7	2015_Jun_08_1159	s	s	21	1	SIC	19	RC	0	1	02VD 02VO 02VC 02MD 02MO 02MC 02RD 09RO	1	0	3.14214420319	-191.0	-368.0	-189	-364	1
2.7	2015_Jun_08_1159	s	s	21	1	SIC	20	RC	2	2	09VD 02VO 02VC 02MD 02MO 02MC 02RD 02RO	1	0	2.08656716347	-44.0	-257.0	-40	-258	1
2.7	2015_Jun_08_1159	s	s	21	1	SIC	21	RC	1	2	02VD 02VO 02VC 09MD 02MO 02MC 02RD 02RO	1	0	2.27103114128	-511.0	-193.0	-509	-195	1
2.7	2015_Jun_08_1159	s	s	21	1	SIC	22	RC	0	2	02VD 02VO 02VC 02MD 02MO 02MC 09RD 02RO	1	0	1.07708716393	143.0	395.0	144	400	1
2.7	2015_Jun_08_1159	s	s	21	1	SIC	23	ABS	1	1	02VD 02VO 02VC 02MD 10MO 02MC 02RD 02RO	0	1	2.40707302094	None	None	None	None	1
2.7	2015_Jun_08_1159	s	s	21	1	SIC	24	ABS	2	1	02VD 10VO 02VC 02MD 02MO 02MC 02RD 02RO	0	1	1.85419392586	None	None	None	None	1
2.7	2015_Jun_08_1159	s	s	21	1	SIC	25	ABS	1	0	02VD 02VO 02VC 02MD 02MO 10MC 02RD 02RO	0	1	3.27157592773	None	None	None	None	1
2.7	2015_Jun_08_1159	s	s	21	1	SIC	26	ABS	0	2	02VD 02VO 02VC 02MD 02MO 02MC 10RD 02RO	0	1	2.90169787407	None	None	None	None	1
2.7	2015_Jun_08_1159	s	s	21	1	SIC	27	ABS	1	2	02VD 02VO 02VC 10MD 02MO 02MC 02RD 02RO	0	1	2.94193911552	None	None	None	None	1
2.7	2015_Jun_08_1159	s	s	21	1	SIC	28	ABS	0	1	02VD 02VO 02VC 02MD 02MO 02MC 02RD 10RO	0	1	3.55411720276	None	None	None	None	1
2.7	2015_Jun_08_1159	s	s	21	1	SIC	29	ABS	2	2	10VD 02VO 02VC 02MD 02MO 02MC 02RD 02RO	0	1	2.63114094734	None	None	None	None	1
2.7	2015_Jun_08_1159	s	s	21	1	SIC	30	ABS	2	0	02VD 02VO 10VC 02MD 02MO 02MC 02RD 02RO	0	1	5.1861269474	None	None	None	None	1
2.7	2015_Jun_08_1159	s	s	21	1	SIC	31	RC	1	0	02VD 02VO 02VC 02MD 02MO 09MC 02RD 02RO	1	0	1.51291012764	-239.0	-289.0	-240	-293	1
2.7	2015_Jun_08_1159	s	s	21	1	SIC	32	RC	2	1	02VD 09VO 02VC 02MD 02MO 02MC 02RD 02RO	1	0	1.57661104202	-53.0	395.0	-57	386	1
2.7	2015_Jun_08_1159	s	s	21	1	SIC	33	ABS	0	2	02VD 02VO 02VC 02MD 02MO 02MC 10RD 02RO	0	1	2.96094799042	None	None	None	None	1
2.7	2015_Jun_08_1159	s	s	21	1	SIC	34	ABS	1	2	02VD 02VO 02VC 10MD 02MO 02MC 02RD 02RO	0	1	2.90642809868	None	None	None	None	1
2.7	2015_Jun_08_1159	s	s	21	1	SIC	35	ABS	1	1	02VD 02VO 02VC 02MD 10MO 02MC 02RD 02RO	0	1	2.48342394829	None	None	None	None	1
2.7	2015_Jun_08_1159	s	s	21	1	SIC	36	ABS	1	0	02VD 02VO 02VC 02MD 02MO 10MC 02RD 02RO	0	1	2.94909095764	None	None	None	None	1
2.7	2015_Jun_08_1159	s	s	21	1	SIC	37	RC	1	1	02VD 02VO 02VC 02MD 09MO 02MC 02RD 02RO	1	0	2.46678090096	-91.0	16.0	-81	15	1
2.7	2015_Jun_08_1159	s	s	21	1	SIC	38	ABS	2	1	02VD 10VO 02VC 02MD 02MO 02MC 02RD 02RO	0	1	1.87684512138	None	None	None	None	1
2.7	2015_Jun_08_1159	s	s	21	1	SIC	39	RC	0	2	02VD 02VO 02VC 02MD 02MO 02MC 09RD 02RO	1	0	1.47477006912	248.0	8.0	242	9	1
2.7	2015_Jun_08_1159	s	s	21	1	SIC	40	RC	2	1	02VD 09VO 02VC 02MD 02MO 02MC 02RD 02RO	1	0	1.74819397926	-284.0	-46.0	-275	-49	1
2.7	2015_Jun_08_1159	s	s	21	1	SIC	41	RC	2	2	09VD 02VO 02VC 02MD 02MO 02MC 02RD 02RO	1	0	2.153414011	533.0	-192.0	536	-193	1
2.7	2015_Jun_08_1159	s	s	21	1	SIC	42	RC	2	0	02VD 02VO 09VC 02MD 02MO 02MC 02RD 02RO	1	0	1.02331900597	-422.0	158.0	-418	159	1
2.7	2015_Jun_08_1159	s	s	21	1	SIC	43	RC	0	1	02VD 02VO 02VC 02MD 02MO 02MC 02RD 09RO	1	0	3.31372404099	-442.0	-5.0	-443	-9	1
2.7	2015_Jun_08_1159	s	s	21	1	SIC	44	ABS	0	1	02VD 02VO 02VC 02MD 02MO 02MC 02RD 10RO	0	1	2.95375394821	None	None	None	None	1
2.7	2015_Jun_08_1159	s	s	21	1	SIC	45	RC	1	2	02VD 02VO 02VC 09MD 02MO 02MC 02RD 02RO	1	0	1.80028700829	179.0	-227.0	184	-231	1
2.7	2015_Jun_08_1159	s	s	21	1	SIC	46	ABS	2	0	02VD 02VO 10VC 02MD 02MO 02MC 02RD 02RO	0	1	2.20047807693	None	None	None	None	1
2.7	2015_Jun_08_1159	s	s	21	1	SIC	47	RC	1	0	02VD 02VO 02VC 02MD 02MO 09MC 02RD 02RO	1	0	1.85991311073	377.0	-334.0	383	-338	1
2.7	2015_Jun_08_1159	s	s	21	1	SIC	48	ABS	2	2	10VD 02VO 02VC 02MD 02MO 02MC 02RD 02RO	0	1	2.6665828228	None	None	None	None	1
2.7	2015_Jun_08_1159	s	s	21	1	SIC	49	RC	1	2	02VD 02VO 02VC 09MD 02MO 02MC 02RD 02RO	1	0	0.959301948547	-327.0	332.0	-326	332	1
2.7	2015_Jun_08_1159	s	s	21	1	SIC	50	RC	1	1	02VD 02VO 02VC 02MD 09MO 02MC 02RD 02RO	1	0	2.43233108521	337.0	-394.0	343	-401	1
2.7	2015_Jun_08_1159	s	s	21	1	SIC	51	ABS	0	1	02VD 02VO 02VC 02MD 02MO 02MC 02RD 10RO	0	1	3.30677604675	None	None	None	None	1
2.7	2015_Jun_08_1159	s	s	21	1	SIC	52	ABS	2	1	02VD 10VO 02VC 02MD 02MO 02MC 02RD 02RO	0	1	3.0795249939	None	None	None	None	1
2.7	2015_Jun_08_1159	s	s	21	1	SIC	53	ABS	2	2	10VD 02VO 02VC 02MD 02MO 02MC 02RD 02RO	0	1	2.70189809799	None	None	None	None	1
2.7	2015_Jun_08_1159	s	s	21	1	SIC	54	ABS	1	0	02VD 02VO 02VC 02MD 02MO 10MC 02RD 02RO	0	1	3.54230213165	None	None	None	None	1
2.7	2015_Jun_08_1159	s	s	21	1	SIC	55	RC	1	0	02VD 02VO 02VC 02MD 02MO 09MC 02RD 02RO	1	0	4.98586916924	-223.0	-256.0	-225	-253	1
2.7	2015_Jun_08_1159	s	s	21	1	SIC	56	ABS	1	1	02VD 02VO 02VC 02MD 10MO 02MC 02RD 02RO	0	1	3.06664705276	None	None	None	None	1
2.7	2015_Jun_08_1159	s	s	21	1	SIC	57	ABS	0	2	02VD 02VO 02VC 02MD 02MO 02MC 10RD 02RO	0	1	4.22873306274	None	None	None	None	1
2.7	2015_Jun_08_1159	s	s	21	1	SIC	58	RC	2	2	09VD 02VO 02VC 02MD 02MO 02MC 02RD 02RO	1	0	0.970762968063	-454.0	-145.0	-445	-144	1
2.7	2015_Jun_08_1159	s	s	21	1	SIC	59	RC	2	0	02VD 02VO 09VC 02MD 02MO 02MC 02RD 02RO	0	1	2.5486330986	463.0	-123.0	None	None	0
2.7	2015_Jun_08_1159	s	s	21	1	SIC	60	RC	0	1	02VD 02VO 02VC 02MD 02MO 02MC 02RD 09RO	1	0	3.48390722275	-173.0	-372.0	-165	-378	1
2.7	2015_Jun_08_1159	s	s	21	1	SIC	61	RC	2	1	02VD 09VO 02VC 02MD 02MO 02MC 02RD 02RO	1	0	1.11455798149	-13.0	-130.0	-7	-132	1
2.7	2015_Jun_08_1159	s	s	21	1	SIC	62	ABS	1	2	02VD 02VO 02VC 10MD 02MO 02MC 02RD 02RO	0	1	2.02397894859	None	None	None	None	1
2.7	2015_Jun_08_1159	s	s	21	1	SIC	63	ABS	2	0	02VD 02VO 10VC 02MD 02MO 02MC 02RD 02RO	0	1	2.91355705261	None	None	None	None	1
2.7	2015_Jun_08_1159	s	s	21	1	SIC	64	RC	0	2	02VD 02VO 02VC 02MD 02MO 02MC 09RD 02RO	1	0	2.49467897415	-441.0	15.0	-442	16	1
2.7	2015_Jun_08_1159	s	s	21	1	SIC	65	ABS	2	0	02VD 02VO 10VC 02MD 02MO 02MC 02RD 02RO	0	1	2.25448513031	None	None	None	None	1
2.7	2015_Jun_08_1159	s	s	21	1	SIC	66	RC	2	2	09VD 02VO 02VC 02MD 02MO 02MC 02RD 02RO	1	0	2.09227800369	461.0	356.0	467	361	1
2.7	2015_Jun_08_1159	s	s	21	1	SIC	67	RC	1	2	02VD 02VO 02VC 09MD 02MO 02MC 02RD 02RO	1	0	3.91554903984	-42.0	-57.0	-41	-59	1
2.7	2015_Jun_08_1159	s	s	21	1	SIC	68	RC	2	1	02VD 09VO 02VC 02MD 02MO 02MC 02RD 02RO	1	0	0.811541080475	-3.0	9.0	1	8	1
2.7	2015_Jun_08_1159	s	s	21	1	SIC	69	ABS	0	1	02VD 02VO 02VC 02MD 02MO 02MC 02RD 10RO	0	1	3.26950597763	None	None	None	None	1
2.7	2015_Jun_08_1159	s	s	21	1	SIC	70	RC	2	0	02VD 02VO 09VC 02MD 02MO 02MC 02RD 02RO	0	1	3.90399003029	443.0	52.0	None	None	0
2.7	2015_Jun_08_1159	s	s	21	1	SIC	71	ABS	2	2	10VD 02VO 02VC 02MD 02MO 02MC 02RD 02RO	0	1	2.01957201958	None	None	None	None	1
2.7	2015_Jun_08_1159	s	s	21	1	SIC	72	ABS	1	1	02VD 02VO 02VC 02MD 10MO 02MC 02RD 02RO	0	1	3.29507613182	None	None	None	None	1
2.7	2015_Jun_08_1159	s	s	21	1	SIC	73	ABS	2	1	02VD 10VO 02VC 02MD 02MO 02MC 02RD 02RO	0	1	2.12986898422	None	None	None	None	1
2.7	2015_Jun_08_1159	s	s	21	1	SIC	74	RC	0	1	02VD 02VO 02VC 02MD 02MO 02MC 02RD 09RO	0	1	3.17789292336	-407.0	-124.0	None	None	0
2.7	2015_Jun_08_1159	s	s	21	1	SIC	75	RC	1	0	02VD 02VO 02VC 02MD 02MO 09MC 02RD 02RO	1	0	3.40782499313	-463.0	243.0	-457	239	1
2.7	2015_Jun_08_1159	s	s	21	1	SIC	76	RC	1	1	02VD 02VO 02VC 02MD 09MO 02MC 02RD 02RO	0	1	2.60756492615	-19.0	369.0	None	None	0
2.7	2015_Jun_08_1159	s	s	21	1	SIC	77	ABS	1	2	02VD 02VO 02VC 10MD 02MO 02MC 02RD 02RO	0	1	2.41955089569	None	None	None	None	1
2.7	2015_Jun_08_1159	s	s	21	1	SIC	78	RC	0	2	02VD 02VO 02VC 02MD 02MO 02MC 09RD 02RO	0	1	2.41232514381	-374.0	144.0	None	None	0
2.7	2015_Jun_08_1159	s	s	21	1	SIC	79	ABS	0	2	02VD 02VO 02VC 02MD 02MO 02MC 10RD 02RO	0	1	2.37216711044	None	None	None	None	1
2.7	2015_Jun_08_1159	s	s	21	1	SIC	80	ABS	1	0	02VD 02VO 02VC 02MD 02MO 10MC 02RD 02RO	0	1	2.09450984001	None	None	None	None	1
2.7	2015_Jun_08_1159	s	s	21	1	SIC	81	RC	0	2	02VD 02VO 02VC 02MD 02MO 02MC 09RD 02RO	0	1	2.0777759552	-19.0	44.0	None	None	0
2.7	2015_Jun_08_1159	s	s	21	1	SIC	82	ABS	1	0	02VD 02VO 02VC 02MD 02MO 10MC 02RD 02RO	0	1	1.98623299599	None	None	None	None	1
2.7	2015_Jun_08_1159	s	s	21	1	SIC	83	ABS	1	1	02VD 02VO 02VC 02MD 10MO 02MC 02RD 02RO	0	1	2.19549894333	None	None	None	None	1
2.7	2015_Jun_08_1159	s	s	21	1	SIC	84	RC	1	2	02VD 02VO 02VC 09MD 02MO 02MC 02RD 02RO	0	1	2.12708687782	-312.0	338.0	None	None	0
2.7	2015_Jun_08_1159	s	s	21	1	SIC	85	ABS	1	2	02VD 02VO 02VC 10MD 02MO 02MC 02RD 02RO	0	1	1.20928096771	None	None	None	None	1
2.7	2015_Jun_08_1159	s	s	21	1	SIC	86	ABS	2	2	10VD 02VO 02VC 02MD 02MO 02MC 02RD 02RO	0	1	2.47827792168	None	None	None	None	1
2.7	2015_Jun_08_1159	s	s	21	1	SIC	87	ABS	2	1	02VD 10VO 02VC 02MD 02MO 02MC 02RD 02RO	0	1	2.95417189598	None	None	None	None	1
2.7	2015_Jun_08_1159	s	s	21	1	SIC	88	ABS	0	2	02VD 02VO 02VC 02MD 02MO 02MC 10RD 02RO	0	1	2.12987804413	None	None	None	None	1
2.7	2015_Jun_08_1159	s	s	21	1	SIC	89	RC	0	1	02VD 02VO 02VC 02MD 02MO 02MC 02RD 09RO	0	1	4.03663706779	-248.0	-330.0	None	None	0
2.7	2015_Jun_08_1159	s	s	21	1	SIC	90	RC	1	0	02VD 02VO 02VC 02MD 02MO 09MC 02RD 02RO	1	0	2.69192790985	306.0	-246.0	304	-248	1
2.7	2015_Jun_08_1159	s	s	21	1	SIC	91	RC	2	2	09VD 02VO 02VC 02MD 02MO 02MC 02RD 02RO	0	1	2.18382000923	223.0	-359.0	None	None	0
2.7	2015_Jun_08_1159	s	s	21	1	SIC	92	RC	2	0	02VD 02VO 09VC 02MD 02MO 02MC 02RD 02RO	1	0	1.6658270359	-476.0	-97.0	-479	-111	1
2.7	2015_Jun_08_1159	s	s	21	1	SIC	93	RC	1	1	02VD 02VO 02VC 02MD 09MO 02MC 02RD 02RO	1	0	2.40913009644	519.0	121.0	515	129	1
2.7	2015_Jun_08_1159	s	s	21	1	SIC	94	ABS	0	1	02VD 02VO 02VC 02MD 02MO 02MC 02RD 10RO	0	1	3.26576304436	None	None	None	None	1
2.7	2015_Jun_08_1159	s	s	21	1	SIC	95	ABS	2	0	02VD 02VO 10VC 02MD 02MO 02MC 02RD 02RO	0	1	3.13029789925	None	None	None	None	1
2.7	2015_Jun_08_1159	s	s	21	1	SIC	96	RC	2	1	02VD 09VO 02VC 02MD 02MO 02MC 02RD 02RO	1	0	3.2669301033	-295.0	-6.0	-294	-14	1
2.7	2015_Jun_08_1159	s	s	21	1	SIC	97	RC	1	1	02VD 02VO 02VC 02MD 09MO 02MC 02RD 02RO	0	1	1.68910193443	243.0	-312.0	None	None	0
2.7	2015_Jun_08_1159	s	s	21	1	SIC	98	RC	0	1	02VD 02VO 02VC 02MD 02MO 02MC 02RD 09RO	1	0	2.87139797211	130.0	54.0	135	46	1
2.7	2015_Jun_08_1159	s	s	21	1	SIC	99	RC	1	0	02VD 02VO 02VC 02MD 02MO 09MC 02RD 02RO	1	0	2.17194485664	515.0	-49.0	517	-48	1
2.7	2015_Jun_08_1159	s	s	21	1	SIC	100	RC	2	2	09VD 02VO 02VC 02MD 02MO 02MC 02RD 02RO	1	0	1.17642903328	-300.0	-197.0	-294	-202	1
2.7	2015_Jun_08_1159	s	s	21	1	SIC	101	ABS	1	0	02VD 02VO 02VC 02MD 02MO 10MC 02RD 02RO	0	1	3.05973100662	None	None	None	None	1
2.7	2015_Jun_08_1159	s	s	21	1	SIC	102	ABS	0	2	02VD 02VO 02VC 02MD 02MO 02MC 10RD 02RO	0	1	2.46618390083	None	None	None	None	1
2.7	2015_Jun_08_1159	s	s	21	1	SIC	103	ABS	2	0	02VD 02VO 10VC 02MD 02MO 02MC 02RD 02RO	0	1	1.89133906364	None	None	None	None	1
2.7	2015_Jun_08_1159	s	s	21	1	SIC	104	ABS	1	1	02VD 02VO 02VC 02MD 10MO 02MC 02RD 02RO	0	1	2.59566712379	None	None	None	None	1
2.7	2015_Jun_08_1159	s	s	21	1	SIC	105	RC	2	0	02VD 02VO 09VC 02MD 02MO 02MC 02RD 02RO	1	0	2.19549393654	483.0	-329.0	483	-335	1
2.7	2015_Jun_08_1159	s	s	21	1	SIC	106	ABS	2	2	10VD 02VO 02VC 02MD 02MO 02MC 02RD 02RO	0	1	2.55018091202	None	None	None	None	1
2.7	2015_Jun_08_1159	s	s	21	1	SIC	107	ABS	1	2	02VD 02VO 02VC 10MD 02MO 02MC 02RD 02RO	0	1	2.66618990898	None	None	None	None	1
2.7	2015_Jun_08_1159	s	s	21	1	SIC	108	ABS	2	1	02VD 10VO 02VC 02MD 02MO 02MC 02RD 02RO	0	1	2.25430011749	None	None	None	None	1
2.7	2015_Jun_08_1159	s	s	21	1	SIC	109	ABS	0	1	02VD 02VO 02VC 02MD 02MO 02MC 02RD 10RO	0	1	3.10672998428	None	None	None	None	1
2.7	2015_Jun_08_1159	s	s	21	1	SIC	110	RC	2	1	02VD 09VO 02VC 02MD 02MO 02MC 02RD 02RO	1	0	5.04894709587	-48.0	286.0	-40	284	1
2.7	2015_Jun_08_1159	s	s	21	1	SIC	111	RC	0	2	02VD 02VO 02VC 02MD 02MO 02MC 09RD 02RO	1	0	1.6472299099	-34.0	-190.0	-29	-187	1
2.7	2015_Jun_08_1159	s	s	21	1	SIC	112	RC	1	2	02VD 02VO 02VC 09MD 02MO 02MC 02RD 02RO	1	0	2.90182900429	-14.0	-404.0	-11	-409	1
2.7	2015_Jun_08_1159	s	s	21	1	SIC	113	ABS	2	2	10VD 02VO 02VC 02MD 02MO 02MC 02RD 02RO	0	1	3.31869912148	None	None	None	None	1
2.7	2015_Jun_08_1159	s	s	21	1	SIC	114	ABS	0	1	02VD 02VO 02VC 02MD 02MO 02MC 02RD 10RO	0	1	2.46595692635	None	None	None	None	1
2.7	2015_Jun_08_1159	s	s	21	1	SIC	115	RC	2	0	02VD 02VO 09VC 02MD 02MO 02MC 02RD 02RO	1	0	2.35350799561	-173.0	170.0	-177	170	1
2.7	2015_Jun_08_1159	s	s	21	1	SIC	116	RC	2	1	02VD 09VO 02VC 02MD 02MO 02MC 02RD 02RO	0	1	2.07095098495	-288.0	138.0	None	None	0
2.7	2015_Jun_08_1159	s	s	21	1	SIC	117	ABS	1	2	02VD 02VO 02VC 10MD 02MO 02MC 02RD 02RO	0	1	1.86678695679	None	None	None	None	1
2.7	2015_Jun_08_1159	s	s	21	1	SIC	118	ABS	2	0	02VD 02VO 10VC 02MD 02MO 02MC 02RD 02RO	0	1	2.14839410782	None	None	None	None	1
2.7	2015_Jun_08_1159	s	s	21	1	SIC	119	RC	1	1	02VD 02VO 02VC 02MD 09MO 02MC 02RD 02RO	1	0	5.22100496292	269.0	-30.0	266	-33	1
2.7	2015_Jun_08_1159	s	s	21	1	SIC	120	ABS	2	1	02VD 10VO 02VC 02MD 02MO 02MC 02RD 02RO	0	1	2.4688680172	None	None	None	None	1
2.7	2015_Jun_08_1159	s	s	21	1	SIC	121	ABS	1	1	02VD 02VO 02VC 02MD 10MO 02MC 02RD 02RO	0	1	2.61919498444	None	None	None	None	1
2.7	2015_Jun_08_1159	s	s	21	1	SIC	122	RC	1	0	02VD 02VO 02VC 02MD 02MO 09MC 02RD 02RO	1	0	2.25950694084	-404.0	-171.0	-404	-171	1
2.7	2015_Jun_08_1159	s	s	21	1	SIC	123	RC	0	1	02VD 02VO 02VC 02MD 02MO 02MC 02RD 09RO	1	0	3.54914712906	-481.0	230.0	-483	220	1
2.7	2015_Jun_08_1159	s	s	21	1	SIC	124	ABS	1	0	02VD 02VO 02VC 02MD 02MO 10MC 02RD 02RO	0	1	3.35087299347	None	None	None	None	1
2.7	2015_Jun_08_1159	s	s	21	1	SIC	125	RC	1	2	02VD 02VO 02VC 09MD 02MO 02MC 02RD 02RO	1	0	0.957673072815	43.0	290.0	50	286	1
2.7	2015_Jun_08_1159	s	s	21	1	SIC	126	RC	0	2	02VD 02VO 02VC 02MD 02MO 02MC 09RD 02RO	1	0	1.89065885544	-453.0	344.0	-451	332	1
2.7	2015_Jun_08_1159	s	s	21	1	SIC	127	ABS	0	2	02VD 02VO 02VC 02MD 02MO 02MC 10RD 02RO	0	1	2.56533789635	None	None	None	None	1
2.7	2015_Jun_08_1159	s	s	21	1	SIC	128	RC	2	2	09VD 02VO 02VC 02MD 02MO 02MC 02RD 02RO	1	0	1.71790504456	-452.0	-55.0	-456	-55	1
2.7	2015_Jun_08_1159	s	s	21	1	SIC	129	RC	1	0	02VD 02VO 02VC 02MD 02MO 09MC 02RD 02RO	0	1	3.12676882744	-297.0	44.0	None	None	0
2.7	2015_Jun_08_1159	s	s	21	1	SIC	130	ABS	1	1	02VD 02VO 02VC 02MD 10MO 02MC 02RD 02RO	1	0	2.94947099686	None	None	39	-87	0
2.7	2015_Jun_08_1159	s	s	21	1	SIC	131	RC	2	0	02VD 02VO 09VC 02MD 02MO 02MC 02RD 02RO	1	0	1.54130196571	329.0	391.0	322	388	1
2.7	2015_Jun_08_1159	s	s	21	1	SIC	132	RC	1	2	02VD 02VO 02VC 09MD 02MO 02MC 02RD 02RO	1	0	2.31314516068	-362.0	-249.0	-354	-249	1
2.7	2015_Jun_08_1159	s	s	21	1	SIC	133	ABS	0	1	02VD 02VO 02VC 02MD 02MO 02MC 02RD 10RO	0	1	3.31388688087	None	None	None	None	1
2.7	2015_Jun_08_1159	s	s	21	1	SIC	134	ABS	2	2	10VD 02VO 02VC 02MD 02MO 02MC 02RD 02RO	0	1	2.71594595909	None	None	None	None	1
2.7	2015_Jun_08_1159	s	s	21	1	SIC	135	ABS	2	1	02VD 10VO 02VC 02MD 02MO 02MC 02RD 02RO	0	1	2.20727682114	None	None	None	None	1
2.7	2015_Jun_08_1159	s	s	21	1	SIC	136	RC	1	1	02VD 02VO 02VC 02MD 09MO 02MC 02RD 02RO	0	1	3.44812202454	-427.0	-336.0	None	None	0
2.7	2015_Jun_08_1159	s	s	21	1	SIC	137	ABS	2	0	02VD 02VO 10VC 02MD 02MO 02MC 02RD 02RO	0	1	2.2070748806	None	None	None	None	1
2.7	2015_Jun_08_1159	s	s	21	1	SIC	138	RC	2	2	09VD 02VO 02VC 02MD 02MO 02MC 02RD 02RO	0	1	2.23580217361	-330.0	-69.0	None	None	0
2.7	2015_Jun_08_1159	s	s	21	1	SIC	139	ABS	0	2	02VD 02VO 02VC 02MD 02MO 02MC 10RD 02RO	0	1	2.53684401512	None	None	None	None	1
2.7	2015_Jun_08_1159	s	s	21	1	SIC	140	RC	2	1	02VD 09VO 02VC 02MD 02MO 02MC 02RD 02RO	1	0	1.7593858242	89.0	-278.0	86	-281	1
2.7	2015_Jun_08_1159	s	s	21	1	SIC	141	ABS	1	0	02VD 02VO 02VC 02MD 02MO 10MC 02RD 02RO	0	1	2.76047897339	None	None	None	None	1
2.7	2015_Jun_08_1159	s	s	21	1	SIC	142	RC	0	2	02VD 02VO 02VC 02MD 02MO 02MC 09RD 02RO	0	1	2.23082280159	-330.0	190.0	None	None	0
2.7	2015_Jun_08_1159	s	s	21	1	SIC	143	ABS	1	2	02VD 02VO 02VC 10MD 02MO 02MC 02RD 02RO	0	1	2.1887409687	None	None	None	None	1
2.7	2015_Jun_08_1159	s	s	21	1	SIC	144	RC	0	1	02VD 02VO 02VC 02MD 02MO 02MC 02RD 09RO	1	0	3.43327093124	-429.0	-142.0	-423	-142	1
2.7	2015_Jun_08_1159	s	s	21	1	SIC	145	ABS	0	1	02VD 02VO 02VC 02MD 02MO 02MC 02RD 10RO	0	1	2.62465691566	None	None	None	None	1
2.7	2015_Jun_08_1159	s	s	21	1	SIC	146	RC	0	1	02VD 02VO 02VC 02MD 02MO 02MC 02RD 09RO	0	1	2.43105387688	216.0	68.0	None	None	0
2.7	2015_Jun_08_1159	s	s	21	1	SIC	147	RC	1	0	02VD 02VO 02VC 02MD 02MO 09MC 02RD 02RO	1	0	1.30093193054	158.0	171.0	158	167	1
2.7	2015_Jun_08_1159	s	s	21	1	SIC	148	RC	1	1	02VD 02VO 02VC 02MD 09MO 02MC 02RD 02RO	0	1	2.20722293854	121.0	13.0	None	None	0
2.7	2015_Jun_08_1159	s	s	21	1	SIC	149	ABS	0	2	02VD 02VO 02VC 02MD 02MO 02MC 10RD 02RO	0	1	2.1062681675	None	None	None	None	1
2.7	2015_Jun_08_1159	s	s	21	1	SIC	150	ABS	1	0	02VD 02VO 02VC 02MD 02MO 10MC 02RD 02RO	0	1	1.51770114899	None	None	None	None	1
2.7	2015_Jun_08_1159	s	s	21	1	SIC	151	RC	2	1	02VD 09VO 02VC 02MD 02MO 02MC 02RD 02RO	1	0	3.73067212105	-397.0	35.0	-396	41	1
2.7	2015_Jun_08_1159	s	s	21	1	SIC	152	ABS	1	1	02VD 02VO 02VC 02MD 10MO 02MC 02RD 02RO	0	1	3.14212203026	None	None	None	None	1
2.7	2015_Jun_08_1159	s	s	21	1	SIC	153	RC	2	2	09VD 02VO 02VC 02MD 02MO 02MC 02RD 02RO	1	0	2.38392400742	156.0	290.0	154	289	1
2.7	2015_Jun_08_1159	s	s	21	1	SIC	154	RC	2	0	02VD 02VO 09VC 02MD 02MO 02MC 02RD 02RO	1	0	1.9414961338	365.0	228.0	374	229	1
2.7	2015_Jun_08_1159	s	s	21	1	SIC	155	ABS	2	1	02VD 10VO 02VC 02MD 02MO 02MC 02RD 02RO	0	1	2.39694786072	None	None	None	None	1
2.7	2015_Jun_08_1159	s	s	21	1	SIC	156	ABS	2	0	02VD 02VO 10VC 02MD 02MO 02MC 02RD 02RO	0	1	2.53380799294	None	None	None	None	1
2.7	2015_Jun_08_1159	s	s	21	1	SIC	157	RC	0	2	02VD 02VO 02VC 02MD 02MO 02MC 09RD 02RO	1	0	2.18912696838	316.0	360.0	320	356	1
2.7	2015_Jun_08_1159	s	s	21	1	SIC	158	RC	1	2	02VD 02VO 02VC 09MD 02MO 02MC 02RD 02RO	1	0	0.83021903038	-160.0	295.0	-161	285	1
2.7	2015_Jun_08_1159	s	s	21	1	SIC	159	ABS	2	2	10VD 02VO 02VC 02MD 02MO 02MC 02RD 02RO	0	1	2.53731417656	None	None	None	None	1
2.7	2015_Jun_08_1159	s	s	21	1	SIC	160	ABS	1	2	02VD 02VO 02VC 10MD 02MO 02MC 02RD 02RO	0	1	1.92971301079	None	None	None	None	1
2.7	2015_Jun_08_1159	s	s	21	1	SIC	161	RC	2	2	09VD 02VO 02VC 02MD 02MO 02MC 02RD 02RO	1	0	1.44225406647	-480.0	-189.0	-480	-197	1
2.7	2015_Jun_08_1159	s	s	21	1	SIC	162	ABS	0	1	02VD 02VO 02VC 02MD 02MO 02MC 02RD 10RO	0	1	3.1105530262	None	None	None	None	1
2.7	2015_Jun_08_1159	s	s	21	1	SIC	163	ABS	1	1	02VD 02VO 02VC 02MD 10MO 02MC 02RD 02RO	0	1	2.36044120789	None	None	None	None	1
2.7	2015_Jun_08_1159	s	s	21	1	SIC	164	RC	0	1	02VD 02VO 02VC 02MD 02MO 02MC 02RD 09RO	1	0	2.38882398605	327.0	-106.0	337	-106	1
2.7	2015_Jun_08_1159	s	s	21	1	SIC	165	ABS	0	2	02VD 02VO 02VC 02MD 02MO 02MC 10RD 02RO	0	1	2.42049503326	None	None	None	None	1
2.7	2015_Jun_08_1159	s	s	21	1	SIC	166	RC	2	1	02VD 09VO 02VC 02MD 02MO 02MC 02RD 02RO	1	0	1.85590720177	-363.0	-154.0	-367	-162	1
2.7	2015_Jun_08_1159	s	s	21	1	SIC	167	RC	1	1	02VD 02VO 02VC 02MD 09MO 02MC 02RD 02RO	1	0	1.83078980446	487.0	-154.0	489	-152	1
2.7	2015_Jun_08_1159	s	s	21	1	SIC	168	ABS	2	0	02VD 02VO 10VC 02MD 02MO 02MC 02RD 02RO	0	1	1.80842399597	None	None	None	None	1
2.7	2015_Jun_08_1159	s	s	21	1	SIC	169	RC	0	2	02VD 02VO 02VC 02MD 02MO 02MC 09RD 02RO	1	0	1.94827795029	407.0	151.0	420	159	1
2.7	2015_Jun_08_1159	s	s	21	1	SIC	170	ABS	2	1	02VD 10VO 02VC 02MD 02MO 02MC 02RD 02RO	0	1	2.62418794632	None	None	None	None	1
2.7	2015_Jun_08_1159	s	s	21	1	SIC	171	ABS	2	2	10VD 02VO 02VC 02MD 02MO 02MC 02RD 02RO	0	1	2.74232006073	None	None	None	None	1
2.7	2015_Jun_08_1159	s	s	21	1	SIC	172	RC	1	0	02VD 02VO 02VC 02MD 02MO 09MC 02RD 02RO	0	1	1.70254588127	-202.0	306.0	None	None	0
2.7	2015_Jun_08_1159	s	s	21	1	SIC	173	ABS	1	0	02VD 02VO 02VC 02MD 02MO 10MC 02RD 02RO	0	1	3.25978589058	None	None	None	None	1
2.7	2015_Jun_08_1159	s	s	21	1	SIC	174	RC	2	0	02VD 02VO 09VC 02MD 02MO 02MC 02RD 02RO	1	0	1.12138390541	-49.0	-331.0	-40	-333	1
2.7	2015_Jun_08_1159	s	s	21	1	SIC	175	RC	1	2	02VD 02VO 02VC 09MD 02MO 02MC 02RD 02RO	1	0	3.24801397324	0.0	-349.0	-4	-361	1
2.7	2015_Jun_08_1159	s	s	21	1	SIC	176	ABS	1	2	02VD 02VO 02VC 10MD 02MO 02MC 02RD 02RO	0	1	1.92728805542	None	None	None	None	1
2.7	2015_Jun_08_1159	s	s	21	1	SIC	177	RC	0	2	02VD 02VO 02VC 02MD 02MO 02MC 09RD 02RO	1	0	1.69431090355	519.0	66.0	515	70	1
2.7	2015_Jun_08_1159	s	s	21	1	SIC	178	ABS	2	0	02VD 02VO 10VC 02MD 02MO 02MC 02RD 02RO	0	1	2.96934700012	None	None	None	None	1
2.7	2015_Jun_08_1159	s	s	21	1	SIC	179	ABS	0	1	02VD 02VO 02VC 02MD 02MO 02MC 02RD 10RO	0	1	2.98903489113	None	None	None	None	1
2.7	2015_Jun_08_1159	s	s	21	1	SIC	180	RC	1	0	02VD 02VO 02VC 02MD 02MO 09MC 02RD 02RO	1	0	1.03517103195	179.0	212.0	181	209	1
2.7	2015_Jun_08_1159	s	s	21	1	SIC	181	ABS	1	2	02VD 02VO 02VC 10MD 02MO 02MC 02RD 02RO	0	1	2.22402882576	None	None	None	None	1
2.7	2015_Jun_08_1159	s	s	21	1	SIC	182	RC	2	0	02VD 02VO 09VC 02MD 02MO 02MC 02RD 02RO	1	0	1.28920698166	-152.0	405.0	-151	402	1
2.7	2015_Jun_08_1159	s	s	21	1	SIC	183	RC	0	1	02VD 02VO 02VC 02MD 02MO 02MC 02RD 09RO	1	0	1.36476802826	-185.0	-190.0	-185	-190	1
2.7	2015_Jun_08_1159	s	s	21	1	SIC	184	RC	2	2	09VD 02VO 02VC 02MD 02MO 02MC 02RD 02RO	0	1	2.69213795662	-141.0	-103.0	None	None	0
2.7	2015_Jun_08_1159	s	s	21	1	SIC	185	RC	2	1	02VD 09VO 02VC 02MD 02MO 02MC 02RD 02RO	1	0	1.52157616615	181.0	257.0	187	263	1
2.7	2015_Jun_08_1159	s	s	21	1	SIC	186	ABS	1	0	02VD 02VO 02VC 02MD 02MO 10MC 02RD 02RO	0	1	2.10607600212	None	None	None	None	1
2.7	2015_Jun_08_1159	s	s	21	1	SIC	187	ABS	1	1	02VD 02VO 02VC 02MD 10MO 02MC 02RD 02RO	0	1	3.7613389492	None	None	None	None	1
2.7	2015_Jun_08_1159	s	s	21	1	SIC	188	ABS	2	1	02VD 10VO 02VC 02MD 02MO 02MC 02RD 02RO	0	1	2.73061108589	None	None	None	None	1
2.7	2015_Jun_08_1159	s	s	21	1	SIC	189	RC	1	2	02VD 02VO 02VC 09MD 02MO 02MC 02RD 02RO	1	0	1.32467103004	512.0	149.0	510	147	1
2.7	2015_Jun_08_1159	s	s	21	1	SIC	190	ABS	2	2	10VD 02VO 02VC 02MD 02MO 02MC 02RD 02RO	0	1	2.42410516739	None	None	None	None	1
2.7	2015_Jun_08_1159	s	s	21	1	SIC	191	RC	1	1	02VD 02VO 02VC 02MD 09MO 02MC 02RD 02RO	1	0	1.7178800106	-464.0	278.0	-465	283	1
2.7	2015_Jun_08_1159	s	s	21	1	SIC	192	ABS	0	2	02VD 02VO 02VC 02MD 02MO 02MC 10RD 02RO	0	1	2.53698015213	None	None	None	None	1
2.7	2015_Jun_08_1159	s	s	21	1	SIC	193	RC	1	0	02VD 02VO 02VC 02MD 02MO 09MC 02RD 02RO	1	0	1.38832211494	-532.0	373.0	-536	368	1
2.7	2015_Jun_08_1159	s	s	21	1	SIC	194	RC	2	0	02VD 02VO 09VC 02MD 02MO 02MC 02RD 02RO	1	0	1.84489798546	165.0	-154.0	158	-149	1
2.7	2015_Jun_08_1159	s	s	21	1	SIC	195	ABS	1	0	02VD 02VO 02VC 02MD 02MO 10MC 02RD 02RO	0	1	2.47114896774	None	None	None	None	1
2.7	2015_Jun_08_1159	s	s	21	1	SIC	196	RC	0	2	02VD 02VO 02VC 02MD 02MO 02MC 09RD 02RO	1	0	0.803557157516	-60.0	194.0	-64	187	1
2.7	2015_Jun_08_1159	s	s	21	1	SIC	197	RC	1	2	02VD 02VO 02VC 09MD 02MO 02MC 02RD 02RO	1	0	2.31264996529	396.0	-192.0	399	-194	1
2.7	2015_Jun_08_1159	s	s	21	1	SIC	198	RC	2	2	09VD 02VO 02VC 02MD 02MO 02MC 02RD 02RO	1	0	0.947788000107	-430.0	-46.0	-434	-43	1
2.7	2015_Jun_08_1159	s	s	21	1	SIC	199	ABS	0	1	02VD 02VO 02VC 02MD 02MO 02MC 02RD 10RO	0	1	3.5022611618	None	None	None	None	1
2.7	2015_Jun_08_1159	s	s	21	1	SIC	200	ABS	1	1	02VD 02VO 02VC 02MD 10MO 02MC 02RD 02RO	0	1	2.22400999069	None	None	None	None	1
2.7	2015_Jun_08_1159	s	s	21	1	SIC	201	RC	0	1	02VD 02VO 02VC 02MD 02MO 02MC 02RD 09RO	1	0	1.52952504158	400.0	409.0	396	409	1
2.7	2015_Jun_08_1159	s	s	21	1	SIC	202	RC	2	1	02VD 09VO 02VC 02MD 02MO 02MC 02RD 02RO	1	0	1.86775302887	409.0	334.0	409	332	1
2.7	2015_Jun_08_1159	s	s	21	1	SIC	203	ABS	0	2	02VD 02VO 02VC 02MD 02MO 02MC 10RD 02RO	0	1	2.6544649601	None	None	None	None	1
2.7	2015_Jun_08_1159	s	s	21	1	SIC	204	ABS	2	0	02VD 02VO 10VC 02MD 02MO 02MC 02RD 02RO	0	1	2.15327787399	None	None	None	None	1
2.7	2015_Jun_08_1159	s	s	21	1	SIC	205	RC	1	1	02VD 02VO 02VC 02MD 09MO 02MC 02RD 02RO	1	0	1.37180304527	338.0	119.0	340	118	1
2.7	2015_Jun_08_1159	s	s	21	1	SIC	206	ABS	2	2	10VD 02VO 02VC 02MD 02MO 02MC 02RD 02RO	0	1	2.69262194633	None	None	None	None	1
2.7	2015_Jun_08_1159	s	s	21	1	SIC	207	ABS	1	2	02VD 02VO 02VC 10MD 02MO 02MC 02RD 02RO	0	1	1.72475600243	None	None	None	None	1
2.7	2015_Jun_08_1159	s	s	21	1	SIC	208	ABS	2	1	02VD 10VO 02VC 02MD 02MO 02MC 02RD 02RO	0	1	1.70607304573	None	None	None	None	1
2.7	2015_Jun_08_1159	s	s	21	1	SIC	209	ABS	2	1	02VD 10VO 02VC 02MD 02MO 02MC 02RD 02RO	0	1	2.2005469799	None	None	None	None	1
2.7	2015_Jun_08_1159	s	s	21	1	SIC	210	ABS	2	2	10VD 02VO 02VC 02MD 02MO 02MC 02RD 02RO	0	1	1.71470499039	None	None	None	None	1
2.7	2015_Jun_08_1159	s	s	21	1	SIC	211	RC	1	2	02VD 02VO 02VC 09MD 02MO 02MC 02RD 02RO	1	0	1.38315081596	-345.0	109.0	-350	101	1
2.7	2015_Jun_08_1159	s	s	21	1	SIC	212	RC	2	2	09VD 02VO 02VC 02MD 02MO 02MC 02RD 02RO	1	0	0.823259115219	-249.0	45.0	-248	39	1
2.7	2015_Jun_08_1159	s	s	21	1	SIC	213	RC	0	1	02VD 02VO 02VC 02MD 02MO 02MC 02RD 09RO	0	1	2.57713103294	455.0	-341.0	None	None	0
2.7	2015_Jun_08_1159	s	s	21	1	SIC	214	RC	2	1	02VD 09VO 02VC 02MD 02MO 02MC 02RD 02RO	1	0	2.1769759655	-117.0	-405.0	-117	-409	1
2.7	2015_Jun_08_1159	s	s	21	1	SIC	215	ABS	0	2	02VD 02VO 02VC 02MD 02MO 02MC 10RD 02RO	0	1	1.79777598381	None	None	None	None	1
2.7	2015_Jun_08_1159	s	s	21	1	SIC	216	RC	2	0	02VD 02VO 09VC 02MD 02MO 02MC 02RD 02RO	1	0	3.04283595085	-101.0	-138.0	-94	-138	1
2.7	2015_Jun_08_1159	s	s	21	1	SIC	217	RC	1	1	02VD 02VO 02VC 02MD 09MO 02MC 02RD 02RO	1	0	1.51479196548	-485.0	8.0	-485	1	1
2.7	2015_Jun_08_1159	s	s	21	1	SIC	218	RC	1	0	02VD 02VO 02VC 02MD 02MO 09MC 02RD 02RO	1	0	1.84730219841	-263.0	-162.0	-255	-168	1
2.7	2015_Jun_08_1159	s	s	21	1	SIC	219	ABS	1	0	02VD 02VO 02VC 02MD 02MO 10MC 02RD 02RO	0	1	2.23104500771	None	None	None	None	1
2.7	2015_Jun_08_1159	s	s	21	1	SIC	220	ABS	2	0	02VD 02VO 10VC 02MD 02MO 02MC 02RD 02RO	0	1	2.2778840065	None	None	None	None	1
2.7	2015_Jun_08_1159	s	s	21	1	SIC	221	ABS	1	2	02VD 02VO 02VC 10MD 02MO 02MC 02RD 02RO	0	1	2.16028285027	None	None	None	None	1
2.7	2015_Jun_08_1159	s	s	21	1	SIC	222	ABS	1	1	02VD 02VO 02VC 02MD 10MO 02MC 02RD 02RO	0	1	2.05269479752	None	None	None	None	1
2.7	2015_Jun_08_1159	s	s	21	1	SIC	223	ABS	0	1	02VD 02VO 02VC 02MD 02MO 02MC 02RD 10RO	0	1	2.8658850193	None	None	None	None	1
2.7	2015_Jun_08_1159	s	s	21	1	SIC	224	RC	0	2	02VD 02VO 02VC 02MD 02MO 02MC 09RD 02RO	1	0	1.43536400795	186.0	-99.0	197	-98	1
2.7	2015_Jun_08_1159	s	s	21	1	SIC	225	ABS	1	2	02VD 02VO 02VC 10MD 02MO 02MC 02RD 02RO	0	1	2.33610701561	None	None	None	None	1
2.7	2015_Jun_08_1159	s	s	21	1	SIC	226	RC	1	0	02VD 02VO 02VC 02MD 02MO 09MC 02RD 02RO	1	0	1.19506907463	384.0	220.0	389	215	1
2.7	2015_Jun_08_1159	s	s	21	1	SIC	227	ABS	2	2	10VD 02VO 02VC 02MD 02MO 02MC 02RD 02RO	0	1	3.24306201935	None	None	None	None	1
2.7	2015_Jun_08_1159	s	s	21	1	SIC	228	RC	1	2	02VD 02VO 02VC 09MD 02MO 02MC 02RD 02RO	1	0	1.88258600235	238.0	94.0	240	88	1
2.7	2015_Jun_08_1159	s	s	21	1	SIC	229	RC	0	2	02VD 02VO 02VC 02MD 02MO 02MC 09RD 02RO	1	0	1.81751489639	480.0	-406.0	477	-403	1
2.7	2015_Jun_08_1159	s	s	21	1	SIC	230	ABS	1	0	02VD 02VO 02VC 02MD 02MO 10MC 02RD 02RO	0	1	2.81253194809	None	None	None	None	1
2.7	2015_Jun_08_1159	s	s	21	1	SIC	231	ABS	2	1	02VD 10VO 02VC 02MD 02MO 02MC 02RD 02RO	0	1	2.66574287415	None	None	None	None	1
2.7	2015_Jun_08_1159	s	s	21	1	SIC	232	RC	2	1	02VD 09VO 02VC 02MD 02MO 02MC 02RD 02RO	1	0	2.53682899475	467.0	307.0	463	309	1
2.7	2015_Jun_08_1159	s	s	21	1	SIC	233	RC	1	1	02VD 02VO 02VC 02MD 09MO 02MC 02RD 02RO	1	0	1.48936486244	-485.0	356.0	-486	354	1
2.7	2015_Jun_08_1159	s	s	21	1	SIC	234	ABS	2	0	02VD 02VO 10VC 02MD 02MO 02MC 02RD 02RO	0	1	1.77164697647	None	None	None	None	1
2.7	2015_Jun_08_1159	s	s	21	1	SIC	235	ABS	0	1	02VD 02VO 02VC 02MD 02MO 02MC 02RD 10RO	0	1	3.19599199295	None	None	None	None	1
2.7	2015_Jun_08_1159	s	s	21	1	SIC	236	RC	2	2	09VD 02VO 02VC 02MD 02MO 02MC 02RD 02RO	1	0	2.00038695335	523.0	-91.0	529	-91	1
2.7	2015_Jun_08_1159	s	s	21	1	SIC	237	RC	2	0	02VD 02VO 09VC 02MD 02MO 02MC 02RD 02RO	0	1	2.45936107635	97.0	-355.0	None	None	0
2.7	2015_Jun_08_1159	s	s	21	1	SIC	238	ABS	0	2	02VD 02VO 02VC 02MD 02MO 02MC 10RD 02RO	0	1	1.95977091789	None	None	None	None	1
2.7	2015_Jun_08_1159	s	s	21	1	SIC	239	RC	0	1	02VD 02VO 02VC 02MD 02MO 02MC 02RD 09RO	1	0	1.44217586517	-62.0	-16.0	-67	-20	1
2.7	2015_Jun_08_1159	s	s	21	1	SIC	240	ABS	1	1	02VD 02VO 02VC 02MD 10MO 02MC 02RD 02RO	0	1	1.97197198868	None	None	None	None	1
2.7	2015_Jun_08_1159	s	s	21	1	SIC	241	RC	2	1	02VD 09VO 02VC 02MD 02MO 02MC 02RD 02RO	1	0	2.03607320786	407.0	-97.0	413	-98	1
2.7	2015_Jun_08_1159	s	s	21	1	SIC	242	ABS	2	0	02VD 02VO 10VC 02MD 02MO 02MC 02RD 02RO	0	1	3.25466394424	None	None	None	None	1
2.7	2015_Jun_08_1159	s	s	21	1	SIC	243	ABS	2	2	10VD 02VO 02VC 02MD 02MO 02MC 02RD 02RO	1	0	1.89475703239	None	None	541	64	0
2.7	2015_Jun_08_1159	s	s	21	1	SIC	244	ABS	0	1	02VD 02VO 02VC 02MD 02MO 02MC 02RD 10RO	0	1	3.2201499939	None	None	None	None	1
2.7	2015_Jun_08_1159	s	s	21	1	SIC	245	RC	0	1	02VD 02VO 02VC 02MD 02MO 02MC 02RD 09RO	0	1	2.73677897453	-374.0	42.0	None	None	0
2.7	2015_Jun_08_1159	s	s	21	1	SIC	246	ABS	1	2	02VD 02VO 02VC 10MD 02MO 02MC 02RD 02RO	0	1	2.27094602585	None	None	None	None	1
2.7	2015_Jun_08_1159	s	s	21	1	SIC	247	RC	1	1	02VD 02VO 02VC 02MD 09MO 02MC 02RD 02RO	0	1	2.51827216148	-247.0	-352.0	None	None	0
2.7	2015_Jun_08_1159	s	s	21	1	SIC	248	RC	2	2	09VD 02VO 02VC 02MD 02MO 02MC 02RD 02RO	1	0	1.47448801994	168.0	188.0	165	184	1
2.7	2015_Jun_08_1159	s	s	21	1	SIC	249	RC	1	0	02VD 02VO 02VC 02MD 02MO 09MC 02RD 02RO	1	0	1.86596298218	-286.0	-308.0	-278	-314	1
2.7	2015_Jun_08_1159	s	s	21	1	SIC	250	RC	2	0	02VD 02VO 09VC 02MD 02MO 02MC 02RD 02RO	0	1	2.33002591133	122.0	-294.0	None	None	0
2.7	2015_Jun_08_1159	s	s	21	1	SIC	251	ABS	2	1	02VD 10VO 02VC 02MD 02MO 02MC 02RD 02RO	0	1	2.2828681469	None	None	None	None	1
2.7	2015_Jun_08_1159	s	s	21	1	SIC	252	RC	0	2	02VD 02VO 02VC 02MD 02MO 02MC 09RD 02RO	1	0	2.73041892052	-1.0	-40.0	0	-36	1
2.7	2015_Jun_08_1159	s	s	21	1	SIC	253	ABS	1	0	02VD 02VO 02VC 02MD 02MO 10MC 02RD 02RO	0	1	3.25982093811	None	None	None	None	1
2.7	2015_Jun_08_1159	s	s	21	1	SIC	254	ABS	0	2	02VD 02VO 02VC 02MD 02MO 02MC 10RD 02RO	0	1	3.23157715797	None	None	None	None	1
2.7	2015_Jun_08_1159	s	s	21	1	SIC	255	ABS	1	1	02VD 02VO 02VC 02MD 10MO 02MC 02RD 02RO	0	1	2.87184405327	None	None	None	None	1
2.7	2015_Jun_08_1159	s	s	21	1	SIC	256	RC	1	2	02VD 02VO 02VC 09MD 02MO 02MC 02RD 02RO	1	0	1.01538705826	-510.0	-6.0	-510	-6	1
2.7	2015_Jun_08_1159	s	s	21	1	SIC	257	ABS	2	2	10VD 02VO 02VC 02MD 02MO 02MC 02RD 02RO	0	1	1.64722800255	None	None	None	None	1
2.7	2015_Jun_08_1159	s	s	21	1	SIC	258	ABS	1	1	02VD 02VO 02VC 02MD 10MO 02MC 02RD 02RO	0	1	3.10438609123	None	None	None	None	1
2.7	2015_Jun_08_1159	s	s	21	1	SIC	259	RC	2	2	09VD 02VO 02VC 02MD 02MO 02MC 02RD 02RO	1	0	2.00053882599	-479.0	-64.0	-476	-63	1
2.7	2015_Jun_08_1159	s	s	21	1	SIC	260	RC	2	1	02VD 09VO 02VC 02MD 02MO 02MC 02RD 02RO	1	0	1.49425792694	-61.0	-303.0	-57	-311	1
2.7	2015_Jun_08_1159	s	s	21	1	SIC	261	RC	1	2	02VD 02VO 02VC 09MD 02MO 02MC 02RD 02RO	1	0	1.023416996	86.0	-5.0	94	-3	1
2.7	2015_Jun_08_1159	s	s	21	1	SIC	262	ABS	0	1	02VD 02VO 02VC 02MD 02MO 02MC 02RD 10RO	0	1	3.58944892883	None	None	None	None	1
2.7	2015_Jun_08_1159	s	s	21	1	SIC	263	ABS	2	1	02VD 10VO 02VC 02MD 02MO 02MC 02RD 02RO	0	1	2.19560694695	None	None	None	None	1
2.7	2015_Jun_08_1159	s	s	21	1	SIC	264	RC	0	1	02VD 02VO 02VC 02MD 02MO 02MC 02RD 09RO	0	1	3.26583194733	-374.0	219.0	None	None	0
2.7	2015_Jun_08_1159	s	s	21	1	SIC	265	ABS	2	0	02VD 02VO 10VC 02MD 02MO 02MC 02RD 02RO	0	1	2.34550309181	None	None	None	None	1
2.7	2015_Jun_08_1159	s	s	21	1	SIC	266	RC	0	2	02VD 02VO 02VC 02MD 02MO 02MC 09RD 02RO	0	1	2.92527008057	-60.0	-123.0	None	None	0
2.7	2015_Jun_08_1159	s	s	21	1	SIC	267	ABS	0	2	02VD 02VO 02VC 02MD 02MO 02MC 10RD 02RO	0	1	1.87772297859	None	None	None	None	1
2.7	2015_Jun_08_1159	s	s	21	1	SIC	268	RC	1	0	02VD 02VO 02VC 02MD 02MO 09MC 02RD 02RO	1	0	2.9960360527	-505.0	133.0	-505	134	1
2.7	2015_Jun_08_1159	s	s	21	1	SIC	269	RC	1	1	02VD 02VO 02VC 02MD 09MO 02MC 02RD 02RO	0	1	2.82430005074	389.0	-287.0	None	None	0
2.7	2015_Jun_08_1159	s	s	21	1	SIC	270	ABS	1	0	02VD 02VO 02VC 02MD 02MO 10MC 02RD 02RO	0	1	2.36026000977	None	None	None	None	1
2.7	2015_Jun_08_1159	s	s	21	1	SIC	271	ABS	1	2	02VD 02VO 02VC 10MD 02MO 02MC 02RD 02RO	0	1	1.7532081604	None	None	None	None	1
2.7	2015_Jun_08_1159	s	s	21	1	SIC	272	RC	2	0	02VD 02VO 09VC 02MD 02MO 02MC 02RD 02RO	0	1	1.63551306725	-146.0	-206.0	None	None	0
2.7	2015_Jun_08_1159	s	s	21	1	SIC	273	ABS	1	2	02VD 02VO 02VC 10MD 02MO 02MC 02RD 02RO	0	1	1.54127001762	None	None	None	None	1
2.7	2015_Jun_08_1159	s	s	21	1	SIC	274	ABS	0	2	02VD 02VO 02VC 02MD 02MO 02MC 10RD 02RO	0	1	1.66597819328	None	None	None	None	1
2.7	2015_Jun_08_1159	s	s	21	1	SIC	275	ABS	1	1	02VD 02VO 02VC 02MD 10MO 02MC 02RD 02RO	0	1	2.67988991737	None	None	None	None	1
2.7	2015_Jun_08_1159	s	s	21	1	SIC	276	ABS	1	0	02VD 02VO 02VC 02MD 02MO 10MC 02RD 02RO	0	1	3.21936702728	None	None	None	None	1
2.7	2015_Jun_08_1159	s	s	21	1	SIC	277	RC	1	0	02VD 02VO 02VC 02MD 02MO 09MC 02RD 02RO	0	1	2.79592180252	-85.0	160.0	None	None	0
2.7	2015_Jun_08_1159	s	s	21	1	SIC	278	RC	0	1	02VD 02VO 02VC 02MD 02MO 02MC 02RD 09RO	0	1	2.58886504173	-80.0	62.0	None	None	0
2.7	2015_Jun_08_1159	s	s	21	1	SIC	279	RC	1	2	02VD 02VO 02VC 09MD 02MO 02MC 02RD 02RO	0	1	1.58833098412	-222.0	-23.0	None	None	0
2.7	2015_Jun_08_1159	s	s	21	1	SIC	280	ABS	2	0	02VD 02VO 10VC 02MD 02MO 02MC 02RD 02RO	0	1	2.05424594879	None	None	None	None	1
2.7	2015_Jun_08_1159	s	s	21	1	SIC	281	RC	2	2	09VD 02VO 02VC 02MD 02MO 02MC 02RD 02RO	0	1	2.16513609886	83.0	-409.0	None	None	0
2.7	2015_Jun_08_1159	s	s	21	1	SIC	282	ABS	2	1	02VD 10VO 02VC 02MD 02MO 02MC 02RD 02RO	0	1	1.67782402039	None	None	None	None	1
2.7	2015_Jun_08_1159	s	s	21	1	SIC	283	ABS	2	2	10VD 02VO 02VC 02MD 02MO 02MC 02RD 02RO	0	1	1.81883406639	None	None	None	None	1
2.7	2015_Jun_08_1159	s	s	21	1	SIC	284	RC	2	1	02VD 09VO 02VC 02MD 02MO 02MC 02RD 02RO	1	0	1.05527496338	-355.0	285.0	-352	290	1
2.7	2015_Jun_08_1159	s	s	21	1	SIC	285	RC	0	2	02VD 02VO 02VC 02MD 02MO 02MC 09RD 02RO	1	0	2.73633885384	-352.0	-134.0	-345	-128	1
2.7	2015_Jun_08_1159	s	s	21	1	SIC	286	RC	1	1	02VD 02VO 02VC 02MD 09MO 02MC 02RD 02RO	1	0	0.858550071716	-479.0	57.0	-484	57	1
2.7	2015_Jun_08_1159	s	s	21	1	SIC	287	RC	2	0	02VD 02VO 09VC 02MD 02MO 02MC 02RD 02RO	0	1	1.60679602623	-458.0	-410.0	None	None	0
2.7	2015_Jun_08_1159	s	s	21	1	SIC	288	ABS	0	1	02VD 02VO 02VC 02MD 02MO 02MC 02RD 10RO	0	1	1.4707069397	None	None	None	None	1
2.7	2015_Jun_08_1159	s	s	21	1	SIC	289	ABS	2	1	02VD 10VO 02VC 02MD 02MO 02MC 02RD 02RO	0	1	1.85466885567	None	None	None	None	1
2.7	2015_Jun_08_1159	s	s	21	1	SIC	290	RC	0	1	02VD 02VO 02VC 02MD 02MO 02MC 02RD 09RO	0	1	1.61193799973	496.0	-86.0	None	None	0
2.7	2015_Jun_08_1159	s	s	21	1	SIC	291	ABS	0	2	02VD 02VO 02VC 02MD 02MO 02MC 10RD 02RO	0	1	1.28237700462	None	None	None	None	1
2.7	2015_Jun_08_1159	s	s	21	1	SIC	292	RC	1	0	02VD 02VO 02VC 02MD 02MO 09MC 02RD 02RO	0	1	2.13016319275	139.0	183.0	None	None	0
2.7	2015_Jun_08_1159	s	s	21	1	SIC	293	ABS	1	2	02VD 02VO 02VC 10MD 02MO 02MC 02RD 02RO	0	1	2.0301129818	None	None	None	None	1
2.7	2015_Jun_08_1159	s	s	21	1	SIC	294	RC	1	2	02VD 02VO 02VC 09MD 02MO 02MC 02RD 02RO	0	1	2.07777905464	-186.0	85.0	None	None	0
2.7	2015_Jun_08_1159	s	s	21	1	SIC	295	ABS	2	2	10VD 02VO 02VC 02MD 02MO 02MC 02RD 02RO	0	1	1.84140515327	None	None	None	None	1
2.7	2015_Jun_08_1159	s	s	21	1	SIC	296	ABS	2	0	02VD 02VO 10VC 02MD 02MO 02MC 02RD 02RO	0	1	2.1533780098	None	None	None	None	1
2.7	2015_Jun_08_1159	s	s	21	1	SIC	297	RC	0	2	02VD 02VO 02VC 02MD 02MO 02MC 09RD 02RO	1	0	1.92698597908	150.0	-118.0	158	-121	1
2.7	2015_Jun_08_1159	s	s	21	1	SIC	298	RC	2	2	09VD 02VO 02VC 02MD 02MO 02MC 02RD 02RO	0	1	2.08976197243	-87.0	-406.0	None	None	0
2.7	2015_Jun_08_1159	s	s	21	1	SIC	299	ABS	1	1	02VD 02VO 02VC 02MD 10MO 02MC 02RD 02RO	0	1	2.41917586327	None	None	None	None	1
2.7	2015_Jun_08_1159	s	s	21	1	SIC	300	ABS	1	0	02VD 02VO 02VC 02MD 02MO 10MC 02RD 02RO	0	1	2.36136603355	None	None	None	None	1
2.7	2015_Jun_08_1159	s	s	21	1	SIC	301	RC	2	1	02VD 09VO 02VC 02MD 02MO 02MC 02RD 02RO	1	0	2.2896630764	-306.0	251.0	-295	254	1
2.7	2015_Jun_08_1159	s	s	21	1	SIC	302	RC	2	0	02VD 02VO 09VC 02MD 02MO 02MC 02RD 02RO	1	0	0.936235904694	-247.0	-170.0	-242	-177	1
2.7	2015_Jun_08_1159	s	s	21	1	SIC	303	RC	1	1	02VD 02VO 02VC 02MD 09MO 02MC 02RD 02RO	1	0	2.17211484909	164.0	233.0	170	231	1
2.7	2015_Jun_08_1159	s	s	21	1	SIC	304	ABS	0	1	02VD 02VO 02VC 02MD 02MO 02MC 02RD 10RO	0	1	2.84779286385	None	None	None	None	1
2.7	2015_Jun_08_1159	s	s	21	1	SIC	305	RC	1	0	02VD 02VO 02VC 02MD 02MO 09MC 02RD 02RO	1	0	1.35337996483	-491.0	-29.0	-490	-28	1
2.7	2015_Jun_08_1159	s	s	21	1	SIC	306	RC	0	1	02VD 02VO 02VC 02MD 02MO 02MC 02RD 09RO	0	1	3.26360487938	-121.0	368.0	None	None	0
2.7	2015_Jun_08_1159	s	s	21	1	SIC	307	ABS	2	2	10VD 02VO 02VC 02MD 02MO 02MC 02RD 02RO	0	1	2.67130494118	None	None	None	None	1
2.7	2015_Jun_08_1159	s	s	21	1	SIC	308	RC	1	1	02VD 02VO 02VC 02MD 09MO 02MC 02RD 02RO	1	0	1.12939500809	-328.0	-265.0	-332	-268	1
2.7	2015_Jun_08_1159	s	s	21	1	SIC	309	ABS	2	0	02VD 02VO 10VC 02MD 02MO 02MC 02RD 02RO	0	1	2.18871879578	None	None	None	None	1
2.7	2015_Jun_08_1159	s	s	21	1	SIC	310	ABS	1	1	02VD 02VO 02VC 02MD 10MO 02MC 02RD 02RO	0	1	2.04251217842	None	None	None	None	1
2.7	2015_Jun_08_1159	s	s	21	1	SIC	311	ABS	1	2	02VD 02VO 02VC 10MD 02MO 02MC 02RD 02RO	0	1	2.38392305374	None	None	None	None	1
2.7	2015_Jun_08_1159	s	s	21	1	SIC	312	RC	1	2	02VD 02VO 02VC 09MD 02MO 02MC 02RD 02RO	0	1	2.89493298531	-458.0	48.0	None	None	0
2.7	2015_Jun_08_1159	s	s	21	1	SIC	313	RC	2	0	02VD 02VO 09VC 02MD 02MO 02MC 02RD 02RO	0	1	2.64292001724	399.0	-135.0	None	None	0
2.7	2015_Jun_08_1159	s	s	21	1	SIC	314	ABS	1	0	02VD 02VO 02VC 02MD 02MO 10MC 02RD 02RO	0	1	3.25570511818	None	None	None	None	1
2.7	2015_Jun_08_1159	s	s	21	1	SIC	315	RC	2	2	09VD 02VO 02VC 02MD 02MO 02MC 02RD 02RO	1	0	2.87845110893	-258.0	-90.0	-265	-90	1
2.7	2015_Jun_08_1159	s	s	21	1	SIC	316	ABS	2	1	02VD 10VO 02VC 02MD 02MO 02MC 02RD 02RO	0	1	1.91455984116	None	None	None	None	1
2.7	2015_Jun_08_1159	s	s	21	1	SIC	317	ABS	0	2	02VD 02VO 02VC 02MD 02MO 02MC 10RD 02RO	0	1	2.37216901779	None	None	None	None	1
2.7	2015_Jun_08_1159	s	s	21	1	SIC	318	ABS	0	1	02VD 02VO 02VC 02MD 02MO 02MC 02RD 10RO	0	1	2.55991292	None	None	None	None	1
2.7	2015_Jun_08_1159	s	s	21	1	SIC	319	RC	0	2	02VD 02VO 02VC 02MD 02MO 02MC 09RD 02RO	1	0	1.75117993355	-426.0	90.0	-425	92	1
2.7	2015_Jun_08_1159	s	s	21	1	SIC	320	RC	2	1	02VD 09VO 02VC 02MD 02MO 02MC 02RD 02RO	1	0	2.20718812943	-436.0	-393.0	-440	-400	1
2.7	2015_Jun_08_1159	s	s	21	1	SIC	321	RC	1	0	02VD 02VO 02VC 02MD 02MO 09MC 02RD 02RO	1	0	0.787919044495	128.0	111.0	133	111	1
2.7	2015_Jun_08_1159	s	s	21	1	SIC	322	ABS	1	2	02VD 02VO 02VC 10MD 02MO 02MC 02RD 02RO	0	1	2.57714295387	None	None	None	None	1
2.7	2015_Jun_08_1159	s	s	21	1	SIC	323	RC	1	2	02VD 02VO 02VC 09MD 02MO 02MC 02RD 02RO	1	0	1.09444999695	8.0	325.0	9	325	1
2.7	2015_Jun_08_1159	s	s	21	1	SIC	324	ABS	1	1	02VD 02VO 02VC 02MD 10MO 02MC 02RD 02RO	0	1	3.52567696571	None	None	None	None	1
2.7	2015_Jun_08_1159	s	s	21	1	SIC	325	ABS	2	0	02VD 02VO 10VC 02MD 02MO 02MC 02RD 02RO	0	1	2.16202807426	None	None	None	None	1
2.7	2015_Jun_08_1159	s	s	21	1	SIC	326	ABS	2	1	02VD 10VO 02VC 02MD 02MO 02MC 02RD 02RO	0	1	2.50105786324	None	None	None	None	1
2.7	2015_Jun_08_1159	s	s	21	1	SIC	327	ABS	0	1	02VD 02VO 02VC 02MD 02MO 02MC 02RD 10RO	0	1	3.19299292564	None	None	None	None	1
2.7	2015_Jun_08_1159	s	s	21	1	SIC	328	RC	0	2	02VD 02VO 02VC 02MD 02MO 02MC 09RD 02RO	1	0	2.83227992058	-272.0	320.0	-273	317	1
2.7	2015_Jun_08_1159	s	s	21	1	SIC	329	ABS	2	2	10VD 02VO 02VC 02MD 02MO 02MC 02RD 02RO	0	1	1.93603897095	None	None	None	None	1
2.7	2015_Jun_08_1159	s	s	21	1	SIC	330	RC	2	1	02VD 09VO 02VC 02MD 02MO 02MC 02RD 02RO	1	0	4.24572682381	400.0	-352.0	401	-354	1
2.7	2015_Jun_08_1159	s	s	21	1	SIC	331	RC	2	0	02VD 02VO 09VC 02MD 02MO 02MC 02RD 02RO	1	0	2.18376612663	-195.0	26.0	-187	31	1
2.7	2015_Jun_08_1159	s	s	21	1	SIC	332	RC	1	1	02VD 02VO 02VC 02MD 09MO 02MC 02RD 02RO	0	1	2.54183602333	-216.0	-40.0	None	None	0
2.7	2015_Jun_08_1159	s	s	21	1	SIC	333	ABS	1	0	02VD 02VO 02VC 02MD 02MO 10MC 02RD 02RO	0	1	2.81954717636	None	None	None	None	1
2.7	2015_Jun_08_1159	s	s	21	1	SIC	334	RC	0	1	02VD 02VO 02VC 02MD 02MO 02MC 02RD 09RO	0	1	3.04802203178	-264.0	-243.0	None	None	0
2.7	2015_Jun_08_1159	s	s	21	1	SIC	335	RC	2	2	09VD 02VO 02VC 02MD 02MO 02MC 02RD 02RO	1	0	1.92315006256	-10.0	177.0	-8	178	1
2.7	2015_Jun_08_1159	s	s	21	1	SIC	336	ABS	0	2	02VD 02VO 02VC 02MD 02MO 02MC 10RD 02RO	0	1	1.51283693314	None	None	None	None	1
2.7	2015_Jun_08_1159	s	s	21	1	SIC	337	ABS	0	1	02VD 02VO 02VC 02MD 02MO 02MC 02RD 10RO	0	1	2.43588089943	None	None	None	None	1
2.7	2015_Jun_08_1159	s	s	21	1	SIC	338	ABS	0	2	02VD 02VO 02VC 02MD 02MO 02MC 10RD 02RO	0	1	2.12501692772	None	None	None	None	1
2.7	2015_Jun_08_1159	s	s	21	1	SIC	339	ABS	2	1	02VD 10VO 02VC 02MD 02MO 02MC 02RD 02RO	0	1	1.33592605591	None	None	None	None	1
2.7	2015_Jun_08_1159	s	s	21	1	SIC	340	RC	2	0	02VD 02VO 09VC 02MD 02MO 02MC 02RD 02RO	0	1	1.05914402008	-449.0	-145.0	None	None	0
2.7	2015_Jun_08_1159	s	s	21	1	SIC	341	RC	1	1	02VD 02VO 02VC 02MD 09MO 02MC 02RD 02RO	1	0	1.43087315559	471.0	20.0	479	19	1
2.7	2015_Jun_08_1159	s	s	21	1	SIC	342	ABS	2	2	10VD 02VO 02VC 02MD 02MO 02MC 02RD 02RO	0	1	1.80718016624	None	None	None	None	1
2.7	2015_Jun_08_1159	s	s	21	1	SIC	343	ABS	1	2	02VD 02VO 02VC 10MD 02MO 02MC 02RD 02RO	0	1	2.5370721817	None	None	None	None	1
2.7	2015_Jun_08_1159	s	s	21	1	SIC	344	RC	2	2	09VD 02VO 02VC 02MD 02MO 02MC 02RD 02RO	0	1	2.18865013123	-146.0	358.0	None	None	0
2.7	2015_Jun_08_1159	s	s	21	1	SIC	345	RC	1	2	02VD 02VO 02VC 09MD 02MO 02MC 02RD 02RO	0	1	2.80071806908	235.0	-156.0	None	None	0
2.7	2015_Jun_08_1159	s	s	21	1	SIC	346	RC	0	1	02VD 02VO 02VC 02MD 02MO 02MC 02RD 09RO	1	0	3.99800205231	-206.0	410.0	-206	408	1
2.7	2015_Jun_08_1159	s	s	21	1	SIC	347	ABS	1	1	02VD 02VO 02VC 02MD 10MO 02MC 02RD 02RO	0	1	2.93680691719	None	None	None	None	1
2.7	2015_Jun_08_1159	s	s	21	1	SIC	348	RC	1	0	02VD 02VO 02VC 02MD 02MO 09MC 02RD 02RO	1	0	1.50238084793	-174.0	-97.0	-177	-91	1
2.7	2015_Jun_08_1159	s	s	21	1	SIC	349	RC	2	1	02VD 09VO 02VC 02MD 02MO 02MC 02RD 02RO	1	0	1.93638205528	301.0	45.0	307	44	1
2.7	2015_Jun_08_1159	s	s	21	1	SIC	350	RC	0	2	02VD 02VO 02VC 02MD 02MO 02MC 09RD 02RO	0	1	3.09185910225	234.0	-323.0	None	None	0
2.7	2015_Jun_08_1159	s	s	21	1	SIC	351	ABS	2	0	02VD 02VO 10VC 02MD 02MO 02MC 02RD 02RO	0	1	2.12515997887	None	None	None	None	1
2.7	2015_Jun_08_1159	s	s	21	1	SIC	352	ABS	1	0	02VD 02VO 02VC 02MD 02MO 10MC 02RD 02RO	0	1	1.95323705673	None	None	None	None	1
2.7	2015_Jun_08_1159	s	s	21	1	SIC	353	RC	0	2	02VD 02VO 02VC 02MD 02MO 02MC 09RD 02RO	0	1	3.0659558773	-481.0	-185.0	None	None	0
2.7	2015_Jun_08_1159	s	s	21	1	SIC	354	RC	0	1	02VD 02VO 02VC 02MD 02MO 02MC 02RD 09RO	0	1	2.30638384819	395.0	235.0	None	None	0
2.7	2015_Jun_08_1159	s	s	21	1	SIC	355	ABS	2	1	02VD 10VO 02VC 02MD 02MO 02MC 02RD 02RO	0	1	1.37370896339	None	None	None	None	1
2.7	2015_Jun_08_1159	s	s	21	1	SIC	356	RC	2	2	09VD 02VO 02VC 02MD 02MO 02MC 02RD 02RO	0	1	2.53622293472	128.0	274.0	None	None	0
2.7	2015_Jun_08_1159	s	s	21	1	SIC	357	ABS	1	0	02VD 02VO 02VC 02MD 02MO 10MC 02RD 02RO	1	0	2.21221995354	None	None	361	166	0
2.7	2015_Jun_08_1159	s	s	21	1	SIC	358	ABS	0	1	02VD 02VO 02VC 02MD 02MO 02MC 02RD 10RO	0	1	2.02148008347	None	None	None	None	1
2.7	2015_Jun_08_1159	s	s	21	1	SIC	359	RC	1	2	02VD 02VO 02VC 09MD 02MO 02MC 02RD 02RO	0	1	1.82435297966	228.0	-307.0	None	None	0
2.7	2015_Jun_08_1159	s	s	21	1	SIC	360	RC	1	1	02VD 02VO 02VC 02MD 09MO 02MC 02RD 02RO	0	1	1.77175998688	-54.0	-394.0	None	None	0
2.7	2015_Jun_08_1159	s	s	21	1	SIC	361	ABS	1	2	02VD 02VO 02VC 10MD 02MO 02MC 02RD 02RO	0	1	1.52456307411	None	None	None	None	1
2.7	2015_Jun_08_1159	s	s	21	1	SIC	362	ABS	0	2	02VD 02VO 02VC 02MD 02MO 02MC 10RD 02RO	0	1	2.23580789566	None	None	None	None	1
2.7	2015_Jun_08_1159	s	s	21	1	SIC	363	ABS	2	0	02VD 02VO 10VC 02MD 02MO 02MC 02RD 02RO	0	1	1.91520690918	None	None	None	None	1
2.7	2015_Jun_08_1159	s	s	21	1	SIC	364	ABS	2	2	10VD 02VO 02VC 02MD 02MO 02MC 02RD 02RO	1	0	2.02375602722	None	None	-327	-20	0
2.7	2015_Jun_08_1159	s	s	21	1	SIC	365	RC	2	1	02VD 09VO 02VC 02MD 02MO 02MC 02RD 02RO	0	1	1.53563594818	263.0	-83.0	None	None	0
2.7	2015_Jun_08_1159	s	s	21	1	SIC	366	RC	1	0	02VD 02VO 02VC 02MD 02MO 09MC 02RD 02RO	1	0	1.27060198784	32.0	-215.0	38	-208	1
2.7	2015_Jun_08_1159	s	s	21	1	SIC	367	RC	2	0	02VD 02VO 09VC 02MD 02MO 02MC 02RD 02RO	1	0	0.799602985382	-164.0	23.0	-162	26	1
2.7	2015_Jun_08_1159	s	s	21	1	SIC	368	ABS	1	1	02VD 02VO 02VC 02MD 10MO 02MC 02RD 02RO	0	1	2.17693710327	None	None	None	None	1
2.7	2015_Jun_08_1159	s	s	21	1	SIC	369	RC	1	1	02VD 02VO 02VC 02MD 09MO 02MC 02RD 02RO	1	0	0.95273399353	189.0	122.0	186	122	1
2.7	2015_Jun_08_1159	s	s	21	1	SIC	370	ABS	1	1	02VD 02VO 02VC 02MD 10MO 02MC 02RD 02RO	0	1	2.57211995125	None	None	None	None	1
2.7	2015_Jun_08_1159	s	s	21	1	SIC	371	ABS	2	0	02VD 02VO 10VC 02MD 02MO 02MC 02RD 02RO	0	1	1.31765198708	None	None	None	None	1
2.7	2015_Jun_08_1159	s	s	21	1	SIC	372	RC	2	0	02VD 02VO 09VC 02MD 02MO 02MC 02RD 02RO	1	0	1.12438702583	282.0	-141.0	282	-137	1
2.7	2015_Jun_08_1159	s	s	21	1	SIC	373	ABS	1	2	02VD 02VO 02VC 10MD 02MO 02MC 02RD 02RO	0	1	2.02389097214	None	None	None	None	1
2.7	2015_Jun_08_1159	s	s	21	1	SIC	374	ABS	0	2	02VD 02VO 02VC 02MD 02MO 02MC 10RD 02RO	0	1	2.21919703484	None	None	None	None	1
2.7	2015_Jun_08_1159	s	s	21	1	SIC	375	ABS	0	1	02VD 02VO 02VC 02MD 02MO 02MC 02RD 10RO	0	1	2.62414693832	None	None	None	None	1
2.7	2015_Jun_08_1159	s	s	21	1	SIC	376	RC	0	2	02VD 02VO 02VC 02MD 02MO 02MC 09RD 02RO	1	0	1.60713505745	-179.0	200.0	-174	202	1
2.7	2015_Jun_08_1159	s	s	21	1	SIC	377	ABS	2	1	02VD 10VO 02VC 02MD 02MO 02MC 02RD 02RO	0	1	2.52528905869	None	None	None	None	1
2.7	2015_Jun_08_1159	s	s	21	1	SIC	378	RC	2	1	02VD 09VO 02VC 02MD 02MO 02MC 02RD 02RO	1	0	1.30115509033	275.0	-350.0	276	-357	1
2.7	2015_Jun_08_1159	s	s	21	1	SIC	379	ABS	2	2	10VD 02VO 02VC 02MD 02MO 02MC 02RD 02RO	0	1	2.00033402443	None	None	None	None	1
2.7	2015_Jun_08_1159	s	s	21	1	SIC	380	RC	2	2	09VD 02VO 02VC 02MD 02MO 02MC 02RD 02RO	1	0	1.96505403519	-458.0	385.0	-454	384	1
2.7	2015_Jun_08_1159	s	s	21	1	SIC	381	RC	1	2	02VD 02VO 02VC 09MD 02MO 02MC 02RD 02RO	1	0	1.07761216164	-484.0	151.0	-484	147	1
2.7	2015_Jun_08_1159	s	s	21	1	SIC	382	RC	0	1	02VD 02VO 02VC 02MD 02MO 02MC 02RD 09RO	1	0	1.25877594948	156.0	-115.0	163	-122	1
2.7	2015_Jun_08_1159	s	s	21	1	SIC	383	RC	1	0	02VD 02VO 02VC 02MD 02MO 09MC 02RD 02RO	0	1	1.87753200531	380.0	302.0	None	None	0
2.7	2015_Jun_08_1159	s	s	21	1	SIC	384	ABS	1	0	02VD 02VO 02VC 02MD 02MO 10MC 02RD 02RO	0	1	1.72968316078	None	None	None	None	1
2.7	2015_Jun_08_1159	s	s	21	1	SIC	385	RC	2	2	09VD 02VO 02VC 02MD 02MO 02MC 02RD 02RO	0	1	2.27747488022	-332.0	359.0	None	None	0
2.7	2015_Jun_08_1159	s	s	21	1	SIC	386	RC	1	1	02VD 02VO 02VC 02MD 09MO 02MC 02RD 02RO	0	1	3.01264500618	-453.0	-232.0	None	None	0
2.7	2015_Jun_08_1159	s	s	21	1	SIC	387	ABS	0	1	02VD 02VO 02VC 02MD 02MO 02MC 02RD 10RO	0	1	2.13662600517	None	None	None	None	1
2.7	2015_Jun_08_1159	s	s	21	1	SIC	388	RC	1	0	02VD 02VO 02VC 02MD 02MO 09MC 02RD 02RO	1	0	2.44268679619	-426.0	324.0	-418	322	1
2.7	2015_Jun_08_1159	s	s	21	1	SIC	389	ABS	2	2	10VD 02VO 02VC 02MD 02MO 02MC 02RD 02RO	0	1	1.81250095367	None	None	None	None	1
2.7	2015_Jun_08_1159	s	s	21	1	SIC	390	ABS	1	0	02VD 02VO 02VC 02MD 02MO 10MC 02RD 02RO	0	1	2.19809794426	None	None	None	None	1
2.7	2015_Jun_08_1159	s	s	21	1	SIC	391	RC	2	1	02VD 09VO 02VC 02MD 02MO 02MC 02RD 02RO	0	1	2.78426408768	-303.0	115.0	None	None	0
2.7	2015_Jun_08_1159	s	s	21	1	SIC	392	ABS	2	1	02VD 10VO 02VC 02MD 02MO 02MC 02RD 02RO	0	1	1.91314101219	None	None	None	None	1
2.7	2015_Jun_08_1159	s	s	21	1	SIC	393	RC	2	0	02VD 02VO 09VC 02MD 02MO 02MC 02RD 02RO	1	0	2.20711708069	226.0	-360.0	225	-367	1
2.7	2015_Jun_08_1159	s	s	21	1	SIC	394	ABS	1	2	02VD 02VO 02VC 10MD 02MO 02MC 02RD 02RO	0	1	2.17192006111	None	None	None	None	1
2.7	2015_Jun_08_1159	s	s	21	1	SIC	395	ABS	2	0	02VD 02VO 10VC 02MD 02MO 02MC 02RD 02RO	0	1	1.70615792274	None	None	None	None	1
2.7	2015_Jun_08_1159	s	s	21	1	SIC	396	RC	1	2	02VD 02VO 02VC 09MD 02MO 02MC 02RD 02RO	0	1	1.32445311546	429.0	-396.0	None	None	0
2.7	2015_Jun_08_1159	s	s	21	1	SIC	397	RC	0	1	02VD 02VO 02VC 02MD 02MO 02MC 02RD 09RO	1	0	1.98248887062	506.0	237.0	512	234	1
2.7	2015_Jun_08_1159	s	s	21	1	SIC	398	ABS	1	1	02VD 02VO 02VC 02MD 10MO 02MC 02RD 02RO	0	1	1.72469711304	None	None	None	None	1
2.7	2015_Jun_08_1159	s	s	21	1	SIC	399	RC	0	2	02VD 02VO 02VC 02MD 02MO 02MC 09RD 02RO	0	1	1.75322008133	-478.0	-150.0	None	None	0
2.7	2015_Jun_08_1159	s	s	21	1	SIC	400	ABS	0	2	02VD 02VO 02VC 02MD 02MO 02MC 10RD 02RO	0	1	1.57167100906	None	None	None	None	1
2.7	2015_Jun_08_1159	s	s	21	1	SIC	401	RC	1	1	02VD 02VO 02VC 02MD 09MO 02MC 02RD 02RO	0	1	2.50148701668	61.0	354.0	None	None	0
2.7	2015_Jun_08_1159	s	s	21	1	SIC	402	RC	0	2	02VD 02VO 02VC 02MD 02MO 02MC 09RD 02RO	0	1	1.38586187363	183.0	-262.0	None	None	0
2.7	2015_Jun_08_1159	s	s	21	1	SIC	403	ABS	2	2	10VD 02VO 02VC 02MD 02MO 02MC 02RD 02RO	0	1	1.38834786415	None	None	None	None	1
2.7	2015_Jun_08_1159	s	s	21	1	SIC	404	ABS	1	0	02VD 02VO 02VC 02MD 02MO 10MC 02RD 02RO	0	1	1.27818894386	None	None	None	None	1
2.7	2015_Jun_08_1159	s	s	21	1	SIC	405	RC	1	0	02VD 02VO 02VC 02MD 02MO 09MC 02RD 02RO	0	1	1.65942621231	254.0	-318.0	None	None	0
2.7	2015_Jun_08_1159	s	s	21	1	SIC	406	RC	2	2	09VD 02VO 02VC 02MD 02MO 02MC 02RD 02RO	1	0	2.14157891273	-504.0	-136.0	-496	-136	1
2.7	2015_Jun_08_1159	s	s	21	1	SIC	407	ABS	1	2	02VD 02VO 02VC 10MD 02MO 02MC 02RD 02RO	0	1	1.44234013557	None	None	None	None	1
2.7	2015_Jun_08_1159	s	s	21	1	SIC	408	ABS	2	0	02VD 02VO 10VC 02MD 02MO 02MC 02RD 02RO	0	1	2.03068900108	None	None	None	None	1
2.7	2015_Jun_08_1159	s	s	21	1	SIC	409	ABS	0	2	02VD 02VO 02VC 02MD 02MO 02MC 10RD 02RO	0	1	2.51348400116	None	None	None	None	1
2.7	2015_Jun_08_1159	s	s	21	1	SIC	410	ABS	2	1	02VD 10VO 02VC 02MD 02MO 02MC 02RD 02RO	0	1	1.88077187538	None	None	None	None	1
2.7	2015_Jun_08_1159	s	s	21	1	SIC	411	RC	2	1	02VD 09VO 02VC 02MD 02MO 02MC 02RD 02RO	0	1	1.50245714188	-490.0	-330.0	None	None	0
2.7	2015_Jun_08_1159	s	s	21	1	SIC	412	RC	1	2	02VD 02VO 02VC 09MD 02MO 02MC 02RD 02RO	1	0	1.15334582329	-167.0	-203.0	-161	-210	1
2.7	2015_Jun_08_1159	s	s	21	1	SIC	413	ABS	0	1	02VD 02VO 02VC 02MD 02MO 02MC 02RD 10RO	0	1	1.55912494659	None	None	None	None	1
2.7	2015_Jun_08_1159	s	s	21	1	SIC	414	ABS	1	1	02VD 02VO 02VC 02MD 10MO 02MC 02RD 02RO	0	1	1.34122991562	None	None	None	None	1
2.7	2015_Jun_08_1159	s	s	21	1	SIC	415	RC	0	1	02VD 02VO 02VC 02MD 02MO 02MC 02RD 09RO	1	0	1.56472206116	494.0	116.0	497	111	1
2.7	2015_Jun_08_1159	s	s	21	1	SIC	416	RC	2	0	02VD 02VO 09VC 02MD 02MO 02MC 02RD 02RO	1	0	1.18588089943	21.0	268.0	22	266	1
2.7	2015_Jun_08_1159	s	s	21	1	SIC	417	RC	0	2	02VD 02VO 02VC 02MD 02MO 02MC 09RD 02RO	1	0	0.823340177536	-360.0	-133.0	-358	-139	1
2.7	2015_Jun_08_1159	s	s	21	1	SIC	418	ABS	2	2	10VD 02VO 02VC 02MD 02MO 02MC 02RD 02RO	0	1	1.17651820183	None	None	None	None	1
2.7	2015_Jun_08_1159	s	s	21	1	SIC	419	RC	2	0	02VD 02VO 09VC 02MD 02MO 02MC 02RD 02RO	1	0	0.846822977066	-101.0	213.0	-105	212	1
2.7	2015_Jun_08_1159	s	s	21	1	SIC	420	RC	1	1	02VD 02VO 02VC 02MD 09MO 02MC 02RD 02RO	1	0	0.882158041	-181.0	251.0	-184	253	1
2.7	2015_Jun_08_1159	s	s	21	1	SIC	421	ABS	0	2	02VD 02VO 02VC 02MD 02MO 02MC 10RD 02RO	0	1	2.10634303093	None	None	None	None	1
2.7	2015_Jun_08_1159	s	s	21	1	SIC	422	RC	0	1	02VD 02VO 02VC 02MD 02MO 02MC 02RD 09RO	0	1	2.33025693893	197.0	142.0	None	None	0
2.7	2015_Jun_08_1159	s	s	21	1	SIC	423	ABS	2	1	02VD 10VO 02VC 02MD 02MO 02MC 02RD 02RO	0	1	2.03585600853	None	None	None	None	1
2.7	2015_Jun_08_1159	s	s	21	1	SIC	424	RC	1	0	02VD 02VO 02VC 02MD 02MO 09MC 02RD 02RO	1	0	2.82114005089	-381.0	-297.0	-381	-302	1
2.7	2015_Jun_08_1159	s	s	21	1	SIC	425	ABS	1	2	02VD 02VO 02VC 10MD 02MO 02MC 02RD 02RO	0	1	1.73341488838	None	None	None	None	1
2.7	2015_Jun_08_1159	s	s	21	1	SIC	426	RC	1	2	02VD 02VO 02VC 09MD 02MO 02MC 02RD 02RO	1	0	0.712543964386	-301.0	322.0	-298	326	1
2.7	2015_Jun_08_1159	s	s	21	1	SIC	427	RC	2	1	02VD 09VO 02VC 02MD 02MO 02MC 02RD 02RO	1	0	1.9957048893	395.0	-102.0	397	-101	1
2.7	2015_Jun_08_1159	s	s	21	1	SIC	428	RC	2	2	09VD 02VO 02VC 02MD 02MO 02MC 02RD 02RO	1	0	1.05868816376	383.0	368.0	384	373	1
2.7	2015_Jun_08_1159	s	s	21	1	SIC	429	ABS	1	1	02VD 02VO 02VC 02MD 10MO 02MC 02RD 02RO	0	1	1.92499017715	None	None	None	None	1
2.7	2015_Jun_08_1159	s	s	21	1	SIC	430	ABS	1	0	02VD 02VO 02VC 02MD 02MO 10MC 02RD 02RO	0	1	2.20047712326	None	None	None	None	1
2.7	2015_Jun_08_1159	s	s	21	1	SIC	431	ABS	2	0	02VD 02VO 10VC 02MD 02MO 02MC 02RD 02RO	0	1	1.43580102921	None	None	None	None	1
2.7	2015_Jun_08_1159	s	s	21	1	SIC	432	ABS	0	1	02VD 02VO 02VC 02MD 02MO 02MC 02RD 10RO	0	1	2.33737301826	None	None	None	None	1
2.7	2015_Jun_08_1159	s	s	21	1	SIC	433	RC	1	0	02VD 02VO 02VC 02MD 02MO 09MC 02RD 02RO	0	1	1.86854600906	32.0	-53.0	None	None	0
2.7	2015_Jun_08_1159	s	s	21	1	SIC	434	RC	1	2	02VD 02VO 02VC 09MD 02MO 02MC 02RD 02RO	1	0	1.43220210075	-483.0	168.0	-487	165	1
2.7	2015_Jun_08_1159	s	s	21	1	SIC	435	ABS	2	1	02VD 10VO 02VC 02MD 02MO 02MC 02RD 02RO	0	1	1.50100398064	None	None	None	None	1
2.7	2015_Jun_08_1159	s	s	21	1	SIC	436	ABS	2	0	02VD 02VO 10VC 02MD 02MO 02MC 02RD 02RO	0	1	1.1138958931	None	None	None	None	1
2.7	2015_Jun_08_1159	s	s	21	1	SIC	437	ABS	1	2	02VD 02VO 02VC 10MD 02MO 02MC 02RD 02RO	0	1	1.40651106834	None	None	None	None	1
2.7	2015_Jun_08_1159	s	s	21	1	SIC	438	RC	2	2	09VD 02VO 02VC 02MD 02MO 02MC 02RD 02RO	1	0	1.2431678772	326.0	47.0	324	44	1
2.7	2015_Jun_08_1159	s	s	21	1	SIC	439	ABS	0	2	02VD 02VO 02VC 02MD 02MO 02MC 10RD 02RO	0	1	1.37172412872	None	None	None	None	1
2.7	2015_Jun_08_1159	s	s	21	1	SIC	440	RC	0	2	02VD 02VO 02VC 02MD 02MO 02MC 09RD 02RO	0	1	1.50586104393	-381.0	55.0	None	None	0
2.7	2015_Jun_08_1159	s	s	21	1	SIC	441	ABS	2	2	10VD 02VO 02VC 02MD 02MO 02MC 02RD 02RO	0	1	1.28948616982	None	None	None	None	1
2.7	2015_Jun_08_1159	s	s	21	1	SIC	442	ABS	1	1	02VD 02VO 02VC 02MD 10MO 02MC 02RD 02RO	0	1	1.37208199501	None	None	None	None	1
2.7	2015_Jun_08_1159	s	s	21	1	SIC	443	ABS	1	0	02VD 02VO 02VC 02MD 02MO 10MC 02RD 02RO	0	1	2.76551795006	None	None	None	None	1
2.7	2015_Jun_08_1159	s	s	21	1	SIC	444	RC	0	1	02VD 02VO 02VC 02MD 02MO 02MC 02RD 09RO	0	1	1.52985596657	212.0	-302.0	None	None	0
2.7	2015_Jun_08_1159	s	s	21	1	SIC	445	RC	1	1	02VD 02VO 02VC 02MD 09MO 02MC 02RD 02RO	1	0	2.06000304222	469.0	127.0	467	129	1
2.7	2015_Jun_08_1159	s	s	21	1	SIC	446	RC	2	0	02VD 02VO 09VC 02MD 02MO 02MC 02RD 02RO	1	0	1.47065496445	257.0	-90.0	264	-94	1
2.7	2015_Jun_08_1159	s	s	21	1	SIC	447	RC	2	1	02VD 09VO 02VC 02MD 02MO 02MC 02RD 02RO	1	0	1.03895998001	-367.0	-14.0	-362	-13	1
2.7	2015_Jun_08_1159	s	s	21	1	SIC	448	ABS	0	1	02VD 02VO 02VC 02MD 02MO 02MC 02RD 10RO	0	1	2.2748799324	None	None	None	None	1
2.7	2015_Jun_08_1159	s	s	21	1	SIC	449	RC	1	1	02VD 02VO 02VC 02MD 09MO 02MC 02RD 02RO	1	0	2.62083411217	-516.0	-384.0	-518	-392	1
2.7	2015_Jun_08_1159	s	s	21	1	SIC	450	ABS	2	1	02VD 10VO 02VC 02MD 02MO 02MC 02RD 02RO	0	1	1.30592107773	None	None	None	None	1
2.7	2015_Jun_08_1159	s	s	21	1	SIC	451	RC	1	2	02VD 02VO 02VC 09MD 02MO 02MC 02RD 02RO	1	0	1.15287995338	381.0	-141.0	381	-139	1
2.7	2015_Jun_08_1159	s	s	21	1	SIC	452	RC	0	2	02VD 02VO 02VC 02MD 02MO 02MC 09RD 02RO	1	0	0.905726909637	73.0	181.0	74	183	1
2.7	2015_Jun_08_1159	s	s	21	1	SIC	453	RC	1	0	02VD 02VO 02VC 02MD 02MO 09MC 02RD 02RO	1	0	1.14109897614	93.0	275.0	96	276	1
2.7	2015_Jun_08_1159	s	s	21	1	SIC	454	RC	2	2	09VD 02VO 02VC 02MD 02MO 02MC 02RD 02RO	1	0	2.20710492134	-523.0	201.0	-529	197	1
2.7	2015_Jun_08_1159	s	s	21	1	SIC	455	RC	2	0	02VD 02VO 09VC 02MD 02MO 02MC 02RD 02RO	0	1	1.80029702187	-183.0	-212.0	None	None	0
2.7	2015_Jun_08_1159	s	s	21	1	SIC	456	ABS	2	2	10VD 02VO 02VC 02MD 02MO 02MC 02RD 02RO	0	1	1.85910201073	None	None	None	None	1
2.7	2015_Jun_08_1159	s	s	21	1	SIC	457	ABS	2	0	02VD 02VO 10VC 02MD 02MO 02MC 02RD 02RO	0	1	1.54135608673	None	None	None	None	1
2.7	2015_Jun_08_1159	s	s	21	1	SIC	458	ABS	0	2	02VD 02VO 02VC 02MD 02MO 02MC 10RD 02RO	0	1	1.97684693336	None	None	None	None	1
2.7	2015_Jun_08_1159	s	s	21	1	SIC	459	ABS	1	1	02VD 02VO 02VC 02MD 10MO 02MC 02RD 02RO	0	1	1.26817512512	None	None	None	None	1
2.7	2015_Jun_08_1159	s	s	21	1	SIC	460	RC	2	1	02VD 09VO 02VC 02MD 02MO 02MC 02RD 02RO	1	0	1.10082912445	-359.0	318.0	-359	313	1
2.7	2015_Jun_08_1159	s	s	21	1	SIC	461	ABS	0	1	02VD 02VO 02VC 02MD 02MO 02MC 02RD 10RO	0	1	1.68249487877	None	None	None	None	1
2.7	2015_Jun_08_1159	s	s	21	1	SIC	462	ABS	1	0	02VD 02VO 02VC 02MD 02MO 10MC 02RD 02RO	0	1	2.13008189201	None	None	None	None	1
2.7	2015_Jun_08_1159	s	s	21	1	SIC	463	ABS	1	2	02VD 02VO 02VC 10MD 02MO 02MC 02RD 02RO	0	1	1.27055692673	None	None	None	None	1
2.7	2015_Jun_08_1159	s	s	21	1	SIC	464	RC	0	1	02VD 02VO 02VC 02MD 02MO 02MC 02RD 09RO	1	0	2.27749609947	-236.0	-211.0	-235	-211	1
2.7	2015_Jun_08_1159	s	s	21	1	SIC	465	ABS	0	1	02VD 02VO 02VC 02MD 02MO 02MC 02RD 10RO	0	1	2.81898498535	None	None	None	None	1
2.7	2015_Jun_08_1159	s	s	21	1	SIC	466	RC	2	2	09VD 02VO 02VC 02MD 02MO 02MC 02RD 02RO	1	0	0.773842811584	56.0	106.0	60	105	1
2.7	2015_Jun_08_1159	s	s	21	1	SIC	467	RC	0	1	02VD 02VO 02VC 02MD 02MO 02MC 02RD 09RO	1	0	2.80074381828	-524.0	140.0	-523	132	1
2.7	2015_Jun_08_1159	s	s	21	1	SIC	468	RC	2	0	02VD 02VO 09VC 02MD 02MO 02MC 02RD 02RO	1	0	0.776231050491	-334.0	58.0	-325	63	1
2.7	2015_Jun_08_1159	s	s	21	1	SIC	469	RC	1	0	02VD 02VO 02VC 02MD 02MO 09MC 02RD 02RO	0	1	1.93636918068	265.0	-347.0	None	None	0
2.7	2015_Jun_08_1159	s	s	21	1	SIC	470	ABS	0	2	02VD 02VO 02VC 02MD 02MO 02MC 10RD 02RO	0	1	1.82381606102	None	None	None	None	1
2.7	2015_Jun_08_1159	s	s	21	1	SIC	471	ABS	2	1	02VD 10VO 02VC 02MD 02MO 02MC 02RD 02RO	0	1	2.17200803757	None	None	None	None	1
2.7	2015_Jun_08_1159	s	s	21	1	SIC	472	RC	0	2	02VD 02VO 02VC 02MD 02MO 02MC 09RD 02RO	0	1	1.85486197472	92.0	-378.0	None	None	0
2.7	2015_Jun_08_1159	s	s	21	1	SIC	473	ABS	1	1	02VD 02VO 02VC 02MD 10MO 02MC 02RD 02RO	0	1	2.74195313454	None	None	None	None	1
2.7	2015_Jun_08_1159	s	s	21	1	SIC	474	RC	1	1	02VD 02VO 02VC 02MD 09MO 02MC 02RD 02RO	0	1	2.07770514488	527.0	60.0	None	None	0
2.7	2015_Jun_08_1159	s	s	21	1	SIC	475	ABS	2	2	10VD 02VO 02VC 02MD 02MO 02MC 02RD 02RO	0	1	1.1362080574	None	None	None	None	1
2.7	2015_Jun_08_1159	s	s	21	1	SIC	476	ABS	2	0	02VD 02VO 10VC 02MD 02MO 02MC 02RD 02RO	0	1	1.37083005905	None	None	None	None	1
2.7	2015_Jun_08_1159	s	s	21	1	SIC	477	RC	1	2	02VD 02VO 02VC 09MD 02MO 02MC 02RD 02RO	1	0	1.77196288109	-521.0	-179.0	-523	-189	1
2.7	2015_Jun_08_1159	s	s	21	1	SIC	478	ABS	1	2	02VD 02VO 02VC 10MD 02MO 02MC 02RD 02RO	0	1	2.29461693764	None	None	None	None	1
2.7	2015_Jun_08_1159	s	s	21	1	SIC	479	ABS	1	0	02VD 02VO 02VC 02MD 02MO 10MC 02RD 02RO	0	1	0.893965005875	None	None	None	None	1
2.7	2015_Jun_08_1159	s	s	21	1	SIC	480	RC	2	1	02VD 09VO 02VC 02MD 02MO 02MC 02RD 02RO	1	0	1.32946419716	-109.0	-176.0	-107	-179	1
