Version	Date	Stimuli	Method	Subject	Session	Condition	Trial	Target	Channel1	Channel2	Distractors	LMouseButton	RMouseButton	RT	TargetX	TargetY	ResponseX	ResponseY	Correct
2.7	2015_Jun_09_1109	s	s	21	2	Capacity	1	ABS	0	2	16RD 08RO	0	1	2.31845283508	None	None	None	None	1
2.7	2015_Jun_09_1109	s	s	21	2	Capacity	2	ABS	0	1	08RD 16RO	0	1	2.9960000515	None	None	None	None	1
2.7	2015_Jun_09_1109	s	s	21	2	Capacity	3	RC	0	1	08RD 15RO	1	0	2.29459309578	519.0	-14.0	513	-13	1
2.7	2015_Jun_09_1109	s	s	21	2	Capacity	4	RC	0	2	15RD 08RO	1	0	2.10629916191	138.0	-95.0	139	-97	1
2.7	2015_Jun_09_1109	s	s	21	2	Capacity	5	ABS	0	2	16RD 08RO	0	1	2.93710303307	None	None	None	None	1
2.7	2015_Jun_09_1109	s	s	21	2	Capacity	6	RC	0	1	08RD 15RO	1	0	2.5536699295	510.0	83.0	513	80	1
2.7	2015_Jun_09_1109	s	s	21	2	Capacity	7	RC	0	2	15RD 08RO	1	0	1.25883293152	231.0	-11.0	236	-14	1
2.7	2015_Jun_09_1109	s	s	21	2	Capacity	8	ABS	0	1	08RD 16RO	0	1	2.80775022507	None	None	None	None	1
2.7	2015_Jun_09_1109	s	s	21	2	Capacity	9	RC	0	1	08RD 15RO	1	0	1.30968499184	451.0	288.0	456	279	1
2.7	2015_Jun_09_1109	s	s	21	2	Capacity	10	RC	0	2	15RD 08RO	1	0	1.87087798119	-463.0	-212.0	-451	-211	1
2.7	2015_Jun_09_1109	s	s	21	2	Capacity	11	ABS	0	1	08RD 16RO	0	1	3.25724697113	None	None	None	None	1
2.7	2015_Jun_09_1109	s	s	21	2	Capacity	12	ABS	0	2	16RD 08RO	0	1	2.54890489578	None	None	None	None	1
2.7	2015_Jun_09_1109	s	s	21	2	Capacity	13	RC	0	1	08RD 15RO	0	1	2.93634605408	-482.0	217.0	None	None	0
2.7	2015_Jun_09_1109	s	s	21	2	Capacity	14	ABS	0	2	16RD 08RO	0	1	2.12981510162	None	None	None	None	1
2.7	2015_Jun_09_1109	s	s	21	2	Capacity	15	RC	0	2	15RD 08RO	0	1	2.22400712967	-406.0	-391.0	None	None	0
2.7	2015_Jun_09_1109	s	s	21	2	Capacity	16	ABS	0	1	08RD 16RO	0	1	4.42034983635	None	None	None	None	1
2.7	2015_Jun_09_1109	s	s	21	2	Capacity	17	RC	0	2	15RD 08RO	0	1	2.77384281158	16.0	-95.0	None	None	0
2.7	2015_Jun_09_1109	s	s	21	2	Capacity	18	RC	0	1	08RD 15RO	1	0	2.07102012634	67.0	-358.0	65	-362	1
2.7	2015_Jun_09_1109	s	s	21	2	Capacity	19	ABS	0	2	16RD 08RO	0	1	2.07100319862	None	None	None	None	1
2.7	2015_Jun_09_1109	s	s	21	2	Capacity	20	ABS	0	1	08RD 16RO	0	1	2.48971700668	None	None	None	None	1
2.7	2015_Jun_09_1109	s	s	21	2	Capacity	21	RC	0	2	15RD 08RO	1	0	0.905710935593	-419.0	99.0	-415	96	1
2.7	2015_Jun_09_1109	s	s	21	2	Capacity	22	RC	0	1	08RD 15RO	1	0	2.78900313377	-270.0	-368.0	-271	-372	1
2.7	2015_Jun_09_1109	s	s	21	2	Capacity	23	ABS	0	2	16RD 08RO	0	1	2.20047402382	None	None	None	None	1
2.7	2015_Jun_09_1109	s	s	21	2	Capacity	24	ABS	0	1	08RD 16RO	0	1	3.90375208855	None	None	None	None	1
2.7	2015_Jun_09_1109	s	s	21	2	Capacity	25	ABS	0	1	08RD 16RO	0	1	2.61244511604	None	None	None	None	1
2.7	2015_Jun_09_1109	s	s	21	2	Capacity	26	RC	0	1	08RD 15RO	1	0	2.40076303482	443.0	52.0	451	51	1
2.7	2015_Jun_09_1109	s	s	21	2	Capacity	27	RC	0	2	15RD 08RO	1	0	0.865365028381	137.0	93.0	136	80	1
2.7	2015_Jun_09_1109	s	s	21	2	Capacity	28	ABS	0	2	16RD 08RO	0	1	2.64286708832	None	None	None	None	1
2.7	2015_Jun_09_1109	s	s	21	2	Capacity	29	RC	0	1	08RD 15RO	1	0	1.9011900425	-203.0	6.0	-205	2	1
2.7	2015_Jun_09_1109	s	s	21	2	Capacity	30	RC	0	2	15RD 08RO	0	1	2.16025090218	-490.0	2.0	None	None	0
2.7	2015_Jun_09_1109	s	s	21	2	Capacity	31	ABS	0	2	16RD 08RO	0	1	2.51323986053	None	None	None	None	1
2.7	2015_Jun_09_1109	s	s	21	2	Capacity	32	ABS	0	1	08RD 16RO	0	1	4.3427259922	None	None	None	None	1
2.7	2015_Jun_09_1109	s	s	21	2	Capacity	33	ABS	0	2	16RD 08RO	0	1	2.84831404686	None	None	None	None	1
2.7	2015_Jun_09_1109	s	s	21	2	Capacity	34	RC	0	2	15RD 08RO	1	0	1.89192914963	208.0	-144.0	209	-146	1
2.7	2015_Jun_09_1109	s	s	21	2	Capacity	35	RC	0	1	08RD 15RO	1	0	2.41855502129	364.0	47.0	365	45	1
2.7	2015_Jun_09_1109	s	s	21	2	Capacity	36	ABS	0	1	08RD 16RO	0	1	3.70711398125	None	None	None	None	1
2.7	2015_Jun_09_1109	s	s	21	2	Capacity	37	RC	0	1	08RD 15RO	0	1	3.14585590363	-146.0	-94.0	None	None	0
2.7	2015_Jun_09_1109	s	s	21	2	Capacity	38	ABS	0	2	16RD 08RO	0	1	2.90197706223	None	None	None	None	1
2.7	2015_Jun_09_1109	s	s	21	2	Capacity	39	ABS	0	1	08RD 16RO	0	1	2.45415496826	None	None	None	None	1
2.7	2015_Jun_09_1109	s	s	21	2	Capacity	40	RC	0	2	15RD 08RO	0	1	2.5657749176	-399.0	384.0	None	None	0
2.7	2015_Jun_09_1109	s	s	21	2	Capacity	41	RC	0	2	15RD 08RO	1	0	0.856120109558	-126.0	153.0	-125	148	1
2.7	2015_Jun_09_1109	s	s	21	2	Capacity	42	RC	0	1	08RD 15RO	0	1	2.74858093262	-234.0	-271.0	None	None	0
2.7	2015_Jun_09_1109	s	s	21	2	Capacity	43	ABS	0	1	08RD 16RO	0	1	2.86594510078	None	None	None	None	1
2.7	2015_Jun_09_1109	s	s	21	2	Capacity	44	ABS	0	2	16RD 08RO	0	1	2.61246013641	None	None	None	None	1
2.7	2015_Jun_09_1109	s	s	21	2	Capacity	45	ABS	0	1	08RD 16RO	0	1	2.48303508759	None	None	None	None	1
2.7	2015_Jun_09_1109	s	s	21	2	Capacity	46	RC	0	1	08RD 15RO	1	0	0.665479898453	67.0	52.0	67	55	1
2.7	2015_Jun_09_1109	s	s	21	2	Capacity	47	ABS	0	2	16RD 08RO	0	1	1.87086701393	None	None	None	None	1
2.7	2015_Jun_09_1109	s	s	21	2	Capacity	48	RC	0	2	15RD 08RO	1	0	2.0827729702	-443.0	-412.0	-446	-415	1
2.7	2015_Jun_09_1109	s	s	21	2	Capacity	49	RC	0	1	08RD 15RO	1	0	1.93768501282	528.0	216.0	524	220	1
2.7	2015_Jun_09_1109	s	s	21	2	Capacity	50	ABS	0	2	16RD 08RO	0	1	1.40001296997	None	None	None	None	1
2.7	2015_Jun_09_1109	s	s	21	2	Capacity	51	ABS	0	1	08RD 16RO	0	1	3.32507419586	None	None	None	None	1
2.7	2015_Jun_09_1109	s	s	21	2	Capacity	52	RC	0	2	15RD 08RO	1	0	1.04252195358	398.0	95.0	397	91	1
2.7	2015_Jun_09_1109	s	s	21	2	Capacity	53	RC	0	2	15RD 08RO	1	0	2.46809887886	-184.0	15.0	-184	16	1
2.7	2015_Jun_09_1109	s	s	21	2	Capacity	54	ABS	0	1	08RD 16RO	0	1	3.71885204315	None	None	None	None	1
2.7	2015_Jun_09_1109	s	s	21	2	Capacity	55	RC	0	1	08RD 15RO	0	1	3.29047608376	-133.0	186.0	None	None	0
2.7	2015_Jun_09_1109	s	s	21	2	Capacity	56	ABS	0	2	16RD 08RO	0	1	1.914716959	None	None	None	None	1
2.7	2015_Jun_09_1109	s	s	21	2	Capacity	57	RC	0	1	08RD 15RO	0	1	1.74141907692	-257.0	354.0	None	None	0
2.7	2015_Jun_09_1109	s	s	21	2	Capacity	58	RC	0	2	15RD 08RO	1	0	3.57321691513	157.0	98.0	152	97	1
2.7	2015_Jun_09_1109	s	s	21	2	Capacity	59	ABS	0	1	08RD 16RO	0	1	3.35119700432	None	None	None	None	1
2.7	2015_Jun_09_1109	s	s	21	2	Capacity	60	ABS	0	2	16RD 08RO	0	1	1.77662491798	None	None	None	None	1
2.7	2015_Jun_09_1109	s	s	21	2	Capacity	61	RC	0	1	08RD 15RO	1	0	1.16464805603	-184.0	263.0	-180	262	1
2.7	2015_Jun_09_1109	s	s	21	2	Capacity	62	ABS	0	1	08RD 16RO	0	1	2.37180995941	None	None	None	None	1
2.7	2015_Jun_09_1109	s	s	21	2	Capacity	63	ABS	0	2	16RD 08RO	0	1	2.1650428772	None	None	None	None	1
2.7	2015_Jun_09_1109	s	s	21	2	Capacity	64	RC	0	2	15RD 08RO	1	0	1.5010509491	395.0	-123.0	399	-125	1
2.7	2015_Jun_09_1109	s	s	21	2	Capacity	1	ABS	2	0	16VC 08MC	0	1	2.58895015717	None	None	None	None	1
2.7	2015_Jun_09_1109	s	s	21	2	Capacity	2	RC	2	0	15VC 08MC	1	0	0.841331958771	-467.0	44.0	-463	42	1
2.7	2015_Jun_09_1109	s	s	21	2	Capacity	3	ABS	1	0	08VC 16MC	0	1	1.66586208344	None	None	None	None	1
2.7	2015_Jun_09_1109	s	s	21	2	Capacity	4	RC	1	0	08VC 15MC	1	0	0.905903816223	377.0	168.0	388	170	1
2.7	2015_Jun_09_1109	s	s	21	2	Capacity	5	RC	1	0	08VC 15MC	0	1	1.03304815292	-286.0	239.0	None	None	0
2.7	2015_Jun_09_1109	s	s	21	2	Capacity	6	ABS	1	0	08VC 16MC	0	1	2.28290820122	None	None	None	None	1
2.7	2015_Jun_09_1109	s	s	21	2	Capacity	7	RC	2	0	15VC 08MC	1	0	1.12442708015	-27.0	315.0	-23	308	1
2.7	2015_Jun_09_1109	s	s	21	2	Capacity	8	ABS	2	0	16VC 08MC	0	1	1.32946300507	None	None	None	None	1
2.7	2015_Jun_09_1109	s	s	21	2	Capacity	9	RC	1	0	08VC 15MC	1	0	0.702721118927	387.0	283.0	387	278	1
2.7	2015_Jun_09_1109	s	s	21	2	Capacity	10	ABS	1	0	08VC 16MC	0	1	1.40866994858	None	None	None	None	1
2.7	2015_Jun_09_1109	s	s	21	2	Capacity	11	RC	2	0	15VC 08MC	1	0	0.70565700531	439.0	-124.0	441	-128	1
2.7	2015_Jun_09_1109	s	s	21	2	Capacity	12	ABS	2	0	16VC 08MC	0	1	0.870460033417	None	None	None	None	1
2.7	2015_Jun_09_1109	s	s	21	2	Capacity	13	ABS	2	0	16VC 08MC	0	1	2.06605696678	None	None	None	None	1
2.7	2015_Jun_09_1109	s	s	21	2	Capacity	14	RC	1	0	08VC 15MC	1	0	1.05388402939	-91.0	11.0	-98	12	1
2.7	2015_Jun_09_1109	s	s	21	2	Capacity	15	ABS	1	0	08VC 16MC	0	1	1.058811903	None	None	None	None	1
2.7	2015_Jun_09_1109	s	s	21	2	Capacity	16	RC	2	0	15VC 08MC	1	0	0.988104104996	497.0	-191.0	491	-185	1
2.7	2015_Jun_09_1109	s	s	21	2	Capacity	17	RC	1	0	08VC 15MC	1	0	1.04703402519	304.0	-26.0	311	-32	1
2.7	2015_Jun_09_1109	s	s	21	2	Capacity	18	RC	2	0	15VC 08MC	1	0	0.999839782715	61.0	380.0	62	372	1
2.7	2015_Jun_09_1109	s	s	21	2	Capacity	19	ABS	1	0	08VC 16MC	0	1	1.33650898933	None	None	None	None	1
2.7	2015_Jun_09_1109	s	s	21	2	Capacity	20	ABS	2	0	16VC 08MC	0	1	0.936097860336	None	None	None	None	1
2.7	2015_Jun_09_1109	s	s	21	2	Capacity	21	RC	2	0	15VC 08MC	1	0	1.04182481766	-456.0	54.0	-451	51	1
2.7	2015_Jun_09_1109	s	s	21	2	Capacity	22	ABS	2	0	16VC 08MC	0	1	1.6000058651	None	None	None	None	1
2.7	2015_Jun_09_1109	s	s	21	2	Capacity	23	RC	1	0	08VC 15MC	1	0	0.940986871719	429.0	41.0	429	42	1
2.7	2015_Jun_09_1109	s	s	21	2	Capacity	24	ABS	1	0	08VC 16MC	0	1	1.79598498344	None	None	None	None	1
2.7	2015_Jun_09_1109	s	s	21	2	Capacity	25	RC	2	0	15VC 08MC	1	0	1.29139089584	17.0	-291.0	16	-285	1
2.7	2015_Jun_09_1109	s	s	21	2	Capacity	26	ABS	2	0	16VC 08MC	0	1	0.811568021774	None	None	None	None	1
2.7	2015_Jun_09_1109	s	s	21	2	Capacity	27	RC	1	0	08VC 15MC	1	0	0.853533029556	407.0	-107.0	403	-116	1
2.7	2015_Jun_09_1109	s	s	21	2	Capacity	28	ABS	1	0	08VC 16MC	0	1	1.02355217934	None	None	None	None	1
2.7	2015_Jun_09_1109	s	s	21	2	Capacity	29	RC	1	0	08VC 15MC	1	0	1.14154195786	503.0	67.0	504	65	1
2.7	2015_Jun_09_1109	s	s	21	2	Capacity	30	ABS	1	0	08VC 16MC	0	1	1.23003602028	None	None	None	None	1
2.7	2015_Jun_09_1109	s	s	21	2	Capacity	31	ABS	2	0	16VC 08MC	0	1	0.900745153427	None	None	None	None	1
2.7	2015_Jun_09_1109	s	s	21	2	Capacity	32	RC	2	0	15VC 08MC	1	0	1.1057741642	80.0	-162.0	76	-165	1
2.7	2015_Jun_09_1109	s	s	21	2	Capacity	33	ABS	2	0	16VC 08MC	0	1	0.635016918182	None	None	None	None	1
2.7	2015_Jun_09_1109	s	s	21	2	Capacity	34	RC	1	0	08VC 15MC	0	1	0.729032993317	453.0	383.0	None	None	0
2.7	2015_Jun_09_1109	s	s	21	2	Capacity	35	RC	2	0	15VC 08MC	1	0	1.54791688919	129.0	-297.0	132	-300	1
2.7	2015_Jun_09_1109	s	s	21	2	Capacity	36	ABS	1	0	08VC 16MC	0	1	1.77673006058	None	None	None	None	1
2.7	2015_Jun_09_1109	s	s	21	2	Capacity	37	RC	1	0	08VC 15MC	0	1	1.47894883156	-426.0	400.0	None	None	0
2.7	2015_Jun_09_1109	s	s	21	2	Capacity	38	RC	2	0	15VC 08MC	0	1	0.877020120621	-353.0	223.0	None	None	0
2.7	2015_Jun_09_1109	s	s	21	2	Capacity	39	ABS	2	0	16VC 08MC	0	1	0.960494041443	None	None	None	None	1
2.7	2015_Jun_09_1109	s	s	21	2	Capacity	40	ABS	1	0	08VC 16MC	0	1	2.5722091198	None	None	None	None	1
2.7	2015_Jun_09_1109	s	s	21	2	Capacity	41	RC	2	0	15VC 08MC	1	0	0.831232786179	-269.0	351.0	-273	360	1
2.7	2015_Jun_09_1109	s	s	21	2	Capacity	42	RC	1	0	08VC 15MC	1	0	1.05635714531	464.0	29.0	463	27	1
2.7	2015_Jun_09_1109	s	s	21	2	Capacity	43	ABS	2	0	16VC 08MC	0	1	1.21852993965	None	None	None	None	1
2.7	2015_Jun_09_1109	s	s	21	2	Capacity	44	ABS	1	0	08VC 16MC	0	1	0.983036994934	None	None	None	None	1
2.7	2015_Jun_09_1109	s	s	21	2	Capacity	45	RC	2	0	15VC 08MC	1	0	0.764480829239	-301.0	361.0	-300	354	1
2.7	2015_Jun_09_1109	s	s	21	2	Capacity	46	RC	1	0	08VC 15MC	1	0	1.32436919212	-442.0	304.0	-440	295	1
2.7	2015_Jun_09_1109	s	s	21	2	Capacity	47	ABS	1	0	08VC 16MC	0	1	1.0659070015	None	None	None	None	1
2.7	2015_Jun_09_1109	s	s	21	2	Capacity	48	ABS	2	0	16VC 08MC	0	1	1.52586913109	None	None	None	None	1
2.7	2015_Jun_09_1109	s	s	21	2	Capacity	49	RC	2	0	15VC 08MC	1	0	0.620882034302	55.0	-208.0	63	-212	1
2.7	2015_Jun_09_1109	s	s	21	2	Capacity	50	ABS	2	0	16VC 08MC	0	1	0.882208108902	None	None	None	None	1
2.7	2015_Jun_09_1109	s	s	21	2	Capacity	51	ABS	1	0	08VC 16MC	0	1	0.830139160156	None	None	None	None	1
2.7	2015_Jun_09_1109	s	s	21	2	Capacity	52	RC	1	0	08VC 15MC	1	0	1.07960605621	24.0	38.0	33	43	1
2.7	2015_Jun_09_1109	s	s	21	2	Capacity	53	ABS	1	0	08VC 16MC	0	1	0.726369857788	None	None	None	None	1
2.7	2015_Jun_09_1109	s	s	21	2	Capacity	54	RC	2	0	15VC 08MC	1	0	0.51235294342	-40.0	269.0	-37	264	1
2.7	2015_Jun_09_1109	s	s	21	2	Capacity	55	RC	1	0	08VC 15MC	1	0	0.562230110168	109.0	160.0	113	152	1
2.7	2015_Jun_09_1109	s	s	21	2	Capacity	56	ABS	2	0	16VC 08MC	0	1	0.771102905273	None	None	None	None	1
2.7	2015_Jun_09_1109	s	s	21	2	Capacity	57	ABS	2	0	16VC 08MC	0	1	1.01845216751	None	None	None	None	1
2.7	2015_Jun_09_1109	s	s	21	2	Capacity	58	RC	1	0	08VC 15MC	1	0	0.83155798912	462.0	211.0	467	207	1
2.7	2015_Jun_09_1109	s	s	21	2	Capacity	59	ABS	1	0	08VC 16MC	0	1	0.870506048203	None	None	None	None	1
2.7	2015_Jun_09_1109	s	s	21	2	Capacity	60	RC	2	0	15VC 08MC	1	0	0.594892024994	-275.0	-166.0	-275	-159	1
2.7	2015_Jun_09_1109	s	s	21	2	Capacity	61	RC	1	0	08VC 15MC	1	0	0.738614082336	-116.0	-100.0	-113	-114	1
2.7	2015_Jun_09_1109	s	s	21	2	Capacity	62	ABS	2	0	16VC 08MC	0	1	0.93305683136	None	None	None	None	1
2.7	2015_Jun_09_1109	s	s	21	2	Capacity	63	ABS	1	0	08VC 16MC	0	1	0.865993976593	None	None	None	None	1
2.7	2015_Jun_09_1109	s	s	21	2	Capacity	64	RC	2	0	15VC 08MC	0	1	1.01774406433	-442.0	-347.0	None	None	0
2.7	2015_Jun_09_1109	s	s	21	2	SIC	1	ABS	1	0	02VD 02VO 02VC 02MD 02MO 10MC 02RD 02RO	0	1	1.48005604744	None	None	None	None	1
2.7	2015_Jun_09_1109	s	s	21	2	SIC	2	RC	0	1	02VD 02VO 02VC 02MD 02MO 02MC 02RD 09RO	0	1	3.33041715622	-250.0	46.0	None	None	0
2.7	2015_Jun_09_1109	s	s	21	2	SIC	3	RC	2	1	02VD 09VO 02VC 02MD 02MO 02MC 02RD 02RO	1	0	1.52959108353	-477.0	-155.0	-477	-160	1
2.7	2015_Jun_09_1109	s	s	21	2	SIC	4	ABS	0	1	02VD 02VO 02VC 02MD 02MO 02MC 02RD 10RO	0	1	2.34167504311	None	None	None	None	1
2.7	2015_Jun_09_1109	s	s	21	2	SIC	5	RC	1	1	02VD 02VO 02VC 02MD 09MO 02MC 02RD 02RO	1	0	0.937469959259	-523.0	245.0	-522	249	1
2.7	2015_Jun_09_1109	s	s	21	2	SIC	6	RC	0	2	02VD 02VO 02VC 02MD 02MO 02MC 09RD 02RO	1	0	0.976313114166	-295.0	276.0	-295	269	1
2.7	2015_Jun_09_1109	s	s	21	2	SIC	7	ABS	1	2	02VD 02VO 02VC 10MD 02MO 02MC 02RD 02RO	0	1	0.976399183273	None	None	None	None	1
2.7	2015_Jun_09_1109	s	s	21	2	SIC	8	ABS	2	2	10VD 02VO 02VC 02MD 02MO 02MC 02RD 02RO	1	0	0.646773099899	None	None	-35	0	0
2.7	2015_Jun_09_1109	s	s	21	2	SIC	9	RC	2	0	02VD 02VO 09VC 02MD 02MO 02MC 02RD 02RO	1	0	1.262611866	-296.0	249.0	-295	247	1
2.7	2015_Jun_09_1109	s	s	21	2	SIC	10	RC	2	2	09VD 02VO 02VC 02MD 02MO 02MC 02RD 02RO	1	0	0.665428161621	-112.0	-136.0	-112	-136	1
2.7	2015_Jun_09_1109	s	s	21	2	SIC	11	RC	1	2	02VD 02VO 02VC 09MD 02MO 02MC 02RD 02RO	1	0	1.3357129097	-247.0	16.0	-239	25	1
2.7	2015_Jun_09_1109	s	s	21	2	SIC	12	ABS	1	1	02VD 02VO 02VC 02MD 10MO 02MC 02RD 02RO	0	1	1.54136300087	None	None	None	None	1
2.7	2015_Jun_09_1109	s	s	21	2	SIC	13	ABS	0	2	02VD 02VO 02VC 02MD 02MO 02MC 10RD 02RO	0	1	1.44721102715	None	None	None	None	1
2.7	2015_Jun_09_1109	s	s	21	2	SIC	14	ABS	2	0	02VD 02VO 10VC 02MD 02MO 02MC 02RD 02RO	0	1	1.84734010696	None	None	None	None	1
2.7	2015_Jun_09_1109	s	s	21	2	SIC	15	ABS	2	1	02VD 10VO 02VC 02MD 02MO 02MC 02RD 02RO	0	1	1.92975401878	None	None	None	None	1
2.7	2015_Jun_09_1109	s	s	21	2	SIC	16	RC	1	0	02VD 02VO 02VC 02MD 02MO 09MC 02RD 02RO	1	0	0.820580005646	-324.0	333.0	-321	322	1
2.7	2015_Jun_09_1109	s	s	21	2	SIC	17	ABS	2	0	02VD 02VO 10VC 02MD 02MO 02MC 02RD 02RO	0	1	1.21836495399	None	None	None	None	1
2.7	2015_Jun_09_1109	s	s	21	2	SIC	18	ABS	1	1	02VD 02VO 02VC 02MD 10MO 02MC 02RD 02RO	0	1	1.51497793198	None	None	None	None	1
2.7	2015_Jun_09_1109	s	s	21	2	SIC	19	RC	2	1	02VD 09VO 02VC 02MD 02MO 02MC 02RD 02RO	1	0	1.65436601639	-535.0	-364.0	-533	-365	1
2.7	2015_Jun_09_1109	s	s	21	2	SIC	20	RC	1	0	02VD 02VO 02VC 02MD 02MO 09MC 02RD 02RO	1	0	0.952815055847	91.0	220.0	94	210	1
2.7	2015_Jun_09_1109	s	s	21	2	SIC	21	ABS	1	2	02VD 02VO 02VC 10MD 02MO 02MC 02RD 02RO	0	1	1.02345108986	None	None	None	None	1
2.7	2015_Jun_09_1109	s	s	21	2	SIC	22	RC	1	2	02VD 02VO 02VC 09MD 02MO 02MC 02RD 02RO	1	0	0.85517001152	-321.0	284.0	-315	283	1
2.7	2015_Jun_09_1109	s	s	21	2	SIC	23	ABS	0	1	02VD 02VO 02VC 02MD 02MO 02MC 02RD 10RO	0	1	2.67131400108	None	None	None	None	1
2.7	2015_Jun_09_1109	s	s	21	2	SIC	24	RC	2	2	09VD 02VO 02VC 02MD 02MO 02MC 02RD 02RO	1	0	0.665900945663	-45.0	122.0	-48	110	1
2.7	2015_Jun_09_1109	s	s	21	2	SIC	25	ABS	1	0	02VD 02VO 02VC 02MD 02MO 10MC 02RD 02RO	0	1	1.63213801384	None	None	None	None	1
2.7	2015_Jun_09_1109	s	s	21	2	SIC	26	RC	2	0	02VD 02VO 09VC 02MD 02MO 02MC 02RD 02RO	1	0	0.976319074631	-521.0	402.0	-517	399	1
2.7	2015_Jun_09_1109	s	s	21	2	SIC	27	RC	1	1	02VD 02VO 02VC 02MD 09MO 02MC 02RD 02RO	0	1	1.08904695511	-469.0	-289.0	None	None	0
2.7	2015_Jun_09_1109	s	s	21	2	SIC	28	RC	0	1	02VD 02VO 02VC 02MD 02MO 02MC 02RD 09RO	0	1	1.8776538372	375.0	349.0	None	None	0
2.7	2015_Jun_09_1109	s	s	21	2	SIC	29	ABS	0	2	02VD 02VO 02VC 02MD 02MO 02MC 10RD 02RO	0	1	1.64726495743	None	None	None	None	1
2.7	2015_Jun_09_1109	s	s	21	2	SIC	30	RC	0	2	02VD 02VO 02VC 02MD 02MO 02MC 09RD 02RO	0	1	2.9605820179	512.0	271.0	None	None	0
2.7	2015_Jun_09_1109	s	s	21	2	SIC	31	ABS	2	1	02VD 10VO 02VC 02MD 02MO 02MC 02RD 02RO	0	1	2.07096099854	None	None	None	None	1
2.7	2015_Jun_09_1109	s	s	21	2	SIC	32	ABS	2	2	10VD 02VO 02VC 02MD 02MO 02MC 02RD 02RO	0	1	1.5413081646	None	None	None	None	1
2.7	2015_Jun_09_1109	s	s	21	2	SIC	33	RC	2	0	02VD 02VO 09VC 02MD 02MO 02MC 02RD 02RO	1	0	0.8351521492	-283.0	-186.0	-280	-188	1
2.7	2015_Jun_09_1109	s	s	21	2	SIC	34	ABS	1	1	02VD 02VO 02VC 02MD 10MO 02MC 02RD 02RO	0	1	2.11302495003	None	None	None	None	1
2.7	2015_Jun_09_1109	s	s	21	2	SIC	35	ABS	2	0	02VD 02VO 10VC 02MD 02MO 02MC 02RD 02RO	0	1	2.07100701332	None	None	None	None	1
2.7	2015_Jun_09_1109	s	s	21	2	SIC	36	RC	1	0	02VD 02VO 02VC 02MD 02MO 09MC 02RD 02RO	1	0	1.44136309624	20.0	319.0	26	323	1
2.7	2015_Jun_09_1109	s	s	21	2	SIC	37	RC	0	1	02VD 02VO 02VC 02MD 02MO 02MC 02RD 09RO	0	1	2.57377386093	-317.0	324.0	None	None	0
2.7	2015_Jun_09_1109	s	s	21	2	SIC	38	RC	1	2	02VD 02VO 02VC 09MD 02MO 02MC 02RD 02RO	1	0	0.693812131882	-155.0	66.0	-154	65	1
2.7	2015_Jun_09_1109	s	s	21	2	SIC	39	RC	2	1	02VD 09VO 02VC 02MD 02MO 02MC 02RD 02RO	1	0	2.20051598549	-217.0	-329.0	-214	-332	1
2.7	2015_Jun_09_1109	s	s	21	2	SIC	40	RC	2	2	09VD 02VO 02VC 02MD 02MO 02MC 02RD 02RO	1	0	0.976312875748	-427.0	-228.0	-428	-234	1
2.7	2015_Jun_09_1109	s	s	21	2	SIC	41	ABS	2	1	02VD 10VO 02VC 02MD 02MO 02MC 02RD 02RO	0	1	1.75325298309	None	None	None	None	1
2.7	2015_Jun_09_1109	s	s	21	2	SIC	42	ABS	0	2	02VD 02VO 02VC 02MD 02MO 02MC 10RD 02RO	0	1	2.47793984413	None	None	None	None	1
2.7	2015_Jun_09_1109	s	s	21	2	SIC	43	ABS	1	0	02VD 02VO 02VC 02MD 02MO 10MC 02RD 02RO	0	1	2.24263811111	None	None	None	None	1
2.7	2015_Jun_09_1109	s	s	21	2	SIC	44	RC	1	1	02VD 02VO 02VC 02MD 09MO 02MC 02RD 02RO	1	0	1.05873584747	-432.0	110.0	-426	106	1
2.7	2015_Jun_09_1109	s	s	21	2	SIC	45	ABS	1	2	02VD 02VO 02VC 10MD 02MO 02MC 02RD 02RO	0	1	1.79782509804	None	None	None	None	1
2.7	2015_Jun_09_1109	s	s	21	2	SIC	46	RC	0	2	02VD 02VO 02VC 02MD 02MO 02MC 09RD 02RO	1	0	1.35305905342	-528.0	-239.0	-524	-240	1
2.7	2015_Jun_09_1109	s	s	21	2	SIC	47	ABS	0	1	02VD 02VO 02VC 02MD 02MO 02MC 02RD 10RO	0	1	2.3366060257	None	None	None	None	1
2.7	2015_Jun_09_1109	s	s	21	2	SIC	48	ABS	2	2	10VD 02VO 02VC 02MD 02MO 02MC 02RD 02RO	0	1	1.27733707428	None	None	None	None	1
2.7	2015_Jun_09_1109	s	s	21	2	SIC	49	ABS	1	0	02VD 02VO 02VC 02MD 02MO 10MC 02RD 02RO	0	1	2.4477148056	None	None	None	None	1
2.7	2015_Jun_09_1109	s	s	21	2	SIC	50	RC	1	2	02VD 02VO 02VC 09MD 02MO 02MC 02RD 02RO	0	1	1.72440910339	360.0	-366.0	None	None	0
2.7	2015_Jun_09_1109	s	s	21	2	SIC	51	RC	1	1	02VD 02VO 02VC 02MD 09MO 02MC 02RD 02RO	1	0	3.12546086311	246.0	-282.0	244	-277	1
2.7	2015_Jun_09_1109	s	s	21	2	SIC	52	ABS	1	1	02VD 02VO 02VC 02MD 10MO 02MC 02RD 02RO	0	1	1.65905594826	None	None	None	None	1
2.7	2015_Jun_09_1109	s	s	21	2	SIC	53	ABS	1	2	02VD 02VO 02VC 10MD 02MO 02MC 02RD 02RO	0	1	1.71453022957	None	None	None	None	1
2.7	2015_Jun_09_1109	s	s	21	2	SIC	54	RC	0	1	02VD 02VO 02VC 02MD 02MO 02MC 02RD 09RO	0	1	2.25508713722	106.0	136.0	None	None	0
2.7	2015_Jun_09_1109	s	s	21	2	SIC	55	ABS	2	0	02VD 02VO 10VC 02MD 02MO 02MC 02RD 02RO	0	1	1.61928915977	None	None	None	None	1
2.7	2015_Jun_09_1109	s	s	21	2	SIC	56	RC	1	0	02VD 02VO 02VC 02MD 02MO 09MC 02RD 02RO	1	0	0.748257875443	-76.0	133.0	-74	122	1
2.7	2015_Jun_09_1109	s	s	21	2	SIC	57	RC	0	2	02VD 02VO 02VC 02MD 02MO 02MC 09RD 02RO	1	0	0.840341091156	-524.0	312.0	-524	308	1
2.7	2015_Jun_09_1109	s	s	21	2	SIC	58	ABS	2	2	10VD 02VO 02VC 02MD 02MO 02MC 02RD 02RO	0	1	2.72669196129	None	None	None	None	1
2.7	2015_Jun_09_1109	s	s	21	2	SIC	59	RC	2	1	02VD 09VO 02VC 02MD 02MO 02MC 02RD 02RO	1	0	1.38829898834	316.0	-17.0	325	-17	1
2.7	2015_Jun_09_1109	s	s	21	2	SIC	60	ABS	0	2	02VD 02VO 02VC 02MD 02MO 02MC 10RD 02RO	0	1	1.68932294846	None	None	None	None	1
2.7	2015_Jun_09_1109	s	s	21	2	SIC	61	RC	2	0	02VD 02VO 09VC 02MD 02MO 02MC 02RD 02RO	1	0	1.52612900734	67.0	271.0	63	272	1
2.7	2015_Jun_09_1109	s	s	21	2	SIC	62	ABS	0	1	02VD 02VO 02VC 02MD 02MO 02MC 02RD 10RO	0	1	2.48917913437	None	None	None	None	1
2.7	2015_Jun_09_1109	s	s	21	2	SIC	63	ABS	2	1	02VD 10VO 02VC 02MD 02MO 02MC 02RD 02RO	0	1	1.3530189991	None	None	None	None	1
2.7	2015_Jun_09_1109	s	s	21	2	SIC	64	RC	2	2	09VD 02VO 02VC 02MD 02MO 02MC 02RD 02RO	0	1	1.72966504097	347.0	364.0	None	None	0
2.7	2015_Jun_09_1109	s	s	21	2	SIC	65	ABS	2	0	02VD 02VO 10VC 02MD 02MO 02MC 02RD 02RO	0	1	2.05424404144	None	None	None	None	1
2.7	2015_Jun_09_1109	s	s	21	2	SIC	66	RC	0	2	02VD 02VO 02VC 02MD 02MO 02MC 09RD 02RO	0	1	2.00415110588	122.0	90.0	None	None	0
2.7	2015_Jun_09_1109	s	s	21	2	SIC	67	RC	2	1	02VD 09VO 02VC 02MD 02MO 02MC 02RD 02RO	1	0	0.84192109108	-434.0	307.0	-442	305	1
2.7	2015_Jun_09_1109	s	s	21	2	SIC	68	RC	1	0	02VD 02VO 02VC 02MD 02MO 09MC 02RD 02RO	1	0	2.3364379406	378.0	-408.0	385	-410	1
2.7	2015_Jun_09_1109	s	s	21	2	SIC	69	ABS	0	2	02VD 02VO 02VC 02MD 02MO 02MC 10RD 02RO	0	1	1.53368401527	None	None	None	None	1
2.7	2015_Jun_09_1109	s	s	21	2	SIC	70	ABS	2	2	10VD 02VO 02VC 02MD 02MO 02MC 02RD 02RO	0	1	1.58844590187	None	None	None	None	1
2.7	2015_Jun_09_1109	s	s	21	2	SIC	71	ABS	0	1	02VD 02VO 02VC 02MD 02MO 02MC 02RD 10RO	0	1	2.86690020561	None	None	None	None	1
2.7	2015_Jun_09_1109	s	s	21	2	SIC	72	ABS	1	2	02VD 02VO 02VC 10MD 02MO 02MC 02RD 02RO	0	1	1.83584117889	None	None	None	None	1
2.7	2015_Jun_09_1109	s	s	21	2	SIC	73	RC	1	2	02VD 02VO 02VC 09MD 02MO 02MC 02RD 02RO	1	0	0.93607878685	110.0	-205.0	107	-200	1
2.7	2015_Jun_09_1109	s	s	21	2	SIC	74	RC	0	1	02VD 02VO 02VC 02MD 02MO 02MC 02RD 09RO	0	1	3.01300191879	-282.0	52.0	None	None	0
2.7	2015_Jun_09_1109	s	s	21	2	SIC	75	RC	2	0	02VD 02VO 09VC 02MD 02MO 02MC 02RD 02RO	1	0	1.42364096642	197.0	-241.0	194	-246	1
2.7	2015_Jun_09_1109	s	s	21	2	SIC	76	ABS	1	1	02VD 02VO 02VC 02MD 10MO 02MC 02RD 02RO	0	1	2.38302397728	None	None	None	None	1
2.7	2015_Jun_09_1109	s	s	21	2	SIC	77	ABS	2	1	02VD 10VO 02VC 02MD 02MO 02MC 02RD 02RO	0	1	1.84733510017	None	None	None	None	1
2.7	2015_Jun_09_1109	s	s	21	2	SIC	78	ABS	1	0	02VD 02VO 02VC 02MD 02MO 10MC 02RD 02RO	0	1	1.28923177719	None	None	None	None	1
2.7	2015_Jun_09_1109	s	s	21	2	SIC	79	RC	1	1	02VD 02VO 02VC 02MD 09MO 02MC 02RD 02RO	1	0	0.890696048737	-493.0	236.0	-492	243	1
2.7	2015_Jun_09_1109	s	s	21	2	SIC	80	RC	2	2	09VD 02VO 02VC 02MD 02MO 02MC 02RD 02RO	1	0	1.50352692604	270.0	-139.0	274	-146	1
2.7	2015_Jun_09_1109	s	s	21	2	SIC	81	ABS	1	0	02VD 02VO 02VC 02MD 02MO 10MC 02RD 02RO	0	1	1.88023114204	None	None	None	None	1
2.7	2015_Jun_09_1109	s	s	21	2	SIC	82	ABS	1	1	02VD 02VO 02VC 02MD 10MO 02MC 02RD 02RO	0	1	2.40763998032	None	None	None	None	1
2.7	2015_Jun_09_1109	s	s	21	2	SIC	83	ABS	2	1	02VD 10VO 02VC 02MD 02MO 02MC 02RD 02RO	0	1	1.59582901001	None	None	None	None	1
2.7	2015_Jun_09_1109	s	s	21	2	SIC	84	RC	2	1	02VD 09VO 02VC 02MD 02MO 02MC 02RD 02RO	1	0	1.77748799324	220.0	-291.0	217	-295	1
2.7	2015_Jun_09_1109	s	s	21	2	SIC	85	ABS	1	2	02VD 02VO 02VC 10MD 02MO 02MC 02RD 02RO	0	1	1.71465992928	None	None	None	None	1
2.7	2015_Jun_09_1109	s	s	21	2	SIC	86	RC	0	1	02VD 02VO 02VC 02MD 02MO 02MC 02RD 09RO	0	1	3.00868105888	258.0	241.0	None	None	0
2.7	2015_Jun_09_1109	s	s	21	2	SIC	87	RC	1	1	02VD 02VO 02VC 02MD 09MO 02MC 02RD 02RO	1	0	1.77185511589	373.0	-410.0	371	-421	1
2.7	2015_Jun_09_1109	s	s	21	2	SIC	88	RC	2	0	02VD 02VO 09VC 02MD 02MO 02MC 02RD 02RO	1	0	1.32469201088	361.0	283.0	353	285	1
2.7	2015_Jun_09_1109	s	s	21	2	SIC	89	RC	0	2	02VD 02VO 02VC 02MD 02MO 02MC 09RD 02RO	1	0	1.64241504669	-430.0	-38.0	-432	-43	1
2.7	2015_Jun_09_1109	s	s	21	2	SIC	90	ABS	2	0	02VD 02VO 10VC 02MD 02MO 02MC 02RD 02RO	0	1	1.07986211777	None	None	None	None	1
2.7	2015_Jun_09_1109	s	s	21	2	SIC	91	RC	2	2	09VD 02VO 02VC 02MD 02MO 02MC 02RD 02RO	1	0	0.905757904053	320.0	-12.0	329	-13	1
2.7	2015_Jun_09_1109	s	s	21	2	SIC	92	RC	1	0	02VD 02VO 02VC 02MD 02MO 09MC 02RD 02RO	1	0	0.64196395874	-36.0	-65.0	-26	-67	1
2.7	2015_Jun_09_1109	s	s	21	2	SIC	93	RC	1	2	02VD 02VO 02VC 09MD 02MO 02MC 02RD 02RO	1	0	0.971663951874	-394.0	125.0	-397	126	1
2.7	2015_Jun_09_1109	s	s	21	2	SIC	94	ABS	0	1	02VD 02VO 02VC 02MD 02MO 02MC 02RD 10RO	0	1	1.78838801384	None	None	None	None	1
2.7	2015_Jun_09_1109	s	s	21	2	SIC	95	ABS	0	2	02VD 02VO 02VC 02MD 02MO 02MC 10RD 02RO	0	1	1.04373002052	None	None	None	None	1
2.7	2015_Jun_09_1109	s	s	21	2	SIC	96	ABS	2	2	10VD 02VO 02VC 02MD 02MO 02MC 02RD 02RO	0	1	1.82380795479	None	None	None	None	1
2.7	2015_Jun_09_1109	s	s	21	2	SIC	97	RC	2	1	02VD 09VO 02VC 02MD 02MO 02MC 02RD 02RO	1	0	1.23529791832	403.0	204.0	405	198	1
2.7	2015_Jun_09_1109	s	s	21	2	SIC	98	RC	2	0	02VD 02VO 09VC 02MD 02MO 02MC 02RD 02RO	1	0	1.53617310524	369.0	-303.0	373	-305	1
2.7	2015_Jun_09_1109	s	s	21	2	SIC	99	ABS	1	2	02VD 02VO 02VC 10MD 02MO 02MC 02RD 02RO	0	1	1.65899896622	None	None	None	None	1
2.7	2015_Jun_09_1109	s	s	21	2	SIC	100	RC	2	2	09VD 02VO 02VC 02MD 02MO 02MC 02RD 02RO	1	0	1.49427509308	41.0	-212.0	38	-212	1
2.7	2015_Jun_09_1109	s	s	21	2	SIC	101	ABS	2	1	02VD 10VO 02VC 02MD 02MO 02MC 02RD 02RO	0	1	1.27055215836	None	None	None	None	1
2.7	2015_Jun_09_1109	s	s	21	2	SIC	102	ABS	1	0	02VD 02VO 02VC 02MD 02MO 10MC 02RD 02RO	0	1	1.71295404434	None	None	None	None	1
2.7	2015_Jun_09_1109	s	s	21	2	SIC	103	ABS	0	2	02VD 02VO 02VC 02MD 02MO 02MC 10RD 02RO	0	1	1.10583305359	None	None	None	None	1
2.7	2015_Jun_09_1109	s	s	21	2	SIC	104	ABS	0	1	02VD 02VO 02VC 02MD 02MO 02MC 02RD 10RO	0	1	1.1293489933	None	None	None	None	1
2.7	2015_Jun_09_1109	s	s	21	2	SIC	105	RC	0	2	02VD 02VO 02VC 02MD 02MO 02MC 09RD 02RO	0	1	1.24202799797	274.0	254.0	None	None	0
2.7	2015_Jun_09_1109	s	s	21	2	SIC	106	ABS	2	2	10VD 02VO 02VC 02MD 02MO 02MC 02RD 02RO	0	1	1.18315720558	None	None	None	None	1
2.7	2015_Jun_09_1109	s	s	21	2	SIC	107	ABS	2	0	02VD 02VO 10VC 02MD 02MO 02MC 02RD 02RO	0	1	1.46585679054	None	None	None	None	1
2.7	2015_Jun_09_1109	s	s	21	2	SIC	108	RC	1	1	02VD 02VO 02VC 02MD 09MO 02MC 02RD 02RO	1	0	1.18821597099	-494.0	285.0	-501	279	1
2.7	2015_Jun_09_1109	s	s	21	2	SIC	109	RC	1	0	02VD 02VO 02VC 02MD 02MO 09MC 02RD 02RO	0	1	1.17639899254	-249.0	37.0	None	None	0
2.7	2015_Jun_09_1109	s	s	21	2	SIC	110	RC	0	1	02VD 02VO 02VC 02MD 02MO 02MC 02RD 09RO	1	0	1.10304093361	-124.0	218.0	-119	214	1
2.7	2015_Jun_09_1109	s	s	21	2	SIC	111	RC	1	2	02VD 02VO 02VC 09MD 02MO 02MC 02RD 02RO	1	0	0.752727985382	-194.0	244.0	-188	239	1
2.7	2015_Jun_09_1109	s	s	21	2	SIC	112	ABS	1	1	02VD 02VO 02VC 02MD 10MO 02MC 02RD 02RO	0	1	1.12488698959	None	None	None	None	1
2.7	2015_Jun_09_1109	s	s	21	2	SIC	113	ABS	0	1	02VD 02VO 02VC 02MD 02MO 02MC 02RD 10RO	0	1	1.36049103737	None	None	None	None	1
2.7	2015_Jun_09_1109	s	s	21	2	SIC	114	ABS	1	2	02VD 02VO 02VC 10MD 02MO 02MC 02RD 02RO	0	1	0.959542036057	None	None	None	None	1
2.7	2015_Jun_09_1109	s	s	21	2	SIC	115	RC	0	2	02VD 02VO 02VC 02MD 02MO 02MC 09RD 02RO	1	0	1.23045802116	-457.0	386.0	-459	379	1
2.7	2015_Jun_09_1109	s	s	21	2	SIC	116	RC	2	1	02VD 09VO 02VC 02MD 02MO 02MC 02RD 02RO	1	0	0.823406934738	155.0	122.0	146	118	1
2.7	2015_Jun_09_1109	s	s	21	2	SIC	117	RC	2	2	09VD 02VO 02VC 02MD 02MO 02MC 02RD 02RO	1	0	0.582813024521	-157.0	0.0	-153	-9	1
2.7	2015_Jun_09_1109	s	s	21	2	SIC	118	ABS	2	2	10VD 02VO 02VC 02MD 02MO 02MC 02RD 02RO	0	1	1.13727402687	None	None	None	None	1
2.7	2015_Jun_09_1109	s	s	21	2	SIC	119	ABS	2	1	02VD 10VO 02VC 02MD 02MO 02MC 02RD 02RO	0	1	1.07751607895	None	None	None	None	1
2.7	2015_Jun_09_1109	s	s	21	2	SIC	120	ABS	1	0	02VD 02VO 02VC 02MD 02MO 10MC 02RD 02RO	0	1	1.26545596123	None	None	None	None	1
2.7	2015_Jun_09_1109	s	s	21	2	SIC	121	ABS	2	0	02VD 02VO 10VC 02MD 02MO 02MC 02RD 02RO	0	1	1.35969996452	None	None	None	None	1
2.7	2015_Jun_09_1109	s	s	21	2	SIC	122	RC	2	0	02VD 02VO 09VC 02MD 02MO 02MC 02RD 02RO	1	0	0.536448001862	21.0	125.0	24	118	1
2.7	2015_Jun_09_1109	s	s	21	2	SIC	123	RC	1	1	02VD 02VO 02VC 02MD 09MO 02MC 02RD 02RO	0	1	0.819893121719	252.0	-277.0	None	None	0
2.7	2015_Jun_09_1109	s	s	21	2	SIC	124	RC	0	1	02VD 02VO 02VC 02MD 02MO 02MC 02RD 09RO	0	1	0.846875190735	367.0	-185.0	None	None	0
2.7	2015_Jun_09_1109	s	s	21	2	SIC	125	ABS	0	2	02VD 02VO 02VC 02MD 02MO 02MC 10RD 02RO	0	1	0.944785833359	None	None	None	None	1
2.7	2015_Jun_09_1109	s	s	21	2	SIC	126	RC	1	0	02VD 02VO 02VC 02MD 02MO 09MC 02RD 02RO	1	0	2.0242869854	511.0	-179.0	515	-182	1
2.7	2015_Jun_09_1109	s	s	21	2	SIC	127	RC	1	2	02VD 02VO 02VC 09MD 02MO 02MC 02RD 02RO	1	0	0.712926864624	-129.0	-46.0	-131	-47	1
2.7	2015_Jun_09_1109	s	s	21	2	SIC	128	ABS	1	1	02VD 02VO 02VC 02MD 10MO 02MC 02RD 02RO	0	1	1.12434387207	None	None	None	None	1
2.7	2015_Jun_09_1109	s	s	21	2	SIC	129	RC	2	2	09VD 02VO 02VC 02MD 02MO 02MC 02RD 02RO	0	1	1.35296678543	-378.0	-315.0	None	None	0
2.7	2015_Jun_09_1109	s	s	21	2	SIC	130	ABS	1	2	02VD 02VO 02VC 10MD 02MO 02MC 02RD 02RO	0	1	1.47449183464	None	None	None	None	1
2.7	2015_Jun_09_1109	s	s	21	2	SIC	131	ABS	1	1	02VD 02VO 02VC 02MD 10MO 02MC 02RD 02RO	0	1	2.14169287682	None	None	None	None	1
2.7	2015_Jun_09_1109	s	s	21	2	SIC	132	RC	0	1	02VD 02VO 02VC 02MD 02MO 02MC 02RD 09RO	0	1	2.77724599838	379.0	-4.0	None	None	0
2.7	2015_Jun_09_1109	s	s	21	2	SIC	133	RC	1	2	02VD 02VO 02VC 09MD 02MO 02MC 02RD 02RO	1	0	1.2038629055	-456.0	162.0	-459	161	1
2.7	2015_Jun_09_1109	s	s	21	2	SIC	134	ABS	2	1	02VD 10VO 02VC 02MD 02MO 02MC 02RD 02RO	0	1	0.823148965836	None	None	None	None	1
2.7	2015_Jun_09_1109	s	s	21	2	SIC	135	ABS	0	2	02VD 02VO 02VC 02MD 02MO 02MC 10RD 02RO	0	1	2.17235708237	None	None	None	None	1
2.7	2015_Jun_09_1109	s	s	21	2	SIC	136	RC	2	0	02VD 02VO 09VC 02MD 02MO 02MC 02RD 02RO	1	0	0.795335054398	490.0	97.0	-196	239	0
2.7	2015_Jun_09_1109	s	s	21	2	SIC	137	ABS	0	1	02VD 02VO 02VC 02MD 02MO 02MC 02RD 10RO	0	1	1.58557105064	None	None	None	None	1
2.7	2015_Jun_09_1109	s	s	21	2	SIC	138	RC	1	1	02VD 02VO 02VC 02MD 09MO 02MC 02RD 02RO	0	1	1.32443499565	109.0	217.0	None	None	0
2.7	2015_Jun_09_1109	s	s	21	2	SIC	139	ABS	1	0	02VD 02VO 02VC 02MD 02MO 10MC 02RD 02RO	0	1	2.00036287308	None	None	None	None	1
2.7	2015_Jun_09_1109	s	s	21	2	SIC	140	RC	0	2	02VD 02VO 02VC 02MD 02MO 02MC 09RD 02RO	1	0	1.3685400486	-467.0	334.0	-469	339	1
2.7	2015_Jun_09_1109	s	s	21	2	SIC	141	ABS	2	2	10VD 02VO 02VC 02MD 02MO 02MC 02RD 02RO	0	1	1.83211898804	None	None	None	None	1
2.7	2015_Jun_09_1109	s	s	21	2	SIC	142	ABS	2	0	02VD 02VO 10VC 02MD 02MO 02MC 02RD 02RO	0	1	1.85483908653	None	None	None	None	1
2.7	2015_Jun_09_1109	s	s	21	2	SIC	143	RC	2	1	02VD 09VO 02VC 02MD 02MO 02MC 02RD 02RO	1	0	1.30122303963	150.0	326.0	146	320	1
2.7	2015_Jun_09_1109	s	s	21	2	SIC	144	RC	1	0	02VD 02VO 02VC 02MD 02MO 09MC 02RD 02RO	1	0	0.995579004288	-348.0	187.0	-349	188	1
2.7	2015_Jun_09_1109	s	s	21	2	SIC	145	RC	2	0	02VD 02VO 09VC 02MD 02MO 02MC 02RD 02RO	1	0	0.68203997612	271.0	18.0	273	17	1
2.7	2015_Jun_09_1109	s	s	21	2	SIC	146	ABS	1	2	02VD 02VO 02VC 10MD 02MO 02MC 02RD 02RO	0	1	0.799747943878	None	None	None	None	1
2.7	2015_Jun_09_1109	s	s	21	2	SIC	147	ABS	1	0	02VD 02VO 02VC 02MD 02MO 10MC 02RD 02RO	0	1	1.01157212257	None	None	None	None	1
2.7	2015_Jun_09_1109	s	s	21	2	SIC	148	RC	0	1	02VD 02VO 02VC 02MD 02MO 02MC 02RD 09RO	1	0	0.846770048141	-475.0	366.0	-470	366	1
2.7	2015_Jun_09_1109	s	s	21	2	SIC	149	ABS	2	1	02VD 10VO 02VC 02MD 02MO 02MC 02RD 02RO	0	1	1.05382490158	None	None	None	None	1
2.7	2015_Jun_09_1109	s	s	21	2	SIC	150	ABS	1	1	02VD 02VO 02VC 02MD 10MO 02MC 02RD 02RO	0	1	1.04210186005	None	None	None	None	1
2.7	2015_Jun_09_1109	s	s	21	2	SIC	151	RC	0	2	02VD 02VO 02VC 02MD 02MO 02MC 09RD 02RO	1	0	1.81912899017	308.0	357.0	311	355	1
2.7	2015_Jun_09_1109	s	s	21	2	SIC	152	ABS	2	2	10VD 02VO 02VC 02MD 02MO 02MC 02RD 02RO	0	1	1.88905000687	None	None	None	None	1
2.7	2015_Jun_09_1109	s	s	21	2	SIC	153	ABS	0	2	02VD 02VO 02VC 02MD 02MO 02MC 10RD 02RO	0	1	1.48924612999	None	None	None	None	1
2.7	2015_Jun_09_1109	s	s	21	2	SIC	154	ABS	0	1	02VD 02VO 02VC 02MD 02MO 02MC 02RD 10RO	0	1	2.03340601921	None	None	None	None	1
2.7	2015_Jun_09_1109	s	s	21	2	SIC	155	ABS	2	0	02VD 02VO 10VC 02MD 02MO 02MC 02RD 02RO	0	1	1.59557890892	None	None	None	None	1
2.7	2015_Jun_09_1109	s	s	21	2	SIC	156	RC	1	2	02VD 02VO 02VC 09MD 02MO 02MC 02RD 02RO	0	1	1.13624691963	390.0	-402.0	None	None	0
2.7	2015_Jun_09_1109	s	s	21	2	SIC	157	RC	2	1	02VD 09VO 02VC 02MD 02MO 02MC 02RD 02RO	1	0	2.03060293198	-40.0	-249.0	-39	-247	1
2.7	2015_Jun_09_1109	s	s	21	2	SIC	158	RC	1	1	02VD 02VO 02VC 02MD 09MO 02MC 02RD 02RO	1	0	1.86632013321	373.0	251.0	377	250	1
2.7	2015_Jun_09_1109	s	s	21	2	SIC	159	RC	1	0	02VD 02VO 02VC 02MD 02MO 09MC 02RD 02RO	0	1	1.60020112991	288.0	344.0	None	None	0
2.7	2015_Jun_09_1109	s	s	21	2	SIC	160	RC	2	2	09VD 02VO 02VC 02MD 02MO 02MC 02RD 02RO	1	0	0.724627017975	-213.0	-66.0	-209	-75	1
2.7	2015_Jun_09_1109	s	s	21	2	SIC	161	RC	2	1	02VD 09VO 02VC 02MD 02MO 02MC 02RD 02RO	1	0	0.974222183228	-361.0	-22.0	-352	-20	1
2.7	2015_Jun_09_1109	s	s	21	2	SIC	162	RC	2	2	09VD 02VO 02VC 02MD 02MO 02MC 02RD 02RO	1	0	0.611464977264	-111.0	-76.0	-104	-69	1
2.7	2015_Jun_09_1109	s	s	21	2	SIC	163	ABS	2	0	02VD 02VO 10VC 02MD 02MO 02MC 02RD 02RO	0	1	1.80744504929	None	None	None	None	1
2.7	2015_Jun_09_1109	s	s	21	2	SIC	164	RC	2	0	02VD 02VO 09VC 02MD 02MO 02MC 02RD 02RO	0	1	1.93347096443	186.0	257.0	None	None	0
2.7	2015_Jun_09_1109	s	s	21	2	SIC	165	ABS	2	2	10VD 02VO 02VC 02MD 02MO 02MC 02RD 02RO	1	0	0.693893909454	None	None	-73	-87	0
2.7	2015_Jun_09_1109	s	s	21	2	SIC	166	ABS	1	2	02VD 02VO 02VC 10MD 02MO 02MC 02RD 02RO	0	1	1.39368104935	None	None	None	None	1
2.7	2015_Jun_09_1109	s	s	21	2	SIC	167	RC	1	0	02VD 02VO 02VC 02MD 02MO 09MC 02RD 02RO	0	1	1.30619597435	291.0	125.0	None	None	0
2.7	2015_Jun_09_1109	s	s	21	2	SIC	168	RC	1	2	02VD 02VO 02VC 09MD 02MO 02MC 02RD 02RO	0	1	1.22345399857	281.0	-355.0	None	None	0
2.7	2015_Jun_09_1109	s	s	21	2	SIC	169	ABS	1	0	02VD 02VO 02VC 02MD 02MO 10MC 02RD 02RO	0	1	2.00043606758	None	None	None	None	1
2.7	2015_Jun_09_1109	s	s	21	2	SIC	170	RC	0	2	02VD 02VO 02VC 02MD 02MO 02MC 09RD 02RO	1	0	1.92346215248	-13.0	-267.0	-14	-273	1
2.7	2015_Jun_09_1109	s	s	21	2	SIC	171	ABS	0	1	02VD 02VO 02VC 02MD 02MO 02MC 02RD 10RO	0	1	2.44263792038	None	None	None	None	1
2.7	2015_Jun_09_1109	s	s	21	2	SIC	172	ABS	2	1	02VD 10VO 02VC 02MD 02MO 02MC 02RD 02RO	0	1	1.93744802475	None	None	None	None	1
2.7	2015_Jun_09_1109	s	s	21	2	SIC	173	ABS	0	2	02VD 02VO 02VC 02MD 02MO 02MC 10RD 02RO	0	1	1.94151997566	None	None	None	None	1
2.7	2015_Jun_09_1109	s	s	21	2	SIC	174	RC	0	1	02VD 02VO 02VC 02MD 02MO 02MC 02RD 09RO	1	0	1.19529104233	-98.0	-162.0	-102	-161	1
2.7	2015_Jun_09_1109	s	s	21	2	SIC	175	RC	1	1	02VD 02VO 02VC 02MD 09MO 02MC 02RD 02RO	1	0	0.674082040787	6.0	-58.0	3	-60	1
2.7	2015_Jun_09_1109	s	s	21	2	SIC	176	ABS	1	1	02VD 02VO 02VC 02MD 10MO 02MC 02RD 02RO	0	1	1.85588908195	None	None	None	None	1
2.7	2015_Jun_09_1109	s	s	21	2	SIC	177	RC	1	1	02VD 02VO 02VC 02MD 09MO 02MC 02RD 02RO	1	0	1.05422902107	-114.0	-261.0	-113	-276	1
2.7	2015_Jun_09_1109	s	s	21	2	SIC	178	ABS	2	1	02VD 10VO 02VC 02MD 02MO 02MC 02RD 02RO	0	1	1.56017899513	None	None	None	None	1
2.7	2015_Jun_09_1109	s	s	21	2	SIC	179	RC	2	1	02VD 09VO 02VC 02MD 02MO 02MC 02RD 02RO	1	0	0.571137905121	-39.0	122.0	-38	112	1
2.7	2015_Jun_09_1109	s	s	21	2	SIC	180	ABS	1	1	02VD 02VO 02VC 02MD 10MO 02MC 02RD 02RO	0	1	0.878658056259	None	None	None	None	1
2.7	2015_Jun_09_1109	s	s	21	2	SIC	181	ABS	0	2	02VD 02VO 02VC 02MD 02MO 02MC 10RD 02RO	0	1	1.7531440258	None	None	None	None	1
2.7	2015_Jun_09_1109	s	s	21	2	SIC	182	ABS	2	2	10VD 02VO 02VC 02MD 02MO 02MC 02RD 02RO	0	1	1.85427379608	None	None	None	None	1
2.7	2015_Jun_09_1109	s	s	21	2	SIC	183	RC	0	2	02VD 02VO 02VC 02MD 02MO 02MC 09RD 02RO	0	1	1.00936102867	303.0	-70.0	None	None	0
2.7	2015_Jun_09_1109	s	s	21	2	SIC	184	RC	0	1	02VD 02VO 02VC 02MD 02MO 02MC 02RD 09RO	0	1	2.48297595978	503.0	-303.0	None	None	0
2.7	2015_Jun_09_1109	s	s	21	2	SIC	185	ABS	2	0	02VD 02VO 10VC 02MD 02MO 02MC 02RD 02RO	0	1	1.45902395248	None	None	None	None	1
2.7	2015_Jun_09_1109	s	s	21	2	SIC	186	RC	1	0	02VD 02VO 02VC 02MD 02MO 09MC 02RD 02RO	0	1	1.1717479229	330.0	15.0	None	None	0
2.7	2015_Jun_09_1109	s	s	21	2	SIC	187	RC	1	2	02VD 02VO 02VC 09MD 02MO 02MC 02RD 02RO	0	1	1.44725894928	-92.0	-402.0	None	None	0
2.7	2015_Jun_09_1109	s	s	21	2	SIC	188	ABS	1	2	02VD 02VO 02VC 10MD 02MO 02MC 02RD 02RO	0	1	1.06496310234	None	None	None	None	1
2.7	2015_Jun_09_1109	s	s	21	2	SIC	189	ABS	1	0	02VD 02VO 02VC 02MD 02MO 10MC 02RD 02RO	0	1	2.44761109352	None	None	None	None	1
2.7	2015_Jun_09_1109	s	s	21	2	SIC	190	RC	2	2	09VD 02VO 02VC 02MD 02MO 02MC 02RD 02RO	1	0	1.21171283722	503.0	189.0	503	193	1
2.7	2015_Jun_09_1109	s	s	21	2	SIC	191	RC	2	0	02VD 02VO 09VC 02MD 02MO 02MC 02RD 02RO	1	0	0.921252012253	-274.0	-157.0	-266	-160	1
2.7	2015_Jun_09_1109	s	s	21	2	SIC	192	ABS	0	1	02VD 02VO 02VC 02MD 02MO 02MC 02RD 10RO	0	1	1.6001060009	None	None	None	None	1
2.7	2015_Jun_09_1109	s	s	21	2	SIC	193	ABS	0	1	02VD 02VO 02VC 02MD 02MO 02MC 02RD 10RO	0	1	2.74795103073	None	None	None	None	1
2.7	2015_Jun_09_1109	s	s	21	2	SIC	194	ABS	2	0	02VD 02VO 10VC 02MD 02MO 02MC 02RD 02RO	0	1	1.19998002052	None	None	None	None	1
2.7	2015_Jun_09_1109	s	s	21	2	SIC	195	ABS	1	0	02VD 02VO 02VC 02MD 02MO 10MC 02RD 02RO	0	1	2.20052814484	None	None	None	None	1
2.7	2015_Jun_09_1109	s	s	21	2	SIC	196	ABS	1	2	02VD 02VO 02VC 10MD 02MO 02MC 02RD 02RO	0	1	1.69811677933	None	None	None	None	1
2.7	2015_Jun_09_1109	s	s	21	2	SIC	197	RC	2	0	02VD 02VO 09VC 02MD 02MO 02MC 02RD 02RO	1	0	0.835075139999	-111.0	-6.0	-111	-11	1
2.7	2015_Jun_09_1109	s	s	21	2	SIC	198	RC	0	1	02VD 02VO 02VC 02MD 02MO 02MC 02RD 09RO	1	0	1.19552779198	0.0	-45.0	0	-48	1
2.7	2015_Jun_09_1109	s	s	21	2	SIC	199	RC	1	0	02VD 02VO 02VC 02MD 02MO 09MC 02RD 02RO	1	0	0.846865177155	-147.0	-25.0	-142	-29	1
2.7	2015_Jun_09_1109	s	s	21	2	SIC	200	RC	0	2	02VD 02VO 02VC 02MD 02MO 02MC 09RD 02RO	0	1	2.23581409454	-75.0	-395.0	None	None	0
2.7	2015_Jun_09_1109	s	s	21	2	SIC	201	ABS	2	1	02VD 10VO 02VC 02MD 02MO 02MC 02RD 02RO	0	1	1.30340790749	None	None	None	None	1
2.7	2015_Jun_09_1109	s	s	21	2	SIC	202	RC	1	1	02VD 02VO 02VC 02MD 09MO 02MC 02RD 02RO	1	0	1.77172517776	489.0	118.0	495	111	1
2.7	2015_Jun_09_1109	s	s	21	2	SIC	203	RC	1	2	02VD 02VO 02VC 09MD 02MO 02MC 02RD 02RO	1	0	0.594754934311	-30.0	37.0	-27	35	1
2.7	2015_Jun_09_1109	s	s	21	2	SIC	204	ABS	1	1	02VD 02VO 02VC 02MD 10MO 02MC 02RD 02RO	0	1	1.76492404938	None	None	None	None	1
2.7	2015_Jun_09_1109	s	s	21	2	SIC	205	RC	2	1	02VD 09VO 02VC 02MD 02MO 02MC 02RD 02RO	1	0	1.54803395271	494.0	103.0	498	97	1
2.7	2015_Jun_09_1109	s	s	21	2	SIC	206	ABS	0	2	02VD 02VO 02VC 02MD 02MO 02MC 10RD 02RO	0	1	0.98331284523	None	None	None	None	1
2.7	2015_Jun_09_1109	s	s	21	2	SIC	207	RC	2	2	09VD 02VO 02VC 02MD 02MO 02MC 02RD 02RO	1	0	0.630202054977	-121.0	-200.0	-122	-201	1
2.7	2015_Jun_09_1109	s	s	21	2	SIC	208	ABS	2	2	10VD 02VO 02VC 02MD 02MO 02MC 02RD 02RO	0	1	1.3977022171	None	None	None	None	1
2.7	2015_Jun_09_1109	s	s	21	2	SIC	209	ABS	2	1	02VD 10VO 02VC 02MD 02MO 02MC 02RD 02RO	0	1	1.23530983925	None	None	None	None	1
2.7	2015_Jun_09_1109	s	s	21	2	SIC	210	RC	2	0	02VD 02VO 09VC 02MD 02MO 02MC 02RD 02RO	0	1	1.56485509872	491.0	-265.0	None	None	0
2.7	2015_Jun_09_1109	s	s	21	2	SIC	211	RC	2	1	02VD 09VO 02VC 02MD 02MO 02MC 02RD 02RO	1	0	1.07889699936	-162.0	363.0	-169	357	1
2.7	2015_Jun_09_1109	s	s	21	2	SIC	212	ABS	0	1	02VD 02VO 02VC 02MD 02MO 02MC 02RD 10RO	0	1	2.71336197853	None	None	None	None	1
2.7	2015_Jun_09_1109	s	s	21	2	SIC	213	ABS	1	2	02VD 02VO 02VC 10MD 02MO 02MC 02RD 02RO	0	1	0.98818898201	None	None	None	None	1
2.7	2015_Jun_09_1109	s	s	21	2	SIC	214	ABS	0	2	02VD 02VO 02VC 02MD 02MO 02MC 10RD 02RO	0	1	0.988090991974	None	None	None	None	1
2.7	2015_Jun_09_1109	s	s	21	2	SIC	215	RC	0	1	02VD 02VO 02VC 02MD 02MO 02MC 02RD 09RO	0	1	1.85342717171	-25.0	-348.0	None	None	0
2.7	2015_Jun_09_1109	s	s	21	2	SIC	216	RC	0	2	02VD 02VO 02VC 02MD 02MO 02MC 09RD 02RO	1	0	2.20978307724	-255.0	217.0	-253	208	1
2.7	2015_Jun_09_1109	s	s	21	2	SIC	217	ABS	1	1	02VD 02VO 02VC 02MD 10MO 02MC 02RD 02RO	0	1	2.40694093704	None	None	None	None	1
2.7	2015_Jun_09_1109	s	s	21	2	SIC	218	RC	1	0	02VD 02VO 02VC 02MD 02MO 09MC 02RD 02RO	1	0	1.7938170433	-445.0	-410.0	-453	-408	1
2.7	2015_Jun_09_1109	s	s	21	2	SIC	219	RC	1	1	02VD 02VO 02VC 02MD 09MO 02MC 02RD 02RO	1	0	1.19996809959	-288.0	-380.0	-286	-384	1
2.7	2015_Jun_09_1109	s	s	21	2	SIC	220	ABS	2	0	02VD 02VO 10VC 02MD 02MO 02MC 02RD 02RO	0	1	1.51458191872	None	None	None	None	1
2.7	2015_Jun_09_1109	s	s	21	2	SIC	221	RC	1	2	02VD 02VO 02VC 09MD 02MO 02MC 02RD 02RO	1	0	2.30643105507	483.0	202.0	485	200	1
2.7	2015_Jun_09_1109	s	s	21	2	SIC	222	ABS	1	0	02VD 02VO 02VC 02MD 02MO 10MC 02RD 02RO	0	1	1.71785187721	None	None	None	None	1
2.7	2015_Jun_09_1109	s	s	21	2	SIC	223	RC	2	2	09VD 02VO 02VC 02MD 02MO 02MC 02RD 02RO	1	0	0.782375097275	165.0	50.0	166	45	1
2.7	2015_Jun_09_1109	s	s	21	2	SIC	224	ABS	2	2	10VD 02VO 02VC 02MD 02MO 02MC 02RD 02RO	0	1	1.73600292206	None	None	None	None	1
2.7	2015_Jun_09_1109	s	s	21	2	SIC	225	ABS	1	0	02VD 02VO 02VC 02MD 02MO 10MC 02RD 02RO	0	1	1.81860804558	None	None	None	None	1
2.7	2015_Jun_09_1109	s	s	21	2	SIC	226	ABS	2	0	02VD 02VO 10VC 02MD 02MO 02MC 02RD 02RO	0	1	1.42086601257	None	None	None	None	1
2.7	2015_Jun_09_1109	s	s	21	2	SIC	227	ABS	2	1	02VD 10VO 02VC 02MD 02MO 02MC 02RD 02RO	0	1	1.17658090591	None	None	None	None	1
2.7	2015_Jun_09_1109	s	s	21	2	SIC	228	RC	1	0	02VD 02VO 02VC 02MD 02MO 09MC 02RD 02RO	1	0	1.11310005188	382.0	410.0	389	406	1
2.7	2015_Jun_09_1109	s	s	21	2	SIC	229	RC	1	2	02VD 02VO 02VC 09MD 02MO 02MC 02RD 02RO	1	0	1.01861190796	-188.0	-170.0	-184	-169	1
2.7	2015_Jun_09_1109	s	s	21	2	SIC	230	ABS	0	1	02VD 02VO 02VC 02MD 02MO 02MC 02RD 10RO	0	1	2.53670597076	None	None	None	None	1
2.7	2015_Jun_09_1109	s	s	21	2	SIC	231	RC	2	0	02VD 02VO 09VC 02MD 02MO 02MC 02RD 02RO	0	1	1.9265499115	320.0	337.0	None	None	0
2.7	2015_Jun_09_1109	s	s	21	2	SIC	232	RC	0	2	02VD 02VO 02VC 02MD 02MO 02MC 09RD 02RO	1	0	1.05876994133	-450.0	154.0	-450	152	1
2.7	2015_Jun_09_1109	s	s	21	2	SIC	233	ABS	1	1	02VD 02VO 02VC 02MD 10MO 02MC 02RD 02RO	0	1	2.25536298752	None	None	None	None	1
2.7	2015_Jun_09_1109	s	s	21	2	SIC	234	ABS	1	2	02VD 02VO 02VC 10MD 02MO 02MC 02RD 02RO	0	1	1.25927805901	None	None	None	None	1
2.7	2015_Jun_09_1109	s	s	21	2	SIC	235	RC	0	1	02VD 02VO 02VC 02MD 02MO 02MC 02RD 09RO	1	0	1.62359881401	-347.0	205.0	-349	212	1
2.7	2015_Jun_09_1109	s	s	21	2	SIC	236	ABS	2	2	10VD 02VO 02VC 02MD 02MO 02MC 02RD 02RO	1	0	1.50602793694	None	None	23	87	0
2.7	2015_Jun_09_1109	s	s	21	2	SIC	237	RC	1	1	02VD 02VO 02VC 02MD 09MO 02MC 02RD 02RO	1	0	0.776350975037	-146.0	158.0	-141	150	1
2.7	2015_Jun_09_1109	s	s	21	2	SIC	238	RC	2	2	09VD 02VO 02VC 02MD 02MO 02MC 02RD 02RO	0	1	1.12455105782	515.0	-26.0	None	None	0
2.7	2015_Jun_09_1109	s	s	21	2	SIC	239	RC	2	1	02VD 09VO 02VC 02MD 02MO 02MC 02RD 02RO	0	1	1.04201507568	-84.0	-97.0	None	None	0
2.7	2015_Jun_09_1109	s	s	21	2	SIC	240	ABS	0	2	02VD 02VO 02VC 02MD 02MO 02MC 10RD 02RO	0	1	1.30590796471	None	None	None	None	1
2.7	2015_Jun_09_1109	s	s	21	2	SIC	241	RC	1	1	02VD 02VO 02VC 02MD 09MO 02MC 02RD 02RO	0	1	3.07141900063	-473.0	31.0	None	None	0
2.7	2015_Jun_09_1109	s	s	21	2	SIC	242	RC	2	0	02VD 02VO 09VC 02MD 02MO 02MC 02RD 02RO	1	0	0.960350036621	-502.0	-22.0	-507	-27	1
2.7	2015_Jun_09_1109	s	s	21	2	SIC	243	ABS	2	1	02VD 10VO 02VC 02MD 02MO 02MC 02RD 02RO	0	1	1.64772605896	None	None	None	None	1
2.7	2015_Jun_09_1109	s	s	21	2	SIC	244	RC	0	1	02VD 02VO 02VC 02MD 02MO 02MC 02RD 09RO	0	1	2.37222099304	291.0	-292.0	None	None	0
2.7	2015_Jun_09_1109	s	s	21	2	SIC	245	RC	1	0	02VD 02VO 02VC 02MD 02MO 09MC 02RD 02RO	1	0	1.5120279789	339.0	-377.0	-105	-376	0
2.7	2015_Jun_09_1109	s	s	21	2	SIC	246	ABS	1	2	02VD 02VO 02VC 10MD 02MO 02MC 02RD 02RO	0	1	0.85359287262	None	None	None	None	1
2.7	2015_Jun_09_1109	s	s	21	2	SIC	247	ABS	1	1	02VD 02VO 02VC 02MD 10MO 02MC 02RD 02RO	0	1	1.37162590027	None	None	None	None	1
2.7	2015_Jun_09_1109	s	s	21	2	SIC	248	RC	0	2	02VD 02VO 02VC 02MD 02MO 02MC 09RD 02RO	1	0	1.61904001236	252.0	-290.0	251	-289	1
2.7	2015_Jun_09_1109	s	s	21	2	SIC	249	RC	1	2	02VD 02VO 02VC 09MD 02MO 02MC 02RD 02RO	0	1	1.1176109314	-135.0	124.0	None	None	0
2.7	2015_Jun_09_1109	s	s	21	2	SIC	250	ABS	2	2	10VD 02VO 02VC 02MD 02MO 02MC 02RD 02RO	0	1	0.995534896851	None	None	None	None	1
2.7	2015_Jun_09_1109	s	s	21	2	SIC	251	ABS	2	0	02VD 02VO 10VC 02MD 02MO 02MC 02RD 02RO	0	1	1.90071511269	None	None	None	None	1
2.7	2015_Jun_09_1109	s	s	21	2	SIC	252	ABS	0	1	02VD 02VO 02VC 02MD 02MO 02MC 02RD 10RO	0	1	1.68979597092	None	None	None	None	1
2.7	2015_Jun_09_1109	s	s	21	2	SIC	253	ABS	0	2	02VD 02VO 02VC 02MD 02MO 02MC 10RD 02RO	0	1	2.03570008278	None	None	None	None	1
2.7	2015_Jun_09_1109	s	s	21	2	SIC	254	ABS	1	0	02VD 02VO 02VC 02MD 02MO 10MC 02RD 02RO	0	1	1.1720290184	None	None	None	None	1
2.7	2015_Jun_09_1109	s	s	21	2	SIC	255	RC	2	1	02VD 09VO 02VC 02MD 02MO 02MC 02RD 02RO	1	0	1.27060198784	396.0	190.0	392	188	1
2.7	2015_Jun_09_1109	s	s	21	2	SIC	256	RC	2	2	09VD 02VO 02VC 02MD 02MO 02MC 02RD 02RO	1	0	1.36856794357	125.0	375.0	131	374	1
2.7	2015_Jun_09_1109	s	s	21	2	SIC	257	RC	1	0	02VD 02VO 02VC 02MD 02MO 09MC 02RD 02RO	1	0	0.635027885437	-8.0	-31.0	-15	-32	1
2.7	2015_Jun_09_1109	s	s	21	2	SIC	258	ABS	1	0	02VD 02VO 02VC 02MD 02MO 10MC 02RD 02RO	0	1	1.10099506378	None	None	None	None	1
2.7	2015_Jun_09_1109	s	s	21	2	SIC	259	RC	2	2	09VD 02VO 02VC 02MD 02MO 02MC 02RD 02RO	1	0	1.88251018524	-368.0	30.0	-363	27	1
2.7	2015_Jun_09_1109	s	s	21	2	SIC	260	ABS	2	1	02VD 10VO 02VC 02MD 02MO 02MC 02RD 02RO	0	1	1.35974907875	None	None	None	None	1
2.7	2015_Jun_09_1109	s	s	21	2	SIC	261	RC	2	1	02VD 09VO 02VC 02MD 02MO 02MC 02RD 02RO	1	0	1.09406900406	370.0	195.0	369	185	1
2.7	2015_Jun_09_1109	s	s	21	2	SIC	262	ABS	1	2	02VD 02VO 02VC 10MD 02MO 02MC 02RD 02RO	0	1	1.6001470089	None	None	None	None	1
2.7	2015_Jun_09_1109	s	s	21	2	SIC	263	RC	1	2	02VD 02VO 02VC 09MD 02MO 02MC 02RD 02RO	1	0	0.701263189316	4.0	-183.0	-2	-185	1
2.7	2015_Jun_09_1109	s	s	21	2	SIC	264	ABS	2	2	10VD 02VO 02VC 02MD 02MO 02MC 02RD 02RO	0	1	1.41843485832	None	None	None	None	1
2.7	2015_Jun_09_1109	s	s	21	2	SIC	265	ABS	0	2	02VD 02VO 02VC 02MD 02MO 02MC 10RD 02RO	0	1	2.45143818855	None	None	None	None	1
2.7	2015_Jun_09_1109	s	s	21	2	SIC	266	RC	1	1	02VD 02VO 02VC 02MD 09MO 02MC 02RD 02RO	1	0	1.58837795258	-279.0	-333.0	-278	-334	1
2.7	2015_Jun_09_1109	s	s	21	2	SIC	267	ABS	1	1	02VD 02VO 02VC 02MD 10MO 02MC 02RD 02RO	0	1	1.93691205978	None	None	None	None	1
2.7	2015_Jun_09_1109	s	s	21	2	SIC	268	RC	0	2	02VD 02VO 02VC 02MD 02MO 02MC 09RD 02RO	1	0	0.618074178696	-15.0	37.0	-13	33	1
2.7	2015_Jun_09_1109	s	s	21	2	SIC	269	RC	0	1	02VD 02VO 02VC 02MD 02MO 02MC 02RD 09RO	1	0	2.51311588287	403.0	160.0	400	159	1
2.7	2015_Jun_09_1109	s	s	21	2	SIC	270	ABS	0	1	02VD 02VO 02VC 02MD 02MO 02MC 02RD 10RO	0	1	2.98664116859	None	None	None	None	1
2.7	2015_Jun_09_1109	s	s	21	2	SIC	271	ABS	2	0	02VD 02VO 10VC 02MD 02MO 02MC 02RD 02RO	0	1	3.73794007301	None	None	None	None	1
2.7	2015_Jun_09_1109	s	s	21	2	SIC	272	RC	2	0	02VD 02VO 09VC 02MD 02MO 02MC 02RD 02RO	1	0	0.736408948898	254.0	-158.0	253	-158	1
2.7	2015_Jun_09_1109	s	s	21	2	SIC	273	RC	2	2	09VD 02VO 02VC 02MD 02MO 02MC 02RD 02RO	1	0	0.752740859985	359.0	48.0	363	48	1
2.7	2015_Jun_09_1109	s	s	21	2	SIC	274	ABS	2	1	02VD 10VO 02VC 02MD 02MO 02MC 02RD 02RO	1	0	1.72472000122	None	None	-230	385	0
2.7	2015_Jun_09_1109	s	s	21	2	SIC	275	RC	2	1	02VD 09VO 02VC 02MD 02MO 02MC 02RD 02RO	1	0	0.926959037781	106.0	-170.0	98	-171	1
2.7	2015_Jun_09_1109	s	s	21	2	SIC	276	ABS	2	0	02VD 02VO 10VC 02MD 02MO 02MC 02RD 02RO	0	1	1.03559803963	None	None	None	None	1
2.7	2015_Jun_09_1109	s	s	21	2	SIC	277	RC	2	0	02VD 02VO 09VC 02MD 02MO 02MC 02RD 02RO	1	0	0.841830015182	-339.0	225.0	-338	215	1
2.7	2015_Jun_09_1109	s	s	21	2	SIC	278	RC	0	2	02VD 02VO 02VC 02MD 02MO 02MC 09RD 02RO	1	0	0.60005903244	-227.0	154.0	-223	154	1
2.7	2015_Jun_09_1109	s	s	21	2	SIC	279	RC	0	1	02VD 02VO 02VC 02MD 02MO 02MC 02RD 09RO	1	0	0.736118078232	-137.0	141.0	-132	136	1
2.7	2015_Jun_09_1109	s	s	21	2	SIC	280	ABS	1	2	02VD 02VO 02VC 10MD 02MO 02MC 02RD 02RO	0	1	0.877264976501	None	None	None	None	1
2.7	2015_Jun_09_1109	s	s	21	2	SIC	281	ABS	0	2	02VD 02VO 02VC 02MD 02MO 02MC 10RD 02RO	0	1	1.95704603195	None	None	None	None	1
2.7	2015_Jun_09_1109	s	s	21	2	SIC	282	RC	1	1	02VD 02VO 02VC 02MD 09MO 02MC 02RD 02RO	1	0	1.57190299034	72.0	-388.0	75	-391	1
2.7	2015_Jun_09_1109	s	s	21	2	SIC	283	ABS	1	0	02VD 02VO 02VC 02MD 02MO 10MC 02RD 02RO	0	1	2.74845099449	None	None	None	None	1
2.7	2015_Jun_09_1109	s	s	21	2	SIC	284	RC	1	0	02VD 02VO 02VC 02MD 02MO 09MC 02RD 02RO	1	0	1.04211997986	-199.0	-196.0	-196	-193	1
2.7	2015_Jun_09_1109	s	s	21	2	SIC	285	ABS	2	2	10VD 02VO 02VC 02MD 02MO 02MC 02RD 02RO	0	1	1.87089109421	None	None	None	None	1
2.7	2015_Jun_09_1109	s	s	21	2	SIC	286	ABS	0	1	02VD 02VO 02VC 02MD 02MO 02MC 02RD 10RO	0	1	2.11303901672	None	None	None	None	1
2.7	2015_Jun_09_1109	s	s	21	2	SIC	287	RC	1	2	02VD 02VO 02VC 09MD 02MO 02MC 02RD 02RO	1	0	0.75936794281	186.0	-148.0	194	-149	1
2.7	2015_Jun_09_1109	s	s	21	2	SIC	288	ABS	1	1	02VD 02VO 02VC 02MD 10MO 02MC 02RD 02RO	0	1	0.788071870804	None	None	None	None	1
2.7	2015_Jun_09_1109	s	s	21	2	SIC	289	ABS	2	1	02VD 10VO 02VC 02MD 02MO 02MC 02RD 02RO	0	1	1.07724189758	None	None	None	None	1
2.7	2015_Jun_09_1109	s	s	21	2	SIC	290	RC	0	2	02VD 02VO 02VC 02MD 02MO 02MC 09RD 02RO	1	0	1.23532104492	-164.0	-396.0	-167	-395	1
2.7	2015_Jun_09_1109	s	s	21	2	SIC	291	ABS	0	2	02VD 02VO 02VC 02MD 02MO 02MC 10RD 02RO	0	1	1.92529797554	None	None	None	None	1
2.7	2015_Jun_09_1109	s	s	21	2	SIC	292	ABS	2	2	10VD 02VO 02VC 02MD 02MO 02MC 02RD 02RO	0	1	0.853614807129	None	None	None	None	1
2.7	2015_Jun_09_1109	s	s	21	2	SIC	293	RC	2	1	02VD 09VO 02VC 02MD 02MO 02MC 02RD 02RO	1	0	1.0066280365	-361.0	-330.0	-358	-335	1
2.7	2015_Jun_09_1109	s	s	21	2	SIC	294	ABS	2	0	02VD 02VO 10VC 02MD 02MO 02MC 02RD 02RO	0	1	1.1366109848	None	None	None	None	1
2.7	2015_Jun_09_1109	s	s	21	2	SIC	295	RC	1	2	02VD 02VO 02VC 09MD 02MO 02MC 02RD 02RO	1	0	0.582930803299	94.0	25.0	91	23	1
2.7	2015_Jun_09_1109	s	s	21	2	SIC	296	ABS	0	1	02VD 02VO 02VC 02MD 02MO 02MC 02RD 10RO	0	1	1.04338717461	None	None	None	None	1
2.7	2015_Jun_09_1109	s	s	21	2	SIC	297	ABS	1	1	02VD 02VO 02VC 02MD 10MO 02MC 02RD 02RO	0	1	1.01772689819	None	None	None	None	1
2.7	2015_Jun_09_1109	s	s	21	2	SIC	298	ABS	1	2	02VD 02VO 02VC 10MD 02MO 02MC 02RD 02RO	1	0	1.03130102158	None	None	-32	-62	0
2.7	2015_Jun_09_1109	s	s	21	2	SIC	299	RC	1	0	02VD 02VO 02VC 02MD 02MO 09MC 02RD 02RO	1	0	0.74092912674	-280.0	30.0	-279	27	1
2.7	2015_Jun_09_1109	s	s	21	2	SIC	300	RC	2	0	02VD 02VO 09VC 02MD 02MO 02MC 02RD 02RO	1	0	7.82331895828	-318.0	-328.0	-315	-333	1
2.7	2015_Jun_09_1109	s	s	21	2	SIC	301	RC	0	1	02VD 02VO 02VC 02MD 02MO 02MC 02RD 09RO	1	0	2.32985806465	176.0	-175.0	175	-175	1
2.7	2015_Jun_09_1109	s	s	21	2	SIC	302	ABS	1	0	02VD 02VO 02VC 02MD 02MO 10MC 02RD 02RO	0	1	1.8559961319	None	None	None	None	1
2.7	2015_Jun_09_1109	s	s	21	2	SIC	303	RC	2	2	09VD 02VO 02VC 02MD 02MO 02MC 02RD 02RO	1	0	0.893855810165	-528.0	112.0	-533	107	1
2.7	2015_Jun_09_1109	s	s	21	2	SIC	304	RC	1	1	02VD 02VO 02VC 02MD 09MO 02MC 02RD 02RO	1	0	1.33606886864	-273.0	-297.0	-268	-298	1
2.7	2015_Jun_09_1109	s	s	21	2	SIC	305	RC	0	1	02VD 02VO 02VC 02MD 02MO 02MC 02RD 09RO	1	0	2.10130095482	163.0	141.0	174	144	1
2.7	2015_Jun_09_1109	s	s	21	2	SIC	306	RC	1	2	02VD 02VO 02VC 09MD 02MO 02MC 02RD 02RO	1	0	1.24705505371	39.0	-341.0	33	-345	1
2.7	2015_Jun_09_1109	s	s	21	2	SIC	307	RC	1	1	02VD 02VO 02VC 02MD 09MO 02MC 02RD 02RO	1	0	1.1714220047	-435.0	27.0	-438	25	1
2.7	2015_Jun_09_1109	s	s	21	2	SIC	308	RC	2	1	02VD 09VO 02VC 02MD 02MO 02MC 02RD 02RO	1	0	1.32144713402	-158.0	-232.0	-160	-233	1
2.7	2015_Jun_09_1109	s	s	21	2	SIC	309	ABS	0	1	02VD 02VO 02VC 02MD 02MO 02MC 02RD 10RO	0	1	2.51825213432	None	None	None	None	1
2.7	2015_Jun_09_1109	s	s	21	2	SIC	310	ABS	0	2	02VD 02VO 02VC 02MD 02MO 02MC 10RD 02RO	0	1	1.72462582588	None	None	None	None	1
2.7	2015_Jun_09_1109	s	s	21	2	SIC	311	ABS	1	2	02VD 02VO 02VC 10MD 02MO 02MC 02RD 02RO	0	1	1.97684502602	None	None	None	None	1
2.7	2015_Jun_09_1109	s	s	21	2	SIC	312	ABS	2	2	10VD 02VO 02VC 02MD 02MO 02MC 02RD 02RO	0	1	2.24201488495	None	None	None	None	1
2.7	2015_Jun_09_1109	s	s	21	2	SIC	313	ABS	2	0	02VD 02VO 10VC 02MD 02MO 02MC 02RD 02RO	0	1	2.0423309803	None	None	None	None	1
2.7	2015_Jun_09_1109	s	s	21	2	SIC	314	RC	2	0	02VD 02VO 09VC 02MD 02MO 02MC 02RD 02RO	1	0	1.67072200775	-310.0	-384.0	-308	-378	1
2.7	2015_Jun_09_1109	s	s	21	2	SIC	315	RC	1	0	02VD 02VO 02VC 02MD 02MO 09MC 02RD 02RO	1	0	1.7766661644	517.0	-159.0	518	-163	1
2.7	2015_Jun_09_1109	s	s	21	2	SIC	316	ABS	1	0	02VD 02VO 02VC 02MD 02MO 10MC 02RD 02RO	0	1	3.03151202202	None	None	None	None	1
2.7	2015_Jun_09_1109	s	s	21	2	SIC	317	RC	2	2	09VD 02VO 02VC 02MD 02MO 02MC 02RD 02RO	1	0	0.846763849258	133.0	17.0	133	13	1
2.7	2015_Jun_09_1109	s	s	21	2	SIC	318	ABS	2	1	02VD 10VO 02VC 02MD 02MO 02MC 02RD 02RO	0	1	1.64167404175	None	None	None	None	1
2.7	2015_Jun_09_1109	s	s	21	2	SIC	319	RC	0	2	02VD 02VO 02VC 02MD 02MO 02MC 09RD 02RO	1	0	2.63596987724	390.0	-139.0	392	-141	1
2.7	2015_Jun_09_1109	s	s	21	2	SIC	320	ABS	1	1	02VD 02VO 02VC 02MD 10MO 02MC 02RD 02RO	0	1	3.30690217018	None	None	None	None	1
2.7	2015_Jun_09_1109	s	s	21	2	SIC	321	ABS	1	1	02VD 02VO 02VC 02MD 10MO 02MC 02RD 02RO	0	1	2.64446997643	None	None	None	None	1
2.7	2015_Jun_09_1109	s	s	21	2	SIC	322	ABS	2	1	02VD 10VO 02VC 02MD 02MO 02MC 02RD 02RO	0	1	2.39563512802	None	None	None	None	1
2.7	2015_Jun_09_1109	s	s	21	2	SIC	323	ABS	2	2	10VD 02VO 02VC 02MD 02MO 02MC 02RD 02RO	0	1	1.80799198151	None	None	None	None	1
2.7	2015_Jun_09_1109	s	s	21	2	SIC	324	RC	1	0	02VD 02VO 02VC 02MD 02MO 09MC 02RD 02RO	1	0	2.41759395599	454.0	376.0	451	375	1
2.7	2015_Jun_09_1109	s	s	21	2	SIC	325	RC	2	2	09VD 02VO 02VC 02MD 02MO 02MC 02RD 02RO	1	0	1.06601309776	-123.0	-322.0	-131	-325	1
2.7	2015_Jun_09_1109	s	s	21	2	SIC	326	ABS	2	0	02VD 02VO 10VC 02MD 02MO 02MC 02RD 02RO	0	1	3.2900788784	None	None	None	None	1
2.7	2015_Jun_09_1109	s	s	21	2	SIC	327	RC	0	2	02VD 02VO 02VC 02MD 02MO 02MC 09RD 02RO	1	0	0.841508150101	221.0	-105.0	215	-104	1
2.7	2015_Jun_09_1109	s	s	21	2	SIC	328	RC	2	1	02VD 09VO 02VC 02MD 02MO 02MC 02RD 02RO	1	0	0.917469024658	-126.0	-189.0	-126	-192	1
2.7	2015_Jun_09_1109	s	s	21	2	SIC	329	RC	2	0	02VD 02VO 09VC 02MD 02MO 02MC 02RD 02RO	1	0	0.65366101265	-146.0	174.0	-143	170	1
2.7	2015_Jun_09_1109	s	s	21	2	SIC	330	RC	1	2	02VD 02VO 02VC 09MD 02MO 02MC 02RD 02RO	1	0	1.5717561245	539.0	-397.0	538	-398	1
2.7	2015_Jun_09_1109	s	s	21	2	SIC	331	ABS	0	1	02VD 02VO 02VC 02MD 02MO 02MC 02RD 10RO	0	1	3.08084893227	None	None	None	None	1
2.7	2015_Jun_09_1109	s	s	21	2	SIC	332	RC	0	1	02VD 02VO 02VC 02MD 02MO 02MC 02RD 09RO	1	0	0.571120023727	-91.0	-52.0	-96	-57	1
2.7	2015_Jun_09_1109	s	s	21	2	SIC	333	ABS	1	2	02VD 02VO 02VC 10MD 02MO 02MC 02RD 02RO	0	1	1.85416388512	None	None	None	None	1
2.7	2015_Jun_09_1109	s	s	21	2	SIC	334	ABS	1	0	02VD 02VO 02VC 02MD 02MO 10MC 02RD 02RO	0	1	3.25985193253	None	None	None	None	1
2.7	2015_Jun_09_1109	s	s	21	2	SIC	335	ABS	0	2	02VD 02VO 02VC 02MD 02MO 02MC 10RD 02RO	0	1	2.05921912193	None	None	None	None	1
2.7	2015_Jun_09_1109	s	s	21	2	SIC	336	RC	1	1	02VD 02VO 02VC 02MD 09MO 02MC 02RD 02RO	1	0	0.949592113495	128.0	148.0	127	132	1
2.7	2015_Jun_09_1109	s	s	21	2	SIC	337	ABS	2	2	10VD 02VO 02VC 02MD 02MO 02MC 02RD 02RO	0	1	1.83563899994	None	None	None	None	1
2.7	2015_Jun_09_1109	s	s	21	2	SIC	338	ABS	1	2	02VD 02VO 02VC 10MD 02MO 02MC 02RD 02RO	0	1	1.69082689285	None	None	None	None	1
2.7	2015_Jun_09_1109	s	s	21	2	SIC	339	ABS	2	0	02VD 02VO 10VC 02MD 02MO 02MC 02RD 02RO	0	1	1.58051013947	None	None	None	None	1
2.7	2015_Jun_09_1109	s	s	21	2	SIC	340	RC	0	2	02VD 02VO 02VC 02MD 02MO 02MC 09RD 02RO	1	0	2.95382595062	-475.0	-303.0	-467	-305	1
2.7	2015_Jun_09_1109	s	s	21	2	SIC	341	ABS	2	1	02VD 10VO 02VC 02MD 02MO 02MC 02RD 02RO	0	1	1.93794798851	None	None	None	None	1
2.7	2015_Jun_09_1109	s	s	21	2	SIC	342	RC	2	0	02VD 02VO 09VC 02MD 02MO 02MC 02RD 02RO	1	0	1.61923313141	107.0	378.0	114	374	1
2.7	2015_Jun_09_1109	s	s	21	2	SIC	343	RC	2	1	02VD 09VO 02VC 02MD 02MO 02MC 02RD 02RO	1	0	0.799772024155	40.0	280.0	39	282	1
2.7	2015_Jun_09_1109	s	s	21	2	SIC	344	ABS	1	0	02VD 02VO 02VC 02MD 02MO 10MC 02RD 02RO	0	1	2.2544260025	None	None	None	None	1
2.7	2015_Jun_09_1109	s	s	21	2	SIC	345	ABS	0	1	02VD 02VO 02VC 02MD 02MO 02MC 02RD 10RO	0	1	2.03053212166	None	None	None	None	1
2.7	2015_Jun_09_1109	s	s	21	2	SIC	346	RC	1	0	02VD 02VO 02VC 02MD 02MO 09MC 02RD 02RO	1	0	1.76166009903	-461.0	-365.0	-465	-373	1
2.7	2015_Jun_09_1109	s	s	21	2	SIC	347	RC	1	1	02VD 02VO 02VC 02MD 09MO 02MC 02RD 02RO	1	0	1.27056908607	243.0	389.0	251	388	1
2.7	2015_Jun_09_1109	s	s	21	2	SIC	348	RC	2	2	09VD 02VO 02VC 02MD 02MO 02MC 02RD 02RO	1	0	2.21934509277	263.0	-336.0	271	-335	1
2.7	2015_Jun_09_1109	s	s	21	2	SIC	349	ABS	1	1	02VD 02VO 02VC 02MD 10MO 02MC 02RD 02RO	0	1	1.61867904663	None	None	None	None	1
2.7	2015_Jun_09_1109	s	s	21	2	SIC	350	ABS	0	2	02VD 02VO 02VC 02MD 02MO 02MC 10RD 02RO	0	1	1.24706315994	None	None	None	None	1
2.7	2015_Jun_09_1109	s	s	21	2	SIC	351	RC	1	2	02VD 02VO 02VC 09MD 02MO 02MC 02RD 02RO	1	0	0.61150598526	-126.0	242.0	-121	246	1
2.7	2015_Jun_09_1109	s	s	21	2	SIC	352	RC	0	1	02VD 02VO 02VC 02MD 02MO 02MC 02RD 09RO	0	1	1.84732985497	-83.0	-360.0	None	None	0
2.7	2015_Jun_09_1109	s	s	21	2	SIC	353	ABS	2	2	10VD 02VO 02VC 02MD 02MO 02MC 02RD 02RO	0	1	1.70112895966	None	None	None	None	1
2.7	2015_Jun_09_1109	s	s	21	2	SIC	354	RC	1	0	02VD 02VO 02VC 02MD 02MO 09MC 02RD 02RO	1	0	3.26626086235	281.0	-175.0	288	-178	1
2.7	2015_Jun_09_1109	s	s	21	2	SIC	355	ABS	1	1	02VD 02VO 02VC 02MD 10MO 02MC 02RD 02RO	0	1	1.8942990303	None	None	None	None	1
2.7	2015_Jun_09_1109	s	s	21	2	SIC	356	ABS	2	1	02VD 10VO 02VC 02MD 02MO 02MC 02RD 02RO	0	1	1.11760902405	None	None	None	None	1
2.7	2015_Jun_09_1109	s	s	21	2	SIC	357	ABS	0	2	02VD 02VO 02VC 02MD 02MO 02MC 10RD 02RO	0	1	2.28957295418	None	None	None	None	1
2.7	2015_Jun_09_1109	s	s	21	2	SIC	358	ABS	2	0	02VD 02VO 10VC 02MD 02MO 02MC 02RD 02RO	0	1	1.19996094704	None	None	None	None	1
2.7	2015_Jun_09_1109	s	s	21	2	SIC	359	ABS	1	2	02VD 02VO 02VC 10MD 02MO 02MC 02RD 02RO	0	1	1.27714395523	None	None	None	None	1
2.7	2015_Jun_09_1109	s	s	21	2	SIC	360	ABS	0	1	02VD 02VO 02VC 02MD 02MO 02MC 02RD 10RO	0	1	2.72766089439	None	None	None	None	1
2.7	2015_Jun_09_1109	s	s	21	2	SIC	361	RC	1	1	02VD 02VO 02VC 02MD 09MO 02MC 02RD 02RO	1	0	2.24479079247	-400.0	-236.0	-395	-235	1
2.7	2015_Jun_09_1109	s	s	21	2	SIC	362	RC	2	0	02VD 02VO 09VC 02MD 02MO 02MC 02RD 02RO	0	1	1.83087992668	354.0	-221.0	None	None	0
2.7	2015_Jun_09_1109	s	s	21	2	SIC	363	RC	1	2	02VD 02VO 02VC 09MD 02MO 02MC 02RD 02RO	1	0	1.50992202759	-467.0	-56.0	-468	-51	1
2.7	2015_Jun_09_1109	s	s	21	2	SIC	364	RC	2	1	02VD 09VO 02VC 02MD 02MO 02MC 02RD 02RO	1	0	0.924550056458	136.0	57.0	137	51	1
2.7	2015_Jun_09_1109	s	s	21	2	SIC	365	ABS	1	0	02VD 02VO 02VC 02MD 02MO 10MC 02RD 02RO	0	1	2.3534989357	None	None	None	None	1
2.7	2015_Jun_09_1109	s	s	21	2	SIC	366	RC	0	1	02VD 02VO 02VC 02MD 02MO 02MC 02RD 09RO	1	0	2.26622319221	220.0	-97.0	218	-105	1
2.7	2015_Jun_09_1109	s	s	21	2	SIC	367	RC	2	2	09VD 02VO 02VC 02MD 02MO 02MC 02RD 02RO	1	0	1.18818306923	270.0	348.0	268	337	1
2.7	2015_Jun_09_1109	s	s	21	2	SIC	368	RC	0	2	02VD 02VO 02VC 02MD 02MO 02MC 09RD 02RO	1	0	1.06550097466	412.0	78.0	413	69	1
2.7	2015_Jun_09_1109	s	s	21	2	SIC	369	RC	1	2	02VD 02VO 02VC 09MD 02MO 02MC 02RD 02RO	1	0	0.776434898376	-7.0	13.0	-8	6	1
2.7	2015_Jun_09_1109	s	s	21	2	SIC	370	ABS	2	2	10VD 02VO 02VC 02MD 02MO 02MC 02RD 02RO	0	1	1.26567602158	None	None	None	None	1
2.7	2015_Jun_09_1109	s	s	21	2	SIC	371	RC	1	1	02VD 02VO 02VC 02MD 09MO 02MC 02RD 02RO	0	1	1.76498413086	-415.0	100.0	None	None	0
2.7	2015_Jun_09_1109	s	s	21	2	SIC	372	RC	0	2	02VD 02VO 02VC 02MD 02MO 02MC 09RD 02RO	1	0	0.677165985107	-327.0	-25.0	-319	-31	1
2.7	2015_Jun_09_1109	s	s	21	2	SIC	373	RC	0	1	02VD 02VO 02VC 02MD 02MO 02MC 02RD 09RO	1	0	0.64137005806	66.0	-96.0	65	-99	1
2.7	2015_Jun_09_1109	s	s	21	2	SIC	374	ABS	1	0	02VD 02VO 02VC 02MD 02MO 10MC 02RD 02RO	0	1	1.84732413292	None	None	None	None	1
2.7	2015_Jun_09_1109	s	s	21	2	SIC	375	RC	1	0	02VD 02VO 02VC 02MD 02MO 09MC 02RD 02RO	1	0	0.879593849182	240.0	-40.0	244	-43	1
2.7	2015_Jun_09_1109	s	s	21	2	SIC	376	ABS	0	2	02VD 02VO 02VC 02MD 02MO 02MC 10RD 02RO	0	1	2.01888394356	None	None	None	None	1
2.7	2015_Jun_09_1109	s	s	21	2	SIC	377	ABS	2	1	02VD 10VO 02VC 02MD 02MO 02MC 02RD 02RO	0	1	1.91305398941	None	None	None	None	1
2.7	2015_Jun_09_1109	s	s	21	2	SIC	378	ABS	0	1	02VD 02VO 02VC 02MD 02MO 02MC 02RD 10RO	0	1	2.56057500839	None	None	None	None	1
2.7	2015_Jun_09_1109	s	s	21	2	SIC	379	ABS	1	2	02VD 02VO 02VC 10MD 02MO 02MC 02RD 02RO	0	1	1.14511084557	None	None	None	None	1
2.7	2015_Jun_09_1109	s	s	21	2	SIC	380	RC	2	1	02VD 09VO 02VC 02MD 02MO 02MC 02RD 02RO	1	0	1.61187601089	499.0	370.0	490	371	1
2.7	2015_Jun_09_1109	s	s	21	2	SIC	381	ABS	1	1	02VD 02VO 02VC 02MD 10MO 02MC 02RD 02RO	0	1	1.66571903229	None	None	None	None	1
2.7	2015_Jun_09_1109	s	s	21	2	SIC	382	ABS	2	0	02VD 02VO 10VC 02MD 02MO 02MC 02RD 02RO	0	1	1.74702501297	None	None	None	None	1
2.7	2015_Jun_09_1109	s	s	21	2	SIC	383	RC	2	0	02VD 02VO 09VC 02MD 02MO 02MC 02RD 02RO	1	0	1.46583485603	-69.0	-263.0	-64	-262	1
2.7	2015_Jun_09_1109	s	s	21	2	SIC	384	RC	2	2	09VD 02VO 02VC 02MD 02MO 02MC 02RD 02RO	0	1	1.08231806755	-498.0	-239.0	None	None	0
2.7	2015_Jun_09_1109	s	s	21	2	SIC	385	RC	2	0	02VD 02VO 09VC 02MD 02MO 02MC 02RD 02RO	1	0	0.759490966797	-156.0	334.0	-153	339	1
2.7	2015_Jun_09_1109	s	s	21	2	SIC	386	RC	1	2	02VD 02VO 02VC 09MD 02MO 02MC 02RD 02RO	1	0	0.917440891266	-312.0	364.0	-312	351	1
2.7	2015_Jun_09_1109	s	s	21	2	SIC	387	RC	0	1	02VD 02VO 02VC 02MD 02MO 02MC 02RD 09RO	1	0	1.24705195427	-482.0	342.0	-480	332	1
2.7	2015_Jun_09_1109	s	s	21	2	SIC	388	ABS	0	2	02VD 02VO 02VC 02MD 02MO 02MC 10RD 02RO	0	1	1.11269497871	None	None	None	None	1
2.7	2015_Jun_09_1109	s	s	21	2	SIC	389	ABS	1	1	02VD 02VO 02VC 02MD 10MO 02MC 02RD 02RO	0	1	1.43195009232	None	None	None	None	1
2.7	2015_Jun_09_1109	s	s	21	2	SIC	390	ABS	0	1	02VD 02VO 02VC 02MD 02MO 02MC 02RD 10RO	0	1	2.06564903259	None	None	None	None	1
2.7	2015_Jun_09_1109	s	s	21	2	SIC	391	ABS	2	1	02VD 10VO 02VC 02MD 02MO 02MC 02RD 02RO	0	1	1.55958509445	None	None	None	None	1
2.7	2015_Jun_09_1109	s	s	21	2	SIC	392	ABS	2	2	10VD 02VO 02VC 02MD 02MO 02MC 02RD 02RO	0	1	2.56063008308	None	None	None	None	1
2.7	2015_Jun_09_1109	s	s	21	2	SIC	393	ABS	2	0	02VD 02VO 10VC 02MD 02MO 02MC 02RD 02RO	0	1	1.68944096565	None	None	None	None	1
2.7	2015_Jun_09_1109	s	s	21	2	SIC	394	RC	0	2	02VD 02VO 02VC 02MD 02MO 02MC 09RD 02RO	0	1	1.45888710022	532.0	155.0	None	None	0
2.7	2015_Jun_09_1109	s	s	21	2	SIC	395	RC	2	2	09VD 02VO 02VC 02MD 02MO 02MC 02RD 02RO	1	0	0.691465854645	346.0	138.0	347	131	1
2.7	2015_Jun_09_1109	s	s	21	2	SIC	396	RC	1	1	02VD 02VO 02VC 02MD 09MO 02MC 02RD 02RO	1	0	2.44768404961	-463.0	32.0	-466	25	1
2.7	2015_Jun_09_1109	s	s	21	2	SIC	397	RC	2	1	02VD 09VO 02VC 02MD 02MO 02MC 02RD 02RO	0	1	1.51771116257	-476.0	87.0	None	None	0
2.7	2015_Jun_09_1109	s	s	21	2	SIC	398	RC	1	0	02VD 02VO 02VC 02MD 02MO 09MC 02RD 02RO	1	0	0.917458057404	-187.0	-141.0	-187	-139	1
2.7	2015_Jun_09_1109	s	s	21	2	SIC	399	ABS	1	2	02VD 02VO 02VC 10MD 02MO 02MC 02RD 02RO	0	1	1.61880397797	None	None	None	None	1
2.7	2015_Jun_09_1109	s	s	21	2	SIC	400	ABS	1	0	02VD 02VO 02VC 02MD 02MO 10MC 02RD 02RO	0	1	1.32590293884	None	None	None	None	1
2.7	2015_Jun_09_1109	s	s	21	2	SIC	401	RC	1	1	02VD 02VO 02VC 02MD 09MO 02MC 02RD 02RO	1	0	2.12484908104	-417.0	292.0	-413	294	1
2.7	2015_Jun_09_1109	s	s	21	2	SIC	402	ABS	2	2	10VD 02VO 02VC 02MD 02MO 02MC 02RD 02RO	0	1	1.88969302177	None	None	None	None	1
2.7	2015_Jun_09_1109	s	s	21	2	SIC	403	RC	1	0	02VD 02VO 02VC 02MD 02MO 09MC 02RD 02RO	1	0	1.42123413086	430.0	-166.0	433	-170	1
2.7	2015_Jun_09_1109	s	s	21	2	SIC	404	RC	1	2	02VD 02VO 02VC 09MD 02MO 02MC 02RD 02RO	1	0	0.582833051682	-147.0	223.0	-138	220	1
2.7	2015_Jun_09_1109	s	s	21	2	SIC	405	ABS	2	1	02VD 10VO 02VC 02MD 02MO 02MC 02RD 02RO	0	1	1.84240603447	None	None	None	None	1
2.7	2015_Jun_09_1109	s	s	21	2	SIC	406	ABS	2	0	02VD 02VO 10VC 02MD 02MO 02MC 02RD 02RO	0	1	2.1066839695	None	None	None	None	1
2.7	2015_Jun_09_1109	s	s	21	2	SIC	407	ABS	1	2	02VD 02VO 02VC 10MD 02MO 02MC 02RD 02RO	0	1	1.56227397919	None	None	None	None	1
2.7	2015_Jun_09_1109	s	s	21	2	SIC	408	RC	2	0	02VD 02VO 09VC 02MD 02MO 02MC 02RD 02RO	1	0	1.59513401985	479.0	-35.0	478	-39	1
2.7	2015_Jun_09_1109	s	s	21	2	SIC	409	RC	0	1	02VD 02VO 02VC 02MD 02MO 02MC 02RD 09RO	1	0	2.03564500809	305.0	-105.0	311	-112	1
2.7	2015_Jun_09_1109	s	s	21	2	SIC	410	ABS	1	1	02VD 02VO 02VC 02MD 10MO 02MC 02RD 02RO	0	1	2.61945009232	None	None	None	None	1
2.7	2015_Jun_09_1109	s	s	21	2	SIC	411	ABS	0	1	02VD 02VO 02VC 02MD 02MO 02MC 02RD 10RO	0	1	2.55145812035	None	None	None	None	1
2.7	2015_Jun_09_1109	s	s	21	2	SIC	412	ABS	0	2	02VD 02VO 02VC 02MD 02MO 02MC 10RD 02RO	0	1	1.65518808365	None	None	None	None	1
2.7	2015_Jun_09_1109	s	s	21	2	SIC	413	RC	0	2	02VD 02VO 02VC 02MD 02MO 02MC 09RD 02RO	1	0	1.43554902077	-336.0	28.0	-334	22	1
2.7	2015_Jun_09_1109	s	s	21	2	SIC	414	ABS	1	0	02VD 02VO 02VC 02MD 02MO 10MC 02RD 02RO	0	1	2.77726602554	None	None	None	None	1
2.7	2015_Jun_09_1109	s	s	21	2	SIC	415	RC	2	1	02VD 09VO 02VC 02MD 02MO 02MC 02RD 02RO	1	0	0.665293931961	-186.0	-50.0	-180	-52	1
2.7	2015_Jun_09_1109	s	s	21	2	SIC	416	RC	2	2	09VD 02VO 02VC 02MD 02MO 02MC 02RD 02RO	1	0	1.45648097992	-306.0	-196.0	-308	-198	1
2.7	2015_Jun_09_1109	s	s	21	2	SIC	417	RC	2	2	09VD 02VO 02VC 02MD 02MO 02MC 02RD 02RO	1	0	1.5953848362	393.0	-277.0	400	-283	1
2.7	2015_Jun_09_1109	s	s	21	2	SIC	418	RC	2	0	02VD 02VO 09VC 02MD 02MO 02MC 02RD 02RO	1	0	1.19997620583	419.0	-297.0	-414	282	0
2.7	2015_Jun_09_1109	s	s	21	2	SIC	419	RC	0	1	02VD 02VO 02VC 02MD 02MO 02MC 02RD 09RO	1	0	3.02131485939	507.0	-315.0	514	-314	1
2.7	2015_Jun_09_1109	s	s	21	2	SIC	420	ABS	2	1	02VD 10VO 02VC 02MD 02MO 02MC 02RD 02RO	0	1	1.97682905197	None	None	None	None	1
2.7	2015_Jun_09_1109	s	s	21	2	SIC	421	ABS	2	0	02VD 02VO 10VC 02MD 02MO 02MC 02RD 02RO	0	1	1.67454910278	None	None	None	None	1
2.7	2015_Jun_09_1109	s	s	21	2	SIC	422	RC	1	2	02VD 02VO 02VC 09MD 02MO 02MC 02RD 02RO	1	0	1.1833178997	-281.0	-373.0	-281	-383	1
2.7	2015_Jun_09_1109	s	s	21	2	SIC	423	RC	1	0	02VD 02VO 02VC 02MD 02MO 09MC 02RD 02RO	1	0	1.20707201958	-356.0	-299.0	-353	-300	1
2.7	2015_Jun_09_1109	s	s	21	2	SIC	424	RC	1	1	02VD 02VO 02VC 02MD 09MO 02MC 02RD 02RO	1	0	1.41186594963	-478.0	305.0	-474	296	1
2.7	2015_Jun_09_1109	s	s	21	2	SIC	425	RC	0	2	02VD 02VO 02VC 02MD 02MO 02MC 09RD 02RO	0	1	1.77429580688	441.0	134.0	None	None	0
2.7	2015_Jun_09_1109	s	s	21	2	SIC	426	ABS	2	2	10VD 02VO 02VC 02MD 02MO 02MC 02RD 02RO	0	1	1.17643690109	None	None	None	None	1
2.7	2015_Jun_09_1109	s	s	21	2	SIC	427	ABS	0	2	02VD 02VO 02VC 02MD 02MO 02MC 10RD 02RO	0	1	1.6824760437	None	None	None	None	1
2.7	2015_Jun_09_1109	s	s	21	2	SIC	428	RC	2	1	02VD 09VO 02VC 02MD 02MO 02MC 02RD 02RO	1	0	1.32947993279	-465.0	-354.0	-469	-354	1
2.7	2015_Jun_09_1109	s	s	21	2	SIC	429	ABS	1	0	02VD 02VO 02VC 02MD 02MO 10MC 02RD 02RO	0	1	1.59515094757	None	None	None	None	1
2.7	2015_Jun_09_1109	s	s	21	2	SIC	430	ABS	0	1	02VD 02VO 02VC 02MD 02MO 02MC 02RD 10RO	0	1	2.70276594162	None	None	None	None	1
2.7	2015_Jun_09_1109	s	s	21	2	SIC	431	ABS	1	2	02VD 02VO 02VC 10MD 02MO 02MC 02RD 02RO	0	1	1.08921694756	None	None	None	None	1
2.7	2015_Jun_09_1109	s	s	21	2	SIC	432	ABS	1	1	02VD 02VO 02VC 02MD 10MO 02MC 02RD 02RO	0	1	2.6712911129	None	None	None	None	1
2.7	2015_Jun_09_1109	s	s	21	2	SIC	433	ABS	1	0	02VD 02VO 02VC 02MD 02MO 10MC 02RD 02RO	0	1	1.71339917183	None	None	None	None	1
2.7	2015_Jun_09_1109	s	s	21	2	SIC	434	ABS	0	2	02VD 02VO 02VC 02MD 02MO 02MC 10RD 02RO	0	1	1.00686192513	None	None	None	None	1
2.7	2015_Jun_09_1109	s	s	21	2	SIC	435	RC	2	2	09VD 02VO 02VC 02MD 02MO 02MC 02RD 02RO	1	0	1.31431818008	319.0	353.0	322	344	1
2.7	2015_Jun_09_1109	s	s	21	2	SIC	436	ABS	2	1	02VD 10VO 02VC 02MD 02MO 02MC 02RD 02RO	0	1	1.84229803085	None	None	None	None	1
2.7	2015_Jun_09_1109	s	s	21	2	SIC	437	ABS	2	0	02VD 02VO 10VC 02MD 02MO 02MC 02RD 02RO	0	1	1.07907009125	None	None	None	None	1
2.7	2015_Jun_09_1109	s	s	21	2	SIC	438	ABS	1	1	02VD 02VO 02VC 02MD 10MO 02MC 02RD 02RO	0	1	1.34792685509	None	None	None	None	1
2.7	2015_Jun_09_1109	s	s	21	2	SIC	439	ABS	1	2	02VD 02VO 02VC 10MD 02MO 02MC 02RD 02RO	0	1	1.34125614166	None	None	None	None	1
2.7	2015_Jun_09_1109	s	s	21	2	SIC	440	RC	2	0	02VD 02VO 09VC 02MD 02MO 02MC 02RD 02RO	0	1	1.58521699905	375.0	-334.0	None	None	0
2.7	2015_Jun_09_1109	s	s	21	2	SIC	441	RC	0	2	02VD 02VO 02VC 02MD 02MO 02MC 09RD 02RO	0	1	1.20918488503	-250.0	385.0	None	None	0
2.7	2015_Jun_09_1109	s	s	21	2	SIC	442	ABS	0	1	02VD 02VO 02VC 02MD 02MO 02MC 02RD 10RO	0	1	2.47794389725	None	None	None	None	1
2.7	2015_Jun_09_1109	s	s	21	2	SIC	443	RC	1	1	02VD 02VO 02VC 02MD 09MO 02MC 02RD 02RO	1	0	1.47097396851	-515.0	322.0	-521	327	1
2.7	2015_Jun_09_1109	s	s	21	2	SIC	444	RC	1	2	02VD 02VO 02VC 09MD 02MO 02MC 02RD 02RO	1	0	1.19746923447	-391.0	330.0	-389	327	1
2.7	2015_Jun_09_1109	s	s	21	2	SIC	445	ABS	2	2	10VD 02VO 02VC 02MD 02MO 02MC 02RD 02RO	0	1	1.52141809464	None	None	None	None	1
2.7	2015_Jun_09_1109	s	s	21	2	SIC	446	RC	0	1	02VD 02VO 02VC 02MD 02MO 02MC 02RD 09RO	1	0	1.45885801315	-261.0	237.0	-262	225	1
2.7	2015_Jun_09_1109	s	s	21	2	SIC	447	RC	2	1	02VD 09VO 02VC 02MD 02MO 02MC 02RD 02RO	1	0	2.08936810493	332.0	-276.0	335	-277	1
2.7	2015_Jun_09_1109	s	s	21	2	SIC	448	RC	1	0	02VD 02VO 02VC 02MD 02MO 09MC 02RD 02RO	0	1	1.81829404831	472.0	-47.0	None	None	0
2.7	2015_Jun_09_1109	s	s	21	2	SIC	449	ABS	0	2	02VD 02VO 02VC 02MD 02MO 02MC 10RD 02RO	0	1	1.8538069725	None	None	None	None	1
2.7	2015_Jun_09_1109	s	s	21	2	SIC	450	ABS	2	2	10VD 02VO 02VC 02MD 02MO 02MC 02RD 02RO	0	1	1.93016910553	None	None	None	None	1
2.7	2015_Jun_09_1109	s	s	21	2	SIC	451	RC	1	0	02VD 02VO 02VC 02MD 02MO 09MC 02RD 02RO	1	0	0.634933948517	-37.0	176.0	-40	169	1
2.7	2015_Jun_09_1109	s	s	21	2	SIC	452	RC	0	1	02VD 02VO 02VC 02MD 02MO 02MC 02RD 09RO	1	0	1.35979413986	334.0	-130.0	342	-133	1
2.7	2015_Jun_09_1109	s	s	21	2	SIC	453	RC	1	2	02VD 02VO 02VC 09MD 02MO 02MC 02RD 02RO	1	0	1.08954715729	-334.0	176.0	-328	176	1
2.7	2015_Jun_09_1109	s	s	21	2	SIC	454	RC	2	2	09VD 02VO 02VC 02MD 02MO 02MC 02RD 02RO	0	1	1.36471390724	526.0	-173.0	None	None	0
2.7	2015_Jun_09_1109	s	s	21	2	SIC	455	RC	2	0	02VD 02VO 09VC 02MD 02MO 02MC 02RD 02RO	1	0	1.17154097557	-357.0	267.0	-355	254	1
2.7	2015_Jun_09_1109	s	s	21	2	SIC	456	ABS	1	0	02VD 02VO 02VC 02MD 02MO 10MC 02RD 02RO	0	1	1.63063907623	None	None	None	None	1
2.7	2015_Jun_09_1109	s	s	21	2	SIC	457	ABS	0	1	02VD 02VO 02VC 02MD 02MO 02MC 02RD 10RO	0	1	3.45439910889	None	None	None	None	1
2.7	2015_Jun_09_1109	s	s	21	2	SIC	458	RC	1	1	02VD 02VO 02VC 02MD 09MO 02MC 02RD 02RO	1	0	0.912607908249	-235.0	-161.0	-234	-163	1
2.7	2015_Jun_09_1109	s	s	21	2	SIC	459	RC	2	1	02VD 09VO 02VC 02MD 02MO 02MC 02RD 02RO	1	0	0.653657913208	-287.0	64.0	-287	62	1
2.7	2015_Jun_09_1109	s	s	21	2	SIC	460	ABS	2	1	02VD 10VO 02VC 02MD 02MO 02MC 02RD 02RO	0	1	1.35971307755	None	None	None	None	1
2.7	2015_Jun_09_1109	s	s	21	2	SIC	461	RC	0	2	02VD 02VO 02VC 02MD 02MO 02MC 09RD 02RO	1	0	0.500849962234	-70.0	121.0	-69	114	1
2.7	2015_Jun_09_1109	s	s	21	2	SIC	462	ABS	1	1	02VD 02VO 02VC 02MD 10MO 02MC 02RD 02RO	0	1	2.13361501694	None	None	None	None	1
2.7	2015_Jun_09_1109	s	s	21	2	SIC	463	ABS	1	2	02VD 02VO 02VC 10MD 02MO 02MC 02RD 02RO	0	1	0.988123893738	None	None	None	None	1
2.7	2015_Jun_09_1109	s	s	21	2	SIC	464	ABS	2	0	02VD 02VO 10VC 02MD 02MO 02MC 02RD 02RO	0	1	0.906177043915	None	None	None	None	1
2.7	2015_Jun_09_1109	s	s	21	2	SIC	465	RC	2	2	09VD 02VO 02VC 02MD 02MO 02MC 02RD 02RO	1	0	0.646759033203	39.0	-131.0	47	-131	1
2.7	2015_Jun_09_1109	s	s	21	2	SIC	466	RC	0	2	02VD 02VO 02VC 02MD 02MO 02MC 09RD 02RO	1	0	1.45431113243	-517.0	261.0	-517	262	1
2.7	2015_Jun_09_1109	s	s	21	2	SIC	467	RC	2	1	02VD 09VO 02VC 02MD 02MO 02MC 02RD 02RO	1	0	0.587823867798	-104.0	140.0	-98	137	1
2.7	2015_Jun_09_1109	s	s	21	2	SIC	468	ABS	1	2	02VD 02VO 02VC 10MD 02MO 02MC 02RD 02RO	0	1	1.71784806252	None	None	None	None	1
2.7	2015_Jun_09_1109	s	s	21	2	SIC	469	RC	1	1	02VD 02VO 02VC 02MD 09MO 02MC 02RD 02RO	0	1	1.37016701698	-495.0	-301.0	None	None	0
2.7	2015_Jun_09_1109	s	s	21	2	SIC	470	RC	0	1	02VD 02VO 02VC 02MD 02MO 02MC 02RD 09RO	1	0	2.78395104408	378.0	-94.0	383	-100	1
2.7	2015_Jun_09_1109	s	s	21	2	SIC	471	ABS	0	1	02VD 02VO 02VC 02MD 02MO 02MC 02RD 10RO	0	1	1.45389914513	None	None	None	None	1
2.7	2015_Jun_09_1109	s	s	21	2	SIC	472	RC	1	0	02VD 02VO 02VC 02MD 02MO 09MC 02RD 02RO	1	0	0.599673032761	98.0	21.0	90	15	1
2.7	2015_Jun_09_1109	s	s	21	2	SIC	473	ABS	1	0	02VD 02VO 02VC 02MD 02MO 10MC 02RD 02RO	0	1	0.866152048111	None	None	None	None	1
2.7	2015_Jun_09_1109	s	s	21	2	SIC	474	ABS	1	1	02VD 02VO 02VC 02MD 10MO 02MC 02RD 02RO	0	1	0.641596078873	None	None	None	None	1
2.7	2015_Jun_09_1109	s	s	21	2	SIC	475	ABS	2	2	10VD 02VO 02VC 02MD 02MO 02MC 02RD 02RO	0	1	0.735821008682	None	None	None	None	1
2.7	2015_Jun_09_1109	s	s	21	2	SIC	476	RC	1	2	02VD 02VO 02VC 09MD 02MO 02MC 02RD 02RO	1	0	1.21176409721	-371.0	196.0	-373	184	1
2.7	2015_Jun_09_1109	s	s	21	2	SIC	477	ABS	0	2	02VD 02VO 02VC 02MD 02MO 02MC 10RD 02RO	0	1	0.864962100983	None	None	None	None	1
2.7	2015_Jun_09_1109	s	s	21	2	SIC	478	ABS	2	0	02VD 02VO 10VC 02MD 02MO 02MC 02RD 02RO	0	1	2.41890120506	None	None	None	None	1
2.7	2015_Jun_09_1109	s	s	21	2	SIC	479	RC	2	0	02VD 02VO 09VC 02MD 02MO 02MC 02RD 02RO	0	1	1.05909800529	-369.0	348.0	None	None	0
2.7	2015_Jun_09_1109	s	s	21	2	SIC	480	ABS	2	1	02VD 10VO 02VC 02MD 02MO 02MC 02RD 02RO	0	1	1.13348197937	None	None	None	None	1
