Version	Date	Stimuli	Method	Subject	Session	Condition	Trial	Target	Channel1	Channel2	Distractors	LMouseButton	RMouseButton	RT	TargetX	TargetY	ResponseX	ResponseY	Correct
2.7	2015_Jun_10_0948	s	s	21	3	Capacity	1	ABS	1	0	08VC 16MC	0	1	1.93721389771	None	None	None	None	1
2.7	2015_Jun_10_0948	s	s	21	3	Capacity	2	RC	2	0	15VC 08MC	1	0	1.07736706734	-4.0	-383.0	-2	-398	1
2.7	2015_Jun_10_0948	s	s	21	3	Capacity	3	ABS	2	0	16VC 08MC	0	1	1.48895406723	None	None	None	None	1
2.7	2015_Jun_10_0948	s	s	21	3	Capacity	4	RC	1	0	08VC 15MC	0	1	2.11420583725	341.0	356.0	None	None	0
2.7	2015_Jun_10_0948	s	s	21	3	Capacity	5	RC	2	0	15VC 08MC	1	0	1.32952904701	-142.0	368.0	-135	366	1
2.7	2015_Jun_10_0948	s	s	21	3	Capacity	6	ABS	1	0	08VC 16MC	0	1	2.40962386131	None	None	None	None	1
2.7	2015_Jun_10_0948	s	s	21	3	Capacity	7	RC	1	0	08VC 15MC	1	0	1.23020291328	-53.0	-240.0	-64	-238	1
2.7	2015_Jun_10_0948	s	s	21	3	Capacity	8	ABS	2	0	16VC 08MC	0	1	2.10619997978	None	None	None	None	1
2.7	2015_Jun_10_0948	s	s	21	3	Capacity	9	ABS	1	0	08VC 16MC	0	1	1.92631411552	None	None	None	None	1
2.7	2015_Jun_10_0948	s	s	21	3	Capacity	10	RC	2	0	15VC 08MC	1	0	0.917493104935	477.0	-142.0	477	-137	1
2.7	2015_Jun_10_0948	s	s	21	3	Capacity	11	RC	1	0	08VC 15MC	1	0	1.11248517036	307.0	-319.0	302	-320	1
2.7	2015_Jun_10_0948	s	s	21	3	Capacity	12	ABS	2	0	16VC 08MC	0	1	1.34118700027	None	None	None	None	1
2.7	2015_Jun_10_0948	s	s	21	3	Capacity	13	ABS	1	0	08VC 16MC	0	1	0.796678066254	None	None	None	None	1
2.7	2015_Jun_10_0948	s	s	21	3	Capacity	14	RC	2	0	15VC 08MC	1	0	0.940934896469	-261.0	401.0	-261	401	1
2.7	2015_Jun_10_0948	s	s	21	3	Capacity	15	ABS	2	0	16VC 08MC	0	1	1.14768314362	None	None	None	None	1
2.7	2015_Jun_10_0948	s	s	21	3	Capacity	16	RC	1	0	08VC 15MC	1	0	2.02985310555	330.0	-401.0	319	-397	1
2.7	2015_Jun_10_0948	s	s	21	3	Capacity	17	RC	2	0	15VC 08MC	1	0	0.68882393837	186.0	-219.0	184	-219	1
2.7	2015_Jun_10_0948	s	s	21	3	Capacity	18	ABS	2	0	16VC 08MC	0	1	1.79521107674	None	None	None	None	1
2.7	2015_Jun_10_0948	s	s	21	3	Capacity	19	ABS	1	0	08VC 16MC	0	1	1.44204497337	None	None	None	None	1
2.7	2015_Jun_10_0948	s	s	21	3	Capacity	20	RC	1	0	08VC 15MC	1	0	1.01160812378	467.0	33.0	471	26	1
2.7	2015_Jun_10_0948	s	s	21	3	Capacity	21	ABS	2	0	16VC 08MC	0	1	1.99541497231	None	None	None	None	1
2.7	2015_Jun_10_0948	s	s	21	3	Capacity	22	RC	1	0	08VC 15MC	1	0	1.08229708672	-27.0	302.0	-22	299	1
2.7	2015_Jun_10_0948	s	s	21	3	Capacity	23	ABS	1	0	08VC 16MC	0	1	2.18870806694	None	None	None	None	1
2.7	2015_Jun_10_0948	s	s	21	3	Capacity	24	RC	2	0	15VC 08MC	1	0	1.80045104027	-341.0	101.0	-345	93	1
2.7	2015_Jun_10_0948	s	s	21	3	Capacity	25	RC	1	0	08VC 15MC	1	0	1.36140704155	317.0	213.0	321	201	1
2.7	2015_Jun_10_0948	s	s	21	3	Capacity	26	ABS	1	0	08VC 16MC	0	1	1.29777693748	None	None	None	None	1
2.7	2015_Jun_10_0948	s	s	21	3	Capacity	27	RC	2	0	15VC 08MC	1	0	1.03523898125	235.0	252.0	236	251	1
2.7	2015_Jun_10_0948	s	s	21	3	Capacity	28	ABS	2	0	16VC 08MC	0	1	1.31773114204	None	None	None	None	1
2.7	2015_Jun_10_0948	s	s	21	3	Capacity	29	RC	2	0	15VC 08MC	1	0	0.552989006042	-1.0	106.0	-1	104	1
2.7	2015_Jun_10_0948	s	s	21	3	Capacity	30	ABS	1	0	08VC 16MC	1	0	1.57661795616	None	None	-8	-40	0
2.7	2015_Jun_10_0948	s	s	21	3	Capacity	31	RC	1	0	08VC 15MC	0	1	1.29442000389	450.0	-277.0	None	None	0
2.7	2015_Jun_10_0948	s	s	21	3	Capacity	32	ABS	2	0	16VC 08MC	0	1	2.07101392746	None	None	None	None	1
2.7	2015_Jun_10_0948	s	s	21	3	Capacity	33	RC	2	0	15VC 08MC	1	0	1.52953505516	-195.0	-393.0	-194	-401	1
2.7	2015_Jun_10_0948	s	s	21	3	Capacity	34	RC	1	0	08VC 15MC	0	1	1.0469429493	-298.0	-310.0	None	None	0
2.7	2015_Jun_10_0948	s	s	21	3	Capacity	35	ABS	2	0	16VC 08MC	0	1	0.702176094055	None	None	None	None	1
2.7	2015_Jun_10_0948	s	s	21	3	Capacity	36	ABS	1	0	08VC 16MC	0	1	0.823239088058	None	None	None	None	1
2.7	2015_Jun_10_0948	s	s	21	3	Capacity	37	ABS	2	0	16VC 08MC	0	1	0.831926107407	None	None	None	None	1
2.7	2015_Jun_10_0948	s	s	21	3	Capacity	38	RC	2	0	15VC 08MC	0	1	1.10579800606	447.0	-400.0	None	None	0
2.7	2015_Jun_10_0948	s	s	21	3	Capacity	39	RC	1	0	08VC 15MC	1	0	0.794089078903	-1.0	270.0	-1	268	1
2.7	2015_Jun_10_0948	s	s	21	3	Capacity	40	ABS	1	0	08VC 16MC	0	1	0.67018699646	None	None	None	None	1
2.7	2015_Jun_10_0948	s	s	21	3	Capacity	41	ABS	2	0	16VC 08MC	0	1	1.12424588203	None	None	None	None	1
2.7	2015_Jun_10_0948	s	s	21	3	Capacity	42	RC	2	0	15VC 08MC	0	1	1.16473007202	-245.0	-92.0	None	None	0
2.7	2015_Jun_10_0948	s	s	21	3	Capacity	43	ABS	1	0	08VC 16MC	0	1	0.820250034332	None	None	None	None	1
2.7	2015_Jun_10_0948	s	s	21	3	Capacity	44	RC	1	0	08VC 15MC	0	1	0.917442083359	271.0	-298.0	None	None	0
2.7	2015_Jun_10_0948	s	s	21	3	Capacity	45	ABS	2	0	16VC 08MC	0	1	0.938084840775	None	None	None	None	1
2.7	2015_Jun_10_0948	s	s	21	3	Capacity	46	ABS	1	0	08VC 16MC	0	1	1.1953690052	None	None	None	None	1
2.7	2015_Jun_10_0948	s	s	21	3	Capacity	47	RC	2	0	15VC 08MC	1	0	1.03512501717	-29.0	-381.0	-28	-380	1
2.7	2015_Jun_10_0948	s	s	21	3	Capacity	48	RC	1	0	08VC 15MC	1	0	2.25933694839	-463.0	51.0	-461	53	1
2.7	2015_Jun_10_0948	s	s	21	3	Capacity	49	RC	1	0	08VC 15MC	1	0	1.58855104446	433.0	-411.0	430	-404	1
2.7	2015_Jun_10_0948	s	s	21	3	Capacity	50	RC	2	0	15VC 08MC	1	0	0.611465215683	-55.0	-126.0	-55	-126	1
2.7	2015_Jun_10_0948	s	s	21	3	Capacity	51	ABS	2	0	16VC 08MC	0	1	1.87089705467	None	None	None	None	1
2.7	2015_Jun_10_0948	s	s	21	3	Capacity	52	ABS	1	0	08VC 16MC	0	1	1.62346506119	None	None	None	None	1
2.7	2015_Jun_10_0948	s	s	21	3	Capacity	53	RC	2	0	15VC 08MC	1	0	0.623103141785	-346.0	-8.0	-341	-6	1
2.7	2015_Jun_10_0948	s	s	21	3	Capacity	54	RC	1	0	08VC 15MC	1	0	0.717377185822	149.0	217.0	158	215	1
2.7	2015_Jun_10_0948	s	s	21	3	Capacity	55	ABS	2	0	16VC 08MC	0	1	1.52952003479	None	None	None	None	1
2.7	2015_Jun_10_0948	s	s	21	3	Capacity	56	ABS	1	0	08VC 16MC	0	1	1.61566209793	None	None	None	None	1
2.7	2015_Jun_10_0948	s	s	21	3	Capacity	57	ABS	1	0	08VC 16MC	0	1	1.4118270874	None	None	None	None	1
2.7	2015_Jun_10_0948	s	s	21	3	Capacity	58	RC	1	0	08VC 15MC	1	0	0.900022983551	342.0	211.0	340	213	1
2.7	2015_Jun_10_0948	s	s	21	3	Capacity	59	RC	2	0	15VC 08MC	1	0	0.893974781036	-532.0	163.0	-533	157	1
2.7	2015_Jun_10_0948	s	s	21	3	Capacity	60	ABS	2	0	16VC 08MC	0	1	0.666084051132	None	None	None	None	1
2.7	2015_Jun_10_0948	s	s	21	3	Capacity	61	ABS	2	0	16VC 08MC	0	1	1.04325604439	None	None	None	None	1
2.7	2015_Jun_10_0948	s	s	21	3	Capacity	62	RC	2	0	15VC 08MC	1	0	0.737600803375	-159.0	193.0	-148	199	1
2.7	2015_Jun_10_0948	s	s	21	3	Capacity	63	ABS	1	0	08VC 16MC	0	1	0.736037969589	None	None	None	None	1
2.7	2015_Jun_10_0948	s	s	21	3	Capacity	64	RC	1	0	08VC 15MC	0	1	0.987972974777	325.0	-270.0	None	None	0
2.7	2015_Jun_10_0948	s	s	21	3	Capacity	1	ABS	0	2	16RD 08RO	0	1	0.924742937088	None	None	None	None	1
2.7	2015_Jun_10_0948	s	s	21	3	Capacity	2	ABS	0	1	08RD 16RO	0	1	3.06646513939	None	None	None	None	1
2.7	2015_Jun_10_0948	s	s	21	3	Capacity	3	RC	0	1	08RD 15RO	0	1	1.2824909687	538.0	180.0	None	None	0
2.7	2015_Jun_10_0948	s	s	21	3	Capacity	4	RC	0	2	15RD 08RO	1	0	2.33890295029	-384.0	-102.0	-374	-104	1
2.7	2015_Jun_10_0948	s	s	21	3	Capacity	5	ABS	0	2	16RD 08RO	0	1	1.6063888073	None	None	None	None	1
2.7	2015_Jun_10_0948	s	s	21	3	Capacity	6	ABS	0	1	08RD 16RO	0	1	1.36202096939	None	None	None	None	1
2.7	2015_Jun_10_0948	s	s	21	3	Capacity	7	RC	0	1	08RD 15RO	1	0	0.760323047638	-185.0	9.0	-189	-1	1
2.7	2015_Jun_10_0948	s	s	21	3	Capacity	8	RC	0	2	15RD 08RO	0	1	1.06675291061	51.0	179.0	None	None	0
2.7	2015_Jun_10_0948	s	s	21	3	Capacity	9	ABS	0	2	16RD 08RO	0	1	2.03179717064	None	None	None	None	1
2.7	2015_Jun_10_0948	s	s	21	3	Capacity	10	RC	0	2	15RD 08RO	1	0	0.693866014481	-324.0	105.0	-325	114	1
2.7	2015_Jun_10_0948	s	s	21	3	Capacity	11	ABS	0	1	08RD 16RO	0	1	1.23550796509	None	None	None	None	1
2.7	2015_Jun_10_0948	s	s	21	3	Capacity	12	RC	0	1	08RD 15RO	1	0	2.2828810215	430.0	316.0	425	315	1
2.7	2015_Jun_10_0948	s	s	21	3	Capacity	13	ABS	0	1	08RD 16RO	0	1	0.893998861313	None	None	None	None	1
2.7	2015_Jun_10_0948	s	s	21	3	Capacity	14	RC	0	1	08RD 15RO	0	1	1.18314790726	306.0	317.0	None	None	0
2.7	2015_Jun_10_0948	s	s	21	3	Capacity	15	RC	0	2	15RD 08RO	0	1	1.42362880707	318.0	202.0	None	None	0
2.7	2015_Jun_10_0948	s	s	21	3	Capacity	16	ABS	0	2	16RD 08RO	0	1	1.57656407356	None	None	None	None	1
2.7	2015_Jun_10_0948	s	s	21	3	Capacity	17	RC	0	1	08RD 15RO	0	1	1.94816684723	454.0	75.0	None	None	0
2.7	2015_Jun_10_0948	s	s	21	3	Capacity	18	RC	0	2	15RD 08RO	1	0	1.2537419796	-322.0	-18.0	-315	-23	1
2.7	2015_Jun_10_0948	s	s	21	3	Capacity	19	ABS	0	1	08RD 16RO	0	1	2.09457921982	None	None	None	None	1
2.7	2015_Jun_10_0948	s	s	21	3	Capacity	20	ABS	0	2	16RD 08RO	0	1	1.61858987808	None	None	None	None	1
2.7	2015_Jun_10_0948	s	s	21	3	Capacity	21	RC	0	1	08RD 15RO	1	0	0.996734857559	-399.0	-37.0	-400	-39	1
2.7	2015_Jun_10_0948	s	s	21	3	Capacity	22	ABS	0	2	16RD 08RO	0	1	2.03052902222	None	None	None	None	1
2.7	2015_Jun_10_0948	s	s	21	3	Capacity	23	ABS	0	1	08RD 16RO	0	1	3.02104210854	None	None	None	None	1
2.7	2015_Jun_10_0948	s	s	21	3	Capacity	24	RC	0	2	15RD 08RO	0	1	1.65510821342	530.0	-196.0	None	None	0
2.7	2015_Jun_10_0948	s	s	21	3	Capacity	25	RC	0	2	15RD 08RO	1	0	0.559453010559	-111.0	107.0	-110	103	1
2.7	2015_Jun_10_0948	s	s	21	3	Capacity	26	ABS	0	2	16RD 08RO	0	1	1.64752411842	None	None	None	None	1
2.7	2015_Jun_10_0948	s	s	21	3	Capacity	27	RC	0	1	08RD 15RO	1	0	2.18065214157	-53.0	-306.0	-56	-313	1
2.7	2015_Jun_10_0948	s	s	21	3	Capacity	28	ABS	0	1	08RD 16RO	0	1	1.9179520607	None	None	None	None	1
2.7	2015_Jun_10_0948	s	s	21	3	Capacity	29	RC	0	1	08RD 15RO	0	1	1.8238389492	-256.0	-89.0	None	None	0
2.7	2015_Jun_10_0948	s	s	21	3	Capacity	30	ABS	0	2	16RD 08RO	0	1	1.45895195007	None	None	None	None	1
2.7	2015_Jun_10_0948	s	s	21	3	Capacity	31	ABS	0	1	08RD 16RO	0	1	2.73667812347	None	None	None	None	1
2.7	2015_Jun_10_0948	s	s	21	3	Capacity	32	RC	0	2	15RD 08RO	1	0	1.22353792191	314.0	274.0	314	267	1
2.7	2015_Jun_10_0948	s	s	21	3	Capacity	33	RC	0	1	08RD 15RO	0	1	1.83045697212	350.0	-322.0	None	None	0
2.7	2015_Jun_10_0948	s	s	21	3	Capacity	34	ABS	0	1	08RD 16RO	0	1	2.06591200829	None	None	None	None	1
2.7	2015_Jun_10_0948	s	s	21	3	Capacity	35	RC	0	2	15RD 08RO	1	0	1.16467285156	387.0	79.0	388	66	1
2.7	2015_Jun_10_0948	s	s	21	3	Capacity	36	ABS	0	2	16RD 08RO	0	1	2.56559109688	None	None	None	None	1
2.7	2015_Jun_10_0948	s	s	21	3	Capacity	37	RC	0	1	08RD 15RO	0	1	2.5011100769	-374.0	390.0	None	None	0
2.7	2015_Jun_10_0948	s	s	21	3	Capacity	38	ABS	0	2	16RD 08RO	0	1	2.28972291946	None	None	None	None	1
2.7	2015_Jun_10_0948	s	s	21	3	Capacity	39	ABS	0	1	08RD 16RO	0	1	2.78351283073	None	None	None	None	1
2.7	2015_Jun_10_0948	s	s	21	3	Capacity	40	RC	0	2	15RD 08RO	1	0	1.97686481476	66.0	-355.0	70	-357	1
2.7	2015_Jun_10_0948	s	s	21	3	Capacity	41	RC	0	1	08RD 15RO	1	0	0.788088083267	38.0	99.0	36	96	1
2.7	2015_Jun_10_0948	s	s	21	3	Capacity	42	RC	0	2	15RD 08RO	0	1	0.914775133133	292.0	358.0	None	None	0
2.7	2015_Jun_10_0948	s	s	21	3	Capacity	43	ABS	0	2	16RD 08RO	0	1	1.31427311897	None	None	None	None	1
2.7	2015_Jun_10_0948	s	s	21	3	Capacity	44	ABS	0	1	08RD 16RO	0	1	2.46799707413	None	None	None	None	1
2.7	2015_Jun_10_0948	s	s	21	3	Capacity	45	ABS	0	2	16RD 08RO	0	1	1.69431090355	None	None	None	None	1
2.7	2015_Jun_10_0948	s	s	21	3	Capacity	46	RC	0	2	15RD 08RO	1	0	0.599844932556	-178.0	-99.0	-171	-98	1
2.7	2015_Jun_10_0948	s	s	21	3	Capacity	47	ABS	0	1	08RD 16RO	0	1	1.94149303436	None	None	None	None	1
2.7	2015_Jun_10_0948	s	s	21	3	Capacity	48	RC	0	1	08RD 15RO	0	1	1.88257408142	144.0	-170.0	None	None	0
2.7	2015_Jun_10_0948	s	s	21	3	Capacity	49	ABS	0	2	16RD 08RO	0	1	1.31253790855	None	None	None	None	1
2.7	2015_Jun_10_0948	s	s	21	3	Capacity	50	RC	0	1	08RD 15RO	0	1	1.56211900711	-71.0	341.0	None	None	0
2.7	2015_Jun_10_0948	s	s	21	3	Capacity	51	RC	0	2	15RD 08RO	1	0	1.12429094315	505.0	261.0	508	257	1
2.7	2015_Jun_10_0948	s	s	21	3	Capacity	52	ABS	0	1	08RD 16RO	0	1	1.28233790398	None	None	None	None	1
2.7	2015_Jun_10_0948	s	s	21	3	Capacity	53	RC	0	1	08RD 15RO	1	0	1.06717610359	233.0	379.0	236	383	1
2.7	2015_Jun_10_0948	s	s	21	3	Capacity	54	ABS	0	2	16RD 08RO	0	1	1.28237199783	None	None	None	None	1
2.7	2015_Jun_10_0948	s	s	21	3	Capacity	55	RC	0	2	15RD 08RO	1	0	1.50163578987	484.0	-170.0	483	-175	1
2.7	2015_Jun_10_0948	s	s	21	3	Capacity	56	ABS	0	1	08RD 16RO	0	1	2.06604409218	None	None	None	None	1
2.7	2015_Jun_10_0948	s	s	21	3	Capacity	57	ABS	0	2	16RD 08RO	0	1	1.61875915527	None	None	None	None	1
2.7	2015_Jun_10_0948	s	s	21	3	Capacity	58	RC	0	1	08RD 15RO	1	0	1.29455804825	86.0	-67.0	90	-74	1
2.7	2015_Jun_10_0948	s	s	21	3	Capacity	59	RC	0	2	15RD 08RO	1	0	0.498360872269	-52.0	27.0	-53	26	1
2.7	2015_Jun_10_0948	s	s	21	3	Capacity	60	ABS	0	1	08RD 16RO	0	1	1.7947499752	None	None	None	None	1
2.7	2015_Jun_10_0948	s	s	21	3	Capacity	61	RC	0	1	08RD 15RO	0	1	1.39475297928	128.0	255.0	None	None	0
2.7	2015_Jun_10_0948	s	s	21	3	Capacity	62	ABS	0	2	16RD 08RO	0	1	1.10583496094	None	None	None	None	1
2.7	2015_Jun_10_0948	s	s	21	3	Capacity	63	ABS	0	1	08RD 16RO	0	1	2.23581004143	None	None	None	None	1
2.7	2015_Jun_10_0948	s	s	21	3	Capacity	64	RC	0	2	15RD 08RO	1	0	1.10582399368	-278.0	-126.0	-278	-128	1
2.7	2015_Jun_10_0948	s	s	21	3	SIC	1	ABS	2	0	02VD 02VO 10VC 02MD 02MO 02MC 02RD 02RO	0	1	1.42357301712	None	None	None	None	1
2.7	2015_Jun_10_0948	s	s	21	3	SIC	2	RC	0	1	02VD 02VO 02VC 02MD 02MO 02MC 02RD 09RO	0	1	1.28236198425	198.0	-12.0	None	None	0
2.7	2015_Jun_10_0948	s	s	21	3	SIC	3	ABS	0	2	02VD 02VO 02VC 02MD 02MO 02MC 10RD 02RO	0	1	2.09450292587	None	None	None	None	1
2.7	2015_Jun_10_0948	s	s	21	3	SIC	4	ABS	0	1	02VD 02VO 02VC 02MD 02MO 02MC 02RD 10RO	0	1	2.72609210014	None	None	None	None	1
2.7	2015_Jun_10_0948	s	s	21	3	SIC	5	ABS	1	1	02VD 02VO 02VC 02MD 10MO 02MC 02RD 02RO	0	1	1.90626192093	None	None	None	None	1
2.7	2015_Jun_10_0948	s	s	21	3	SIC	6	ABS	1	2	02VD 02VO 02VC 10MD 02MO 02MC 02RD 02RO	0	1	2.47714209557	None	None	None	None	1
2.7	2015_Jun_10_0948	s	s	21	3	SIC	7	RC	2	0	02VD 02VO 09VC 02MD 02MO 02MC 02RD 02RO	1	0	0.844303846359	-1.0	-123.0	-9	-120	1
2.7	2015_Jun_10_0948	s	s	21	3	SIC	8	RC	1	2	02VD 02VO 02VC 09MD 02MO 02MC 02RD 02RO	1	0	1.15289878845	9.0	370.0	6	368	1
2.7	2015_Jun_10_0948	s	s	21	3	SIC	9	RC	1	1	02VD 02VO 02VC 02MD 09MO 02MC 02RD 02RO	0	1	1.32453513145	512.0	-36.0	None	None	0
2.7	2015_Jun_10_0948	s	s	21	3	SIC	10	ABS	1	0	02VD 02VO 02VC 02MD 02MO 10MC 02RD 02RO	0	1	2.45457100868	None	None	None	None	1
2.7	2015_Jun_10_0948	s	s	21	3	SIC	11	RC	2	1	02VD 09VO 02VC 02MD 02MO 02MC 02RD 02RO	1	0	1.55308914185	21.0	-14.0	15	-9	1
2.7	2015_Jun_10_0948	s	s	21	3	SIC	12	ABS	2	1	02VD 10VO 02VC 02MD 02MO 02MC 02RD 02RO	0	1	1.08912611008	None	None	None	None	1
2.7	2015_Jun_10_0948	s	s	21	3	SIC	13	RC	1	0	02VD 02VO 02VC 02MD 02MO 09MC 02RD 02RO	1	0	1.71375989914	464.0	-145.0	461	-143	1
2.7	2015_Jun_10_0948	s	s	21	3	SIC	14	RC	0	2	02VD 02VO 02VC 02MD 02MO 02MC 09RD 02RO	1	0	1.1999630928	364.0	-71.0	363	-72	1
2.7	2015_Jun_10_0948	s	s	21	3	SIC	15	RC	2	2	09VD 02VO 02VC 02MD 02MO 02MC 02RD 02RO	1	0	0.705527067184	-288.0	163.0	-278	169	1
2.7	2015_Jun_10_0948	s	s	21	3	SIC	16	ABS	2	2	10VD 02VO 02VC 02MD 02MO 02MC 02RD 02RO	0	1	0.800004005432	None	None	None	None	1
2.7	2015_Jun_10_0948	s	s	21	3	SIC	17	RC	2	1	02VD 09VO 02VC 02MD 02MO 02MC 02RD 02RO	1	0	0.623221874237	21.0	172.0	21	168	1
2.7	2015_Jun_10_0948	s	s	21	3	SIC	18	RC	1	1	02VD 02VO 02VC 02MD 09MO 02MC 02RD 02RO	1	0	1.94150805473	511.0	-394.0	512	-401	1
2.7	2015_Jun_10_0948	s	s	21	3	SIC	19	RC	2	2	09VD 02VO 02VC 02MD 02MO 02MC 02RD 02RO	1	0	0.63493514061	-9.0	257.0	-7	259	1
2.7	2015_Jun_10_0948	s	s	21	3	SIC	20	ABS	0	2	02VD 02VO 02VC 02MD 02MO 02MC 10RD 02RO	0	1	1.15957903862	None	None	None	None	1
2.7	2015_Jun_10_0948	s	s	21	3	SIC	21	ABS	2	1	02VD 10VO 02VC 02MD 02MO 02MC 02RD 02RO	0	1	1.08896112442	None	None	None	None	1
2.7	2015_Jun_10_0948	s	s	21	3	SIC	22	RC	1	0	02VD 02VO 02VC 02MD 02MO 09MC 02RD 02RO	0	1	0.947734832764	-121.0	-342.0	None	None	0
2.7	2015_Jun_10_0948	s	s	21	3	SIC	23	ABS	0	1	02VD 02VO 02VC 02MD 02MO 02MC 02RD 10RO	0	1	1.37153220177	None	None	None	None	1
2.7	2015_Jun_10_0948	s	s	21	3	SIC	24	ABS	1	0	02VD 02VO 02VC 02MD 02MO 10MC 02RD 02RO	0	1	2.73745012283	None	None	None	None	1
2.7	2015_Jun_10_0948	s	s	21	3	SIC	25	RC	2	0	02VD 02VO 09VC 02MD 02MO 02MC 02RD 02RO	1	0	0.85263800621	505.0	-57.0	511	-65	1
2.7	2015_Jun_10_0948	s	s	21	3	SIC	26	ABS	2	2	10VD 02VO 02VC 02MD 02MO 02MC 02RD 02RO	0	1	1.90311408043	None	None	None	None	1
2.7	2015_Jun_10_0948	s	s	21	3	SIC	27	RC	0	1	02VD 02VO 02VC 02MD 02MO 02MC 02RD 09RO	1	0	1.58284306526	-456.0	343.0	-456	335	1
2.7	2015_Jun_10_0948	s	s	21	3	SIC	28	RC	0	2	02VD 02VO 02VC 02MD 02MO 02MC 09RD 02RO	1	0	1.34780502319	189.0	-321.0	200	-319	1
2.7	2015_Jun_10_0948	s	s	21	3	SIC	29	ABS	1	1	02VD 02VO 02VC 02MD 10MO 02MC 02RD 02RO	0	1	1.82117891312	None	None	None	None	1
2.7	2015_Jun_10_0948	s	s	21	3	SIC	30	ABS	1	2	02VD 02VO 02VC 10MD 02MO 02MC 02RD 02RO	0	1	1.92409110069	None	None	None	None	1
2.7	2015_Jun_10_0948	s	s	21	3	SIC	31	ABS	2	0	02VD 02VO 10VC 02MD 02MO 02MC 02RD 02RO	0	1	1.32455992699	None	None	None	None	1
2.7	2015_Jun_10_0948	s	s	21	3	SIC	32	RC	1	2	02VD 02VO 02VC 09MD 02MO 02MC 02RD 02RO	1	0	1.07729792595	-448.0	-288.0	-443	-293	1
2.7	2015_Jun_10_0948	s	s	21	3	SIC	33	ABS	1	0	02VD 02VO 02VC 02MD 02MO 10MC 02RD 02RO	0	1	1.27667188644	None	None	None	None	1
2.7	2015_Jun_10_0948	s	s	21	3	SIC	34	RC	2	0	02VD 02VO 09VC 02MD 02MO 02MC 02RD 02RO	1	0	0.653362989426	-410.0	-90.0	-408	-97	1
2.7	2015_Jun_10_0948	s	s	21	3	SIC	35	ABS	2	1	02VD 10VO 02VC 02MD 02MO 02MC 02RD 02RO	0	1	1.02337789536	None	None	None	None	1
2.7	2015_Jun_10_0948	s	s	21	3	SIC	36	RC	2	2	09VD 02VO 02VC 02MD 02MO 02MC 02RD 02RO	1	0	0.770753860474	-477.0	361.0	-478	349	1
2.7	2015_Jun_10_0948	s	s	21	3	SIC	37	RC	1	2	02VD 02VO 02VC 09MD 02MO 02MC 02RD 02RO	0	1	1.26576590538	72.0	192.0	None	None	0
2.7	2015_Jun_10_0948	s	s	21	3	SIC	38	ABS	1	1	02VD 02VO 02VC 02MD 10MO 02MC 02RD 02RO	0	1	1.09406208992	None	None	None	None	1
2.7	2015_Jun_10_0948	s	s	21	3	SIC	39	RC	0	2	02VD 02VO 02VC 02MD 02MO 02MC 09RD 02RO	0	1	1.24701595306	236.0	-373.0	None	None	0
2.7	2015_Jun_10_0948	s	s	21	3	SIC	40	RC	1	1	02VD 02VO 02VC 02MD 09MO 02MC 02RD 02RO	1	0	1.57675004005	328.0	-373.0	329	-381	1
2.7	2015_Jun_10_0948	s	s	21	3	SIC	41	ABS	1	2	02VD 02VO 02VC 10MD 02MO 02MC 02RD 02RO	0	1	1.40006399155	None	None	None	None	1
2.7	2015_Jun_10_0948	s	s	21	3	SIC	42	RC	1	0	02VD 02VO 02VC 02MD 02MO 09MC 02RD 02RO	1	0	0.929636001587	-322.0	377.0	-321	369	1
2.7	2015_Jun_10_0948	s	s	21	3	SIC	43	RC	0	1	02VD 02VO 02VC 02MD 02MO 02MC 02RD 09RO	0	1	0.94087100029	-49.0	340.0	None	None	0
2.7	2015_Jun_10_0948	s	s	21	3	SIC	44	ABS	0	2	02VD 02VO 02VC 02MD 02MO 02MC 10RD 02RO	0	1	0.932904005051	None	None	None	None	1
2.7	2015_Jun_10_0948	s	s	21	3	SIC	45	ABS	2	2	10VD 02VO 02VC 02MD 02MO 02MC 02RD 02RO	0	1	0.760970115662	None	None	None	None	1
2.7	2015_Jun_10_0948	s	s	21	3	SIC	46	ABS	2	0	02VD 02VO 10VC 02MD 02MO 02MC 02RD 02RO	0	1	1.48945403099	None	None	None	None	1
2.7	2015_Jun_10_0948	s	s	21	3	SIC	47	RC	2	1	02VD 09VO 02VC 02MD 02MO 02MC 02RD 02RO	0	1	1.15818095207	519.0	-65.0	None	None	0
2.7	2015_Jun_10_0948	s	s	21	3	SIC	48	ABS	0	1	02VD 02VO 02VC 02MD 02MO 02MC 02RD 10RO	0	1	1.62902617455	None	None	None	None	1
2.7	2015_Jun_10_0948	s	s	21	3	SIC	49	ABS	2	2	10VD 02VO 02VC 02MD 02MO 02MC 02RD 02RO	0	1	1.12934112549	None	None	None	None	1
2.7	2015_Jun_10_0948	s	s	21	3	SIC	50	ABS	1	2	02VD 02VO 02VC 10MD 02MO 02MC 02RD 02RO	0	1	1.42018008232	None	None	None	None	1
2.7	2015_Jun_10_0948	s	s	21	3	SIC	51	ABS	2	1	02VD 10VO 02VC 02MD 02MO 02MC 02RD 02RO	0	1	1.17160797119	None	None	None	None	1
2.7	2015_Jun_10_0948	s	s	21	3	SIC	52	RC	1	0	02VD 02VO 02VC 02MD 02MO 09MC 02RD 02RO	1	0	1.18814706802	291.0	-408.0	283	-406	1
2.7	2015_Jun_10_0948	s	s	21	3	SIC	53	ABS	1	0	02VD 02VO 02VC 02MD 02MO 10MC 02RD 02RO	0	1	0.830276012421	None	None	None	None	1
2.7	2015_Jun_10_0948	s	s	21	3	SIC	54	RC	2	1	02VD 09VO 02VC 02MD 02MO 02MC 02RD 02RO	1	0	0.583401918411	-13.0	-47.0	-15	-52	1
2.7	2015_Jun_10_0948	s	s	21	3	SIC	55	ABS	1	1	02VD 02VO 02VC 02MD 10MO 02MC 02RD 02RO	0	1	0.717395067215	None	None	None	None	1
2.7	2015_Jun_10_0948	s	s	21	3	SIC	56	ABS	0	2	02VD 02VO 02VC 02MD 02MO 02MC 10RD 02RO	0	1	0.776286840439	None	None	None	None	1
2.7	2015_Jun_10_0948	s	s	21	3	SIC	57	RC	0	2	02VD 02VO 02VC 02MD 02MO 02MC 09RD 02RO	1	0	0.959643125534	-62.0	-202.0	-60	-204	1
2.7	2015_Jun_10_0948	s	s	21	3	SIC	58	RC	1	1	02VD 02VO 02VC 02MD 09MO 02MC 02RD 02RO	0	1	1.5834710598	259.0	-180.0	None	None	0
2.7	2015_Jun_10_0948	s	s	21	3	SIC	59	RC	1	2	02VD 02VO 02VC 09MD 02MO 02MC 02RD 02RO	0	1	1.17289495468	-461.0	408.0	None	None	0
2.7	2015_Jun_10_0948	s	s	21	3	SIC	60	RC	0	1	02VD 02VO 02VC 02MD 02MO 02MC 02RD 09RO	1	0	1.58029818535	404.0	-341.0	402	-349	1
2.7	2015_Jun_10_0948	s	s	21	3	SIC	61	RC	2	0	02VD 02VO 09VC 02MD 02MO 02MC 02RD 02RO	1	0	1.14842796326	-195.0	224.0	-196	225	1
2.7	2015_Jun_10_0948	s	s	21	3	SIC	62	RC	2	2	09VD 02VO 02VC 02MD 02MO 02MC 02RD 02RO	1	0	1.82382106781	477.0	-396.0	477	-387	1
2.7	2015_Jun_10_0948	s	s	21	3	SIC	63	ABS	0	1	02VD 02VO 02VC 02MD 02MO 02MC 02RD 10RO	0	1	3.04554986954	None	None	None	None	1
2.7	2015_Jun_10_0948	s	s	21	3	SIC	64	ABS	2	0	02VD 02VO 10VC 02MD 02MO 02MC 02RD 02RO	0	1	2.11299800873	None	None	None	None	1
2.7	2015_Jun_10_0948	s	s	21	3	SIC	65	ABS	1	2	02VD 02VO 02VC 10MD 02MO 02MC 02RD 02RO	0	1	1.44715690613	None	None	None	None	1
2.7	2015_Jun_10_0948	s	s	21	3	SIC	66	ABS	1	0	02VD 02VO 02VC 02MD 02MO 10MC 02RD 02RO	0	1	1.33846497536	None	None	None	None	1
2.7	2015_Jun_10_0948	s	s	21	3	SIC	67	RC	0	1	02VD 02VO 02VC 02MD 02MO 02MC 02RD 09RO	1	0	1.55309891701	-13.0	322.0	-17	320	1
2.7	2015_Jun_10_0948	s	s	21	3	SIC	68	RC	2	1	02VD 09VO 02VC 02MD 02MO 02MC 02RD 02RO	1	0	0.914690971375	-483.0	97.0	-475	100	1
2.7	2015_Jun_10_0948	s	s	21	3	SIC	69	RC	1	0	02VD 02VO 02VC 02MD 02MO 09MC 02RD 02RO	1	0	0.858644962311	-196.0	245.0	-196	242	1
2.7	2015_Jun_10_0948	s	s	21	3	SIC	70	ABS	0	2	02VD 02VO 02VC 02MD 02MO 02MC 10RD 02RO	0	1	1.05371809006	None	None	None	None	1
2.7	2015_Jun_10_0948	s	s	21	3	SIC	71	RC	2	2	09VD 02VO 02VC 02MD 02MO 02MC 02RD 02RO	1	0	1.28240704536	-176.0	-403.0	-176	-405	1
2.7	2015_Jun_10_0948	s	s	21	3	SIC	72	RC	2	0	02VD 02VO 09VC 02MD 02MO 02MC 02RD 02RO	1	0	0.611369848251	-246.0	140.0	-245	145	1
2.7	2015_Jun_10_0948	s	s	21	3	SIC	73	RC	1	1	02VD 02VO 02VC 02MD 09MO 02MC 02RD 02RO	1	0	0.811471939087	-504.0	183.0	-505	180	1
2.7	2015_Jun_10_0948	s	s	21	3	SIC	74	RC	1	2	02VD 02VO 02VC 09MD 02MO 02MC 02RD 02RO	1	0	1.04699087143	-497.0	234.0	-495	227	1
2.7	2015_Jun_10_0948	s	s	21	3	SIC	75	ABS	2	1	02VD 10VO 02VC 02MD 02MO 02MC 02RD 02RO	0	1	1.15277600288	None	None	None	None	1
2.7	2015_Jun_10_0948	s	s	21	3	SIC	76	ABS	2	2	10VD 02VO 02VC 02MD 02MO 02MC 02RD 02RO	0	1	0.705634117126	None	None	None	None	1
2.7	2015_Jun_10_0948	s	s	21	3	SIC	77	ABS	2	0	02VD 02VO 10VC 02MD 02MO 02MC 02RD 02RO	0	1	0.999838113785	None	None	None	None	1
2.7	2015_Jun_10_0948	s	s	21	3	SIC	78	ABS	0	1	02VD 02VO 02VC 02MD 02MO 02MC 02RD 10RO	0	1	1.84218096733	None	None	None	None	1
2.7	2015_Jun_10_0948	s	s	21	3	SIC	79	ABS	1	1	02VD 02VO 02VC 02MD 10MO 02MC 02RD 02RO	0	1	0.970855951309	None	None	None	None	1
2.7	2015_Jun_10_0948	s	s	21	3	SIC	80	RC	0	2	02VD 02VO 02VC 02MD 02MO 02MC 09RD 02RO	1	0	1.38823509216	-120.0	175.0	-114	170	1
2.7	2015_Jun_10_0948	s	s	21	3	SIC	81	RC	0	1	02VD 02VO 02VC 02MD 02MO 02MC 02RD 09RO	0	1	1.08965396881	486.0	387.0	None	None	0
2.7	2015_Jun_10_0948	s	s	21	3	SIC	82	ABS	2	2	10VD 02VO 02VC 02MD 02MO 02MC 02RD 02RO	0	1	1.15652322769	None	None	None	None	1
2.7	2015_Jun_10_0948	s	s	21	3	SIC	83	ABS	0	2	02VD 02VO 02VC 02MD 02MO 02MC 10RD 02RO	0	1	0.870399951935	None	None	None	None	1
2.7	2015_Jun_10_0948	s	s	21	3	SIC	84	ABS	1	0	02VD 02VO 02VC 02MD 02MO 10MC 02RD 02RO	0	1	1.10064291954	None	None	None	None	1
2.7	2015_Jun_10_0948	s	s	21	3	SIC	85	RC	1	0	02VD 02VO 02VC 02MD 02MO 09MC 02RD 02RO	0	1	1.21855902672	-340.0	200.0	None	None	0
2.7	2015_Jun_10_0948	s	s	21	3	SIC	86	ABS	2	1	02VD 10VO 02VC 02MD 02MO 02MC 02RD 02RO	0	1	0.960472106934	None	None	None	None	1
2.7	2015_Jun_10_0948	s	s	21	3	SIC	87	RC	0	2	02VD 02VO 02VC 02MD 02MO 02MC 09RD 02RO	1	0	1.35341715813	-356.0	14.0	-354	13	1
2.7	2015_Jun_10_0948	s	s	21	3	SIC	88	ABS	0	1	02VD 02VO 02VC 02MD 02MO 02MC 02RD 10RO	0	1	1.68923711777	None	None	None	None	1
2.7	2015_Jun_10_0948	s	s	21	3	SIC	89	RC	1	2	02VD 02VO 02VC 09MD 02MO 02MC 02RD 02RO	1	0	1.14786291122	-401.0	-16.0	-391	-18	1
2.7	2015_Jun_10_0948	s	s	21	3	SIC	90	ABS	1	2	02VD 02VO 02VC 10MD 02MO 02MC 02RD 02RO	0	1	1.12438297272	None	None	None	None	1
2.7	2015_Jun_10_0948	s	s	21	3	SIC	91	ABS	2	0	02VD 02VO 10VC 02MD 02MO 02MC 02RD 02RO	0	1	0.994786977768	None	None	None	None	1
2.7	2015_Jun_10_0948	s	s	21	3	SIC	92	RC	2	2	09VD 02VO 02VC 02MD 02MO 02MC 02RD 02RO	1	0	0.618043899536	-283.0	177.0	-282	173	1
2.7	2015_Jun_10_0948	s	s	21	3	SIC	93	RC	1	1	02VD 02VO 02VC 02MD 09MO 02MC 02RD 02RO	1	0	0.783140897751	-106.0	264.0	-107	255	1
2.7	2015_Jun_10_0948	s	s	21	3	SIC	94	ABS	1	1	02VD 02VO 02VC 02MD 10MO 02MC 02RD 02RO	0	1	0.952781915665	None	None	None	None	1
2.7	2015_Jun_10_0948	s	s	21	3	SIC	95	RC	2	0	02VD 02VO 09VC 02MD 02MO 02MC 02RD 02RO	1	0	0.740978002548	-220.0	310.0	-219	304	1
2.7	2015_Jun_10_0948	s	s	21	3	SIC	96	RC	2	1	02VD 09VO 02VC 02MD 02MO 02MC 02RD 02RO	1	0	0.735293865204	-87.0	343.0	-89	348	1
2.7	2015_Jun_10_0948	s	s	21	3	SIC	97	RC	2	2	09VD 02VO 02VC 02MD 02MO 02MC 02RD 02RO	0	1	1.42399001122	400.0	-145.0	None	None	0
2.7	2015_Jun_10_0948	s	s	21	3	SIC	98	ABS	0	1	02VD 02VO 02VC 02MD 02MO 02MC 02RD 10RO	0	1	1.73627400398	None	None	None	None	1
2.7	2015_Jun_10_0948	s	s	21	3	SIC	99	RC	2	1	02VD 09VO 02VC 02MD 02MO 02MC 02RD 02RO	1	0	0.670251131058	-30.0	186.0	-29	186	1
2.7	2015_Jun_10_0948	s	s	21	3	SIC	100	RC	1	0	02VD 02VO 02VC 02MD 02MO 09MC 02RD 02RO	1	0	0.564541101456	85.0	-38.0	89	-50	1
2.7	2015_Jun_10_0948	s	s	21	3	SIC	101	ABS	1	2	02VD 02VO 02VC 10MD 02MO 02MC 02RD 02RO	0	1	1.17641997337	None	None	None	None	1
2.7	2015_Jun_10_0948	s	s	21	3	SIC	102	RC	0	1	02VD 02VO 02VC 02MD 02MO 02MC 02RD 09RO	1	0	0.611433982849	-142.0	32.0	-140	32	1
2.7	2015_Jun_10_0948	s	s	21	3	SIC	103	ABS	2	1	02VD 10VO 02VC 02MD 02MO 02MC 02RD 02RO	0	1	0.853586196899	None	None	None	None	1
2.7	2015_Jun_10_0948	s	s	21	3	SIC	104	RC	2	0	02VD 02VO 09VC 02MD 02MO 02MC 02RD 02RO	0	1	0.917442083359	483.0	-397.0	None	None	0
2.7	2015_Jun_10_0948	s	s	21	3	SIC	105	ABS	0	2	02VD 02VO 02VC 02MD 02MO 02MC 10RD 02RO	0	1	1.01835393906	None	None	None	None	1
2.7	2015_Jun_10_0948	s	s	21	3	SIC	106	ABS	2	2	10VD 02VO 02VC 02MD 02MO 02MC 02RD 02RO	0	1	0.717432975769	None	None	None	None	1
2.7	2015_Jun_10_0948	s	s	21	3	SIC	107	RC	0	2	02VD 02VO 02VC 02MD 02MO 02MC 09RD 02RO	0	1	0.650337934494	-98.0	-268.0	None	None	0
2.7	2015_Jun_10_0948	s	s	21	3	SIC	108	ABS	1	0	02VD 02VO 02VC 02MD 02MO 10MC 02RD 02RO	0	1	1.93842411041	None	None	None	None	1
2.7	2015_Jun_10_0948	s	s	21	3	SIC	109	RC	1	2	02VD 02VO 02VC 09MD 02MO 02MC 02RD 02RO	0	1	1.11757588387	455.0	-139.0	None	None	0
2.7	2015_Jun_10_0948	s	s	21	3	SIC	110	RC	1	1	02VD 02VO 02VC 02MD 09MO 02MC 02RD 02RO	1	0	0.83243894577	-25.0	-81.0	-26	-87	1
2.7	2015_Jun_10_0948	s	s	21	3	SIC	111	ABS	2	0	02VD 02VO 10VC 02MD 02MO 02MC 02RD 02RO	0	1	0.940890073776	None	None	None	None	1
2.7	2015_Jun_10_0948	s	s	21	3	SIC	112	ABS	1	1	02VD 02VO 02VC 02MD 10MO 02MC 02RD 02RO	0	1	0.985310792923	None	None	None	None	1
2.7	2015_Jun_10_0948	s	s	21	3	SIC	113	RC	2	2	09VD 02VO 02VC 02MD 02MO 02MC 02RD 02RO	1	0	1.45900893211	-148.0	-202.0	-148	-210	1
2.7	2015_Jun_10_0948	s	s	21	3	SIC	114	RC	0	2	02VD 02VO 02VC 02MD 02MO 02MC 09RD 02RO	0	1	1.17128491402	-458.0	379.0	None	None	0
2.7	2015_Jun_10_0948	s	s	21	3	SIC	115	ABS	2	2	10VD 02VO 02VC 02MD 02MO 02MC 02RD 02RO	0	1	1.04698109627	None	None	None	None	1
2.7	2015_Jun_10_0948	s	s	21	3	SIC	116	RC	2	1	02VD 09VO 02VC 02MD 02MO 02MC 02RD 02RO	0	1	0.894284009933	500.0	-173.0	None	None	0
2.7	2015_Jun_10_0948	s	s	21	3	SIC	117	RC	1	2	02VD 02VO 02VC 09MD 02MO 02MC 02RD 02RO	1	0	0.929239034653	14.0	-107.0	25	-98	1
2.7	2015_Jun_10_0948	s	s	21	3	SIC	118	RC	1	1	02VD 02VO 02VC 02MD 09MO 02MC 02RD 02RO	1	0	0.759221076965	-396.0	311.0	-393	304	1
2.7	2015_Jun_10_0948	s	s	21	3	SIC	119	RC	2	0	02VD 02VO 09VC 02MD 02MO 02MC 02RD 02RO	1	0	1.47731399536	399.0	-296.0	402	-299	1
2.7	2015_Jun_10_0948	s	s	21	3	SIC	120	ABS	1	2	02VD 02VO 02VC 10MD 02MO 02MC 02RD 02RO	0	1	1.3883330822	None	None	None	None	1
2.7	2015_Jun_10_0948	s	s	21	3	SIC	121	ABS	1	1	02VD 02VO 02VC 02MD 10MO 02MC 02RD 02RO	0	1	2.0187060833	None	None	None	None	1
2.7	2015_Jun_10_0948	s	s	21	3	SIC	122	ABS	1	0	02VD 02VO 02VC 02MD 02MO 10MC 02RD 02RO	0	1	1.19999480247	None	None	None	None	1
2.7	2015_Jun_10_0948	s	s	21	3	SIC	123	RC	0	1	02VD 02VO 02VC 02MD 02MO 02MC 02RD 09RO	1	0	0.776590824127	-196.0	133.0	-200	138	1
2.7	2015_Jun_10_0948	s	s	21	3	SIC	124	ABS	0	1	02VD 02VO 02VC 02MD 02MO 02MC 02RD 10RO	0	1	1.83066320419	None	None	None	None	1
2.7	2015_Jun_10_0948	s	s	21	3	SIC	125	ABS	2	1	02VD 10VO 02VC 02MD 02MO 02MC 02RD 02RO	0	1	1.09400892258	None	None	None	None	1
2.7	2015_Jun_10_0948	s	s	21	3	SIC	126	ABS	2	0	02VD 02VO 10VC 02MD 02MO 02MC 02RD 02RO	0	1	1.59540700912	None	None	None	None	1
2.7	2015_Jun_10_0948	s	s	21	3	SIC	127	ABS	0	2	02VD 02VO 02VC 02MD 02MO 02MC 10RD 02RO	0	1	1.117882967	None	None	None	None	1
2.7	2015_Jun_10_0948	s	s	21	3	SIC	128	RC	1	0	02VD 02VO 02VC 02MD 02MO 09MC 02RD 02RO	1	0	0.693851947784	-59.0	-24.0	-56	-27	1
2.7	2015_Jun_10_0948	s	s	21	3	SIC	129	RC	0	2	02VD 02VO 02VC 02MD 02MO 02MC 09RD 02RO	1	0	1.33623099327	-80.0	-184.0	-75	-192	1
2.7	2015_Jun_10_0948	s	s	21	3	SIC	130	ABS	2	0	02VD 02VO 10VC 02MD 02MO 02MC 02RD 02RO	0	1	0.958472013474	None	None	None	None	1
2.7	2015_Jun_10_0948	s	s	21	3	SIC	131	ABS	1	1	02VD 02VO 02VC 02MD 10MO 02MC 02RD 02RO	0	1	1.48942303658	None	None	None	None	1
2.7	2015_Jun_10_0948	s	s	21	3	SIC	132	ABS	0	2	02VD 02VO 02VC 02MD 02MO 02MC 10RD 02RO	0	1	1.0352139473	None	None	None	None	1
2.7	2015_Jun_10_0948	s	s	21	3	SIC	133	RC	2	2	09VD 02VO 02VC 02MD 02MO 02MC 02RD 02RO	1	0	1.73647403717	459.0	1.0	454	6	1
2.7	2015_Jun_10_0948	s	s	21	3	SIC	134	RC	1	1	02VD 02VO 02VC 02MD 09MO 02MC 02RD 02RO	1	0	0.705809116364	-115.0	117.0	-111	104	1
2.7	2015_Jun_10_0948	s	s	21	3	SIC	135	RC	1	0	02VD 02VO 02VC 02MD 02MO 09MC 02RD 02RO	1	0	2.77096295357	304.0	124.0	313	120	1
2.7	2015_Jun_10_0948	s	s	21	3	SIC	136	RC	2	0	02VD 02VO 09VC 02MD 02MO 02MC 02RD 02RO	1	0	1.18826818466	357.0	-234.0	348	-233	1
2.7	2015_Jun_10_0948	s	s	21	3	SIC	137	ABS	2	1	02VD 10VO 02VC 02MD 02MO 02MC 02RD 02RO	0	1	1.21859407425	None	None	None	None	1
2.7	2015_Jun_10_0948	s	s	21	3	SIC	138	RC	0	1	02VD 02VO 02VC 02MD 02MO 02MC 02RD 09RO	1	0	1.23529314995	-159.0	244.0	-157	231	1
2.7	2015_Jun_10_0948	s	s	21	3	SIC	139	ABS	0	1	02VD 02VO 02VC 02MD 02MO 02MC 02RD 10RO	0	1	1.88961791992	None	None	None	None	1
2.7	2015_Jun_10_0948	s	s	21	3	SIC	140	ABS	2	2	10VD 02VO 02VC 02MD 02MO 02MC 02RD 02RO	0	1	0.949399232864	None	None	None	None	1
2.7	2015_Jun_10_0948	s	s	21	3	SIC	141	RC	2	1	02VD 09VO 02VC 02MD 02MO 02MC 02RD 02RO	0	1	0.816984891891	368.0	241.0	None	None	0
2.7	2015_Jun_10_0948	s	s	21	3	SIC	142	ABS	1	2	02VD 02VO 02VC 10MD 02MO 02MC 02RD 02RO	0	1	1.40878891945	None	None	None	None	1
2.7	2015_Jun_10_0948	s	s	21	3	SIC	143	ABS	1	0	02VD 02VO 02VC 02MD 02MO 10MC 02RD 02RO	0	1	0.971284866333	None	None	None	None	1
2.7	2015_Jun_10_0948	s	s	21	3	SIC	144	RC	1	2	02VD 02VO 02VC 09MD 02MO 02MC 02RD 02RO	1	0	1.0798099041	449.0	250.0	448	242	1
2.7	2015_Jun_10_0948	s	s	21	3	SIC	145	ABS	2	2	10VD 02VO 02VC 02MD 02MO 02MC 02RD 02RO	0	1	1.35301995277	None	None	None	None	1
2.7	2015_Jun_10_0948	s	s	21	3	SIC	146	ABS	0	2	02VD 02VO 02VC 02MD 02MO 02MC 10RD 02RO	0	1	1.1482000351	None	None	None	None	1
2.7	2015_Jun_10_0948	s	s	21	3	SIC	147	RC	2	0	02VD 02VO 09VC 02MD 02MO 02MC 02RD 02RO	1	0	0.547612905502	-84.0	192.0	-87	193	1
2.7	2015_Jun_10_0948	s	s	21	3	SIC	148	ABS	0	1	02VD 02VO 02VC 02MD 02MO 02MC 02RD 10RO	0	1	2.25969314575	None	None	None	None	1
2.7	2015_Jun_10_0948	s	s	21	3	SIC	149	RC	0	2	02VD 02VO 02VC 02MD 02MO 02MC 09RD 02RO	0	1	1.15287685394	-229.0	366.0	None	None	0
2.7	2015_Jun_10_0948	s	s	21	3	SIC	150	ABS	1	2	02VD 02VO 02VC 10MD 02MO 02MC 02RD 02RO	0	1	1.52953791618	None	None	None	None	1
2.7	2015_Jun_10_0948	s	s	21	3	SIC	151	ABS	2	1	02VD 10VO 02VC 02MD 02MO 02MC 02RD 02RO	0	1	1.19499897957	None	None	None	None	1
2.7	2015_Jun_10_0948	s	s	21	3	SIC	152	ABS	2	0	02VD 02VO 10VC 02MD 02MO 02MC 02RD 02RO	0	1	0.670203924179	None	None	None	None	1
2.7	2015_Jun_10_0948	s	s	21	3	SIC	153	RC	0	1	02VD 02VO 02VC 02MD 02MO 02MC 02RD 09RO	1	0	0.583515167236	56.0	-31.0	59	-22	1
2.7	2015_Jun_10_0948	s	s	21	3	SIC	154	ABS	1	0	02VD 02VO 02VC 02MD 02MO 10MC 02RD 02RO	0	1	0.740952968597	None	None	None	None	1
2.7	2015_Jun_10_0948	s	s	21	3	SIC	155	RC	2	1	02VD 09VO 02VC 02MD 02MO 02MC 02RD 02RO	1	0	0.552551984787	-287.0	58.0	-288	53	1
2.7	2015_Jun_10_0948	s	s	21	3	SIC	156	RC	1	1	02VD 02VO 02VC 02MD 09MO 02MC 02RD 02RO	0	1	0.701084852219	515.0	-259.0	None	None	0
2.7	2015_Jun_10_0948	s	s	21	3	SIC	157	RC	2	2	09VD 02VO 02VC 02MD 02MO 02MC 02RD 02RO	1	0	0.571076869965	-310.0	-342.0	-287	-217	0
2.7	2015_Jun_10_0948	s	s	21	3	SIC	158	RC	1	2	02VD 02VO 02VC 09MD 02MO 02MC 02RD 02RO	1	0	0.70071387291	130.0	270.0	132	265	1
2.7	2015_Jun_10_0948	s	s	21	3	SIC	159	RC	1	0	02VD 02VO 02VC 02MD 02MO 09MC 02RD 02RO	1	0	0.982807159424	218.0	-343.0	217	-350	1
2.7	2015_Jun_10_0948	s	s	21	3	SIC	160	ABS	1	1	02VD 02VO 02VC 02MD 10MO 02MC 02RD 02RO	0	1	0.964523077011	None	None	None	None	1
2.7	2015_Jun_10_0948	s	s	21	3	SIC	161	RC	1	2	02VD 02VO 02VC 09MD 02MO 02MC 02RD 02RO	1	0	0.811455965042	55.0	265.0	63	261	1
2.7	2015_Jun_10_0948	s	s	21	3	SIC	162	ABS	1	1	02VD 02VO 02VC 02MD 10MO 02MC 02RD 02RO	0	1	1.33674502373	None	None	None	None	1
2.7	2015_Jun_10_0948	s	s	21	3	SIC	163	ABS	0	2	02VD 02VO 02VC 02MD 02MO 02MC 10RD 02RO	0	1	1.00724887848	None	None	None	None	1
2.7	2015_Jun_10_0948	s	s	21	3	SIC	164	RC	2	2	09VD 02VO 02VC 02MD 02MO 02MC 02RD 02RO	1	0	0.490438938141	-117.0	228.0	-121	227	1
2.7	2015_Jun_10_0948	s	s	21	3	SIC	165	RC	1	0	02VD 02VO 02VC 02MD 02MO 09MC 02RD 02RO	1	0	0.503159999847	23.0	86.0	26	76	1
2.7	2015_Jun_10_0948	s	s	21	3	SIC	166	RC	2	1	02VD 09VO 02VC 02MD 02MO 02MC 02RD 02RO	0	1	1.04367184639	-328.0	-64.0	None	None	0
2.7	2015_Jun_10_0948	s	s	21	3	SIC	167	ABS	2	2	10VD 02VO 02VC 02MD 02MO 02MC 02RD 02RO	0	1	1.15969800949	None	None	None	None	1
2.7	2015_Jun_10_0948	s	s	21	3	SIC	168	RC	2	0	02VD 02VO 09VC 02MD 02MO 02MC 02RD 02RO	1	0	1.8944580555	381.0	408.0	379	412	1
2.7	2015_Jun_10_0948	s	s	21	3	SIC	169	ABS	1	2	02VD 02VO 02VC 10MD 02MO 02MC 02RD 02RO	0	1	1.95328021049	None	None	None	None	1
2.7	2015_Jun_10_0948	s	s	21	3	SIC	170	ABS	1	0	02VD 02VO 02VC 02MD 02MO 10MC 02RD 02RO	0	1	1.4782910347	None	None	None	None	1
2.7	2015_Jun_10_0948	s	s	21	3	SIC	171	RC	0	2	02VD 02VO 02VC 02MD 02MO 02MC 09RD 02RO	1	0	0.841820001602	203.0	231.0	201	228	1
2.7	2015_Jun_10_0948	s	s	21	3	SIC	172	RC	0	1	02VD 02VO 02VC 02MD 02MO 02MC 02RD 09RO	1	0	0.576169967651	-262.0	169.0	-261	160	1
2.7	2015_Jun_10_0948	s	s	21	3	SIC	173	ABS	2	1	02VD 10VO 02VC 02MD 02MO 02MC 02RD 02RO	0	1	1.07051086426	None	None	None	None	1
2.7	2015_Jun_10_0948	s	s	21	3	SIC	174	RC	1	1	02VD 02VO 02VC 02MD 09MO 02MC 02RD 02RO	1	0	0.631943941116	-45.0	241.0	-48	237	1
2.7	2015_Jun_10_0948	s	s	21	3	SIC	175	ABS	2	0	02VD 02VO 10VC 02MD 02MO 02MC 02RD 02RO	0	1	0.99991106987	None	None	None	None	1
2.7	2015_Jun_10_0948	s	s	21	3	SIC	176	ABS	0	1	02VD 02VO 02VC 02MD 02MO 02MC 02RD 10RO	0	1	3.04251909256	None	None	None	None	1
2.7	2015_Jun_10_0948	s	s	21	3	SIC	177	RC	1	2	02VD 02VO 02VC 09MD 02MO 02MC 02RD 02RO	1	0	0.576109886169	84.0	-90.0	88	-97	1
2.7	2015_Jun_10_0948	s	s	21	3	SIC	178	RC	2	0	02VD 02VO 09VC 02MD 02MO 02MC 02RD 02RO	1	0	0.528981924057	10.0	-25.0	12	-29	1
2.7	2015_Jun_10_0948	s	s	21	3	SIC	179	RC	0	2	02VD 02VO 02VC 02MD 02MO 02MC 09RD 02RO	0	1	1.35301995277	356.0	87.0	None	None	0
2.7	2015_Jun_10_0948	s	s	21	3	SIC	180	ABS	1	0	02VD 02VO 02VC 02MD 02MO 10MC 02RD 02RO	0	1	0.797522068024	None	None	None	None	1
2.7	2015_Jun_10_0948	s	s	21	3	SIC	181	RC	2	1	02VD 09VO 02VC 02MD 02MO 02MC 02RD 02RO	0	1	0.835502147675	416.0	-318.0	None	None	0
2.7	2015_Jun_10_0948	s	s	21	3	SIC	182	ABS	1	1	02VD 02VO 02VC 02MD 10MO 02MC 02RD 02RO	0	1	1.40659689903	None	None	None	None	1
2.7	2015_Jun_10_0948	s	s	21	3	SIC	183	RC	0	1	02VD 02VO 02VC 02MD 02MO 02MC 02RD 09RO	0	1	1.08633303642	510.0	7.0	None	None	0
2.7	2015_Jun_10_0948	s	s	21	3	SIC	184	ABS	0	2	02VD 02VO 02VC 02MD 02MO 02MC 10RD 02RO	0	1	1.48973107338	None	None	None	None	1
2.7	2015_Jun_10_0948	s	s	21	3	SIC	185	RC	2	2	09VD 02VO 02VC 02MD 02MO 02MC 02RD 02RO	1	0	0.487371921539	-176.0	106.0	-181	100	1
2.7	2015_Jun_10_0948	s	s	21	3	SIC	186	ABS	2	2	10VD 02VO 02VC 02MD 02MO 02MC 02RD 02RO	0	1	0.747624874115	None	None	None	None	1
2.7	2015_Jun_10_0948	s	s	21	3	SIC	187	ABS	1	2	02VD 02VO 02VC 10MD 02MO 02MC 02RD 02RO	0	1	0.855283975601	None	None	None	None	1
2.7	2015_Jun_10_0948	s	s	21	3	SIC	188	ABS	2	0	02VD 02VO 10VC 02MD 02MO 02MC 02RD 02RO	0	1	0.783393144608	None	None	None	None	1
2.7	2015_Jun_10_0948	s	s	21	3	SIC	189	RC	1	0	02VD 02VO 02VC 02MD 02MO 09MC 02RD 02RO	1	0	0.844118833542	-103.0	214.0	-105	217	1
2.7	2015_Jun_10_0948	s	s	21	3	SIC	190	RC	1	1	02VD 02VO 02VC 02MD 09MO 02MC 02RD 02RO	1	0	0.929264068604	270.0	179.0	269	180	1
2.7	2015_Jun_10_0948	s	s	21	3	SIC	191	ABS	2	1	02VD 10VO 02VC 02MD 02MO 02MC 02RD 02RO	0	1	1.18820595741	None	None	None	None	1
2.7	2015_Jun_10_0948	s	s	21	3	SIC	192	ABS	0	1	02VD 02VO 02VC 02MD 02MO 02MC 02RD 10RO	0	1	3.41972303391	None	None	None	None	1
2.7	2015_Jun_10_0948	s	s	21	3	SIC	193	ABS	1	0	02VD 02VO 02VC 02MD 02MO 10MC 02RD 02RO	0	1	1.16466498375	None	None	None	None	1
2.7	2015_Jun_10_0948	s	s	21	3	SIC	194	ABS	2	1	02VD 10VO 02VC 02MD 02MO 02MC 02RD 02RO	0	1	1.00803399086	None	None	None	None	1
2.7	2015_Jun_10_0948	s	s	21	3	SIC	195	ABS	1	2	02VD 02VO 02VC 10MD 02MO 02MC 02RD 02RO	0	1	1.13614606857	None	None	None	None	1
2.7	2015_Jun_10_0948	s	s	21	3	SIC	196	RC	1	0	02VD 02VO 02VC 02MD 02MO 09MC 02RD 02RO	1	0	1.62360882759	477.0	-118.0	471	-118	1
2.7	2015_Jun_10_0948	s	s	21	3	SIC	197	RC	0	1	02VD 02VO 02VC 02MD 02MO 02MC 02RD 09RO	1	0	3.14210510254	-420.0	-286.0	-423	-290	1
2.7	2015_Jun_10_0948	s	s	21	3	SIC	198	ABS	0	2	02VD 02VO 02VC 02MD 02MO 02MC 10RD 02RO	0	1	1.67074012756	None	None	None	None	1
2.7	2015_Jun_10_0948	s	s	21	3	SIC	199	RC	2	0	02VD 02VO 09VC 02MD 02MO 02MC 02RD 02RO	1	0	1.27656292915	59.0	-150.0	61	-146	1
2.7	2015_Jun_10_0948	s	s	21	3	SIC	200	ABS	2	2	10VD 02VO 02VC 02MD 02MO 02MC 02RD 02RO	0	1	1.18492388725	None	None	None	None	1
2.7	2015_Jun_10_0948	s	s	21	3	SIC	201	ABS	2	0	02VD 02VO 10VC 02MD 02MO 02MC 02RD 02RO	0	1	2.65944314003	None	None	None	None	1
2.7	2015_Jun_10_0948	s	s	21	3	SIC	202	RC	0	2	02VD 02VO 02VC 02MD 02MO 02MC 09RD 02RO	1	0	0.877274036407	-370.0	-152.0	-362	-150	1
2.7	2015_Jun_10_0948	s	s	21	3	SIC	203	RC	1	1	02VD 02VO 02VC 02MD 09MO 02MC 02RD 02RO	1	0	1.20669317245	-176.0	-128.0	-185	-128	1
2.7	2015_Jun_10_0948	s	s	21	3	SIC	204	ABS	1	1	02VD 02VO 02VC 02MD 10MO 02MC 02RD 02RO	0	1	1.15967917442	None	None	None	None	1
2.7	2015_Jun_10_0948	s	s	21	3	SIC	205	RC	1	2	02VD 02VO 02VC 09MD 02MO 02MC 02RD 02RO	0	1	1.30107092857	-389.0	-408.0	None	None	0
2.7	2015_Jun_10_0948	s	s	21	3	SIC	206	ABS	0	1	02VD 02VO 02VC 02MD 02MO 02MC 02RD 10RO	0	1	2.32996082306	None	None	None	None	1
2.7	2015_Jun_10_0948	s	s	21	3	SIC	207	RC	2	1	02VD 09VO 02VC 02MD 02MO 02MC 02RD 02RO	1	0	1.45542502403	-312.0	100.0	-307	97	1
2.7	2015_Jun_10_0948	s	s	21	3	SIC	208	RC	2	2	09VD 02VO 02VC 02MD 02MO 02MC 02RD 02RO	1	0	0.973371982574	475.0	334.0	481	341	1
2.7	2015_Jun_10_0948	s	s	21	3	SIC	209	ABS	2	0	02VD 02VO 10VC 02MD 02MO 02MC 02RD 02RO	0	1	2.63116598129	None	None	None	None	1
2.7	2015_Jun_10_0948	s	s	21	3	SIC	210	ABS	0	1	02VD 02VO 02VC 02MD 02MO 02MC 02RD 10RO	0	1	2.4184191227	None	None	None	None	1
2.7	2015_Jun_10_0948	s	s	21	3	SIC	211	ABS	0	2	02VD 02VO 02VC 02MD 02MO 02MC 10RD 02RO	0	1	1.75314879417	None	None	None	None	1
2.7	2015_Jun_10_0948	s	s	21	3	SIC	212	RC	0	1	02VD 02VO 02VC 02MD 02MO 02MC 02RD 09RO	0	1	1.77107310295	325.0	404.0	None	None	0
2.7	2015_Jun_10_0948	s	s	21	3	SIC	213	RC	2	0	02VD 02VO 09VC 02MD 02MO 02MC 02RD 02RO	1	0	0.911822795868	-46.0	365.0	-43	362	1
2.7	2015_Jun_10_0948	s	s	21	3	SIC	214	RC	1	1	02VD 02VO 02VC 02MD 09MO 02MC 02RD 02RO	1	0	1.15948796272	-126.0	328.0	-119	327	1
2.7	2015_Jun_10_0948	s	s	21	3	SIC	215	ABS	1	0	02VD 02VO 02VC 02MD 02MO 10MC 02RD 02RO	0	1	1.23021697998	None	None	None	None	1
2.7	2015_Jun_10_0948	s	s	21	3	SIC	216	ABS	1	2	02VD 02VO 02VC 10MD 02MO 02MC 02RD 02RO	0	1	1.45929288864	None	None	None	None	1
2.7	2015_Jun_10_0948	s	s	21	3	SIC	217	RC	2	2	09VD 02VO 02VC 02MD 02MO 02MC 02RD 02RO	0	1	0.93564915657	-510.0	-246.0	None	None	0
2.7	2015_Jun_10_0948	s	s	21	3	SIC	218	RC	1	0	02VD 02VO 02VC 02MD 02MO 09MC 02RD 02RO	0	1	1.03516197205	480.0	89.0	None	None	0
2.7	2015_Jun_10_0948	s	s	21	3	SIC	219	ABS	2	1	02VD 10VO 02VC 02MD 02MO 02MC 02RD 02RO	0	1	0.890360116959	None	None	None	None	1
2.7	2015_Jun_10_0948	s	s	21	3	SIC	220	ABS	2	2	10VD 02VO 02VC 02MD 02MO 02MC 02RD 02RO	0	1	0.74746799469	None	None	None	None	1
2.7	2015_Jun_10_0948	s	s	21	3	SIC	221	ABS	1	1	02VD 02VO 02VC 02MD 10MO 02MC 02RD 02RO	0	1	1.58377981186	None	None	None	None	1
2.7	2015_Jun_10_0948	s	s	21	3	SIC	222	RC	2	1	02VD 09VO 02VC 02MD 02MO 02MC 02RD 02RO	1	0	1.12471008301	199.0	-268.0	197	-272	1
2.7	2015_Jun_10_0948	s	s	21	3	SIC	223	RC	0	2	02VD 02VO 02VC 02MD 02MO 02MC 09RD 02RO	1	0	1.18332695961	433.0	-26.0	439	-35	1
2.7	2015_Jun_10_0948	s	s	21	3	SIC	224	RC	1	2	02VD 02VO 02VC 09MD 02MO 02MC 02RD 02RO	1	0	0.606949090958	-105.0	-75.0	-103	-79	1
2.7	2015_Jun_10_0948	s	s	21	3	SIC	225	ABS	2	2	10VD 02VO 02VC 02MD 02MO 02MC 02RD 02RO	0	1	1.03274798393	None	None	None	None	1
2.7	2015_Jun_10_0948	s	s	21	3	SIC	226	ABS	1	2	02VD 02VO 02VC 10MD 02MO 02MC 02RD 02RO	0	1	1.50050497055	None	None	None	None	1
2.7	2015_Jun_10_0948	s	s	21	3	SIC	227	RC	2	1	02VD 09VO 02VC 02MD 02MO 02MC 02RD 02RO	1	0	1.07778286934	330.0	104.0	331	108	1
2.7	2015_Jun_10_0948	s	s	21	3	SIC	228	RC	2	2	09VD 02VO 02VC 02MD 02MO 02MC 02RD 02RO	1	0	1.05361008644	-262.0	399.0	-259	398	1
2.7	2015_Jun_10_0948	s	s	21	3	SIC	229	ABS	1	0	02VD 02VO 02VC 02MD 02MO 10MC 02RD 02RO	0	1	1.57158184052	None	None	None	None	1
2.7	2015_Jun_10_0948	s	s	21	3	SIC	230	RC	0	2	02VD 02VO 02VC 02MD 02MO 02MC 09RD 02RO	1	0	0.584471940994	-34.0	186.0	-29	187	1
2.7	2015_Jun_10_0948	s	s	21	3	SIC	231	ABS	0	2	02VD 02VO 02VC 02MD 02MO 02MC 10RD 02RO	0	1	1.11422801018	None	None	None	None	1
2.7	2015_Jun_10_0948	s	s	21	3	SIC	232	ABS	1	1	02VD 02VO 02VC 02MD 10MO 02MC 02RD 02RO	0	1	1.15978193283	None	None	None	None	1
2.7	2015_Jun_10_0948	s	s	21	3	SIC	233	ABS	2	1	02VD 10VO 02VC 02MD 02MO 02MC 02RD 02RO	0	1	0.938298940659	None	None	None	None	1
2.7	2015_Jun_10_0948	s	s	21	3	SIC	234	RC	1	1	02VD 02VO 02VC 02MD 09MO 02MC 02RD 02RO	0	1	1.23529314995	-263.0	343.0	None	None	0
2.7	2015_Jun_10_0948	s	s	21	3	SIC	235	RC	2	0	02VD 02VO 09VC 02MD 02MO 02MC 02RD 02RO	1	0	1.15960001945	-6.0	-400.0	-9	-401	1
2.7	2015_Jun_10_0948	s	s	21	3	SIC	236	ABS	0	1	02VD 02VO 02VC 02MD 02MO 02MC 02RD 10RO	0	1	2.08275294304	None	None	None	None	1
2.7	2015_Jun_10_0948	s	s	21	3	SIC	237	RC	0	1	02VD 02VO 02VC 02MD 02MO 02MC 02RD 09RO	1	0	2.36003398895	-387.0	-124.0	-382	-125	1
2.7	2015_Jun_10_0948	s	s	21	3	SIC	238	RC	1	0	02VD 02VO 02VC 02MD 02MO 09MC 02RD 02RO	0	1	0.905647993088	14.0	335.0	None	None	0
2.7	2015_Jun_10_0948	s	s	21	3	SIC	239	ABS	2	0	02VD 02VO 10VC 02MD 02MO 02MC 02RD 02RO	0	1	1.25274705887	None	None	None	None	1
2.7	2015_Jun_10_0948	s	s	21	3	SIC	240	RC	1	2	02VD 02VO 02VC 09MD 02MO 02MC 02RD 02RO	1	0	1.00803399086	273.0	90.0	271	87	1
2.7	2015_Jun_10_0948	s	s	21	3	SIC	241	ABS	1	1	02VD 02VO 02VC 02MD 10MO 02MC 02RD 02RO	0	1	1.26723098755	None	None	None	None	1
2.7	2015_Jun_10_0948	s	s	21	3	SIC	242	RC	1	2	02VD 02VO 02VC 09MD 02MO 02MC 02RD 02RO	1	0	0.823214054108	-220.0	-306.0	-221	-305	1
2.7	2015_Jun_10_0948	s	s	21	3	SIC	243	RC	2	0	02VD 02VO 09VC 02MD 02MO 02MC 02RD 02RO	1	0	0.666980981827	-342.0	-275.0	-25	143	0
2.7	2015_Jun_10_0948	s	s	21	3	SIC	244	RC	1	0	02VD 02VO 02VC 02MD 02MO 09MC 02RD 02RO	0	1	1.09430909157	318.0	-385.0	None	None	0
2.7	2015_Jun_10_0948	s	s	21	3	SIC	245	ABS	1	2	02VD 02VO 02VC 10MD 02MO 02MC 02RD 02RO	0	1	0.865514993668	None	None	None	None	1
2.7	2015_Jun_10_0948	s	s	21	3	SIC	246	RC	0	1	02VD 02VO 02VC 02MD 02MO 02MC 02RD 09RO	1	0	1.59624481201	357.0	-363.0	350	-368	1
2.7	2015_Jun_10_0948	s	s	21	3	SIC	247	RC	1	1	02VD 02VO 02VC 02MD 09MO 02MC 02RD 02RO	1	0	0.705596923828	-63.0	-273.0	-58	-284	1
2.7	2015_Jun_10_0948	s	s	21	3	SIC	248	ABS	0	2	02VD 02VO 02VC 02MD 02MO 02MC 10RD 02RO	0	1	1.3596470356	None	None	None	None	1
2.7	2015_Jun_10_0948	s	s	21	3	SIC	249	RC	2	1	02VD 09VO 02VC 02MD 02MO 02MC 02RD 02RO	1	0	0.92317199707	-399.0	-298.0	-396	-304	1
2.7	2015_Jun_10_0948	s	s	21	3	SIC	250	RC	2	2	09VD 02VO 02VC 02MD 02MO 02MC 02RD 02RO	1	0	0.759706020355	146.0	311.0	151	310	1
2.7	2015_Jun_10_0948	s	s	21	3	SIC	251	ABS	1	0	02VD 02VO 02VC 02MD 02MO 10MC 02RD 02RO	0	1	1.84265518188	None	None	None	None	1
2.7	2015_Jun_10_0948	s	s	21	3	SIC	252	RC	0	2	02VD 02VO 02VC 02MD 02MO 02MC 09RD 02RO	1	0	0.879086971283	272.0	-169.0	273	-161	1
2.7	2015_Jun_10_0948	s	s	21	3	SIC	253	ABS	2	2	10VD 02VO 02VC 02MD 02MO 02MC 02RD 02RO	0	1	1.4942688942	None	None	None	None	1
2.7	2015_Jun_10_0948	s	s	21	3	SIC	254	ABS	2	0	02VD 02VO 10VC 02MD 02MO 02MC 02RD 02RO	0	1	1.70613908768	None	None	None	None	1
2.7	2015_Jun_10_0948	s	s	21	3	SIC	255	ABS	2	1	02VD 10VO 02VC 02MD 02MO 02MC 02RD 02RO	0	1	1.20450496674	None	None	None	None	1
2.7	2015_Jun_10_0948	s	s	21	3	SIC	256	ABS	0	1	02VD 02VO 02VC 02MD 02MO 02MC 02RD 10RO	0	1	1.21842002869	None	None	None	None	1
2.7	2015_Jun_10_0948	s	s	21	3	SIC	257	RC	1	2	02VD 02VO 02VC 09MD 02MO 02MC 02RD 02RO	1	0	0.811579942703	-214.0	256.0	-217	254	1
2.7	2015_Jun_10_0948	s	s	21	3	SIC	258	ABS	1	0	02VD 02VO 02VC 02MD 02MO 10MC 02RD 02RO	0	1	1.86492991447	None	None	None	None	1
2.7	2015_Jun_10_0948	s	s	21	3	SIC	259	RC	2	2	09VD 02VO 02VC 02MD 02MO 02MC 02RD 02RO	1	0	0.86585187912	-262.0	399.0	-266	391	1
2.7	2015_Jun_10_0948	s	s	21	3	SIC	260	ABS	2	0	02VD 02VO 10VC 02MD 02MO 02MC 02RD 02RO	0	1	1.09149909019	None	None	None	None	1
2.7	2015_Jun_10_0948	s	s	21	3	SIC	261	RC	0	2	02VD 02VO 02VC 02MD 02MO 02MC 09RD 02RO	1	0	0.611474990845	-172.0	172.0	-171	169	1
2.7	2015_Jun_10_0948	s	s	21	3	SIC	262	ABS	2	1	02VD 10VO 02VC 02MD 02MO 02MC 02RD 02RO	0	1	1.43064308167	None	None	None	None	1
2.7	2015_Jun_10_0948	s	s	21	3	SIC	263	ABS	2	2	10VD 02VO 02VC 02MD 02MO 02MC 02RD 02RO	0	1	1.08831214905	None	None	None	None	1
2.7	2015_Jun_10_0948	s	s	21	3	SIC	264	RC	1	0	02VD 02VO 02VC 02MD 02MO 09MC 02RD 02RO	1	0	0.90128993988	-123.0	-354.0	-122	-362	1
2.7	2015_Jun_10_0948	s	s	21	3	SIC	265	ABS	1	1	02VD 02VO 02VC 02MD 10MO 02MC 02RD 02RO	0	1	2.1887011528	None	None	None	None	1
2.7	2015_Jun_10_0948	s	s	21	3	SIC	266	ABS	1	2	02VD 02VO 02VC 10MD 02MO 02MC 02RD 02RO	0	1	1.38320994377	None	None	None	None	1
2.7	2015_Jun_10_0948	s	s	21	3	SIC	267	RC	1	1	02VD 02VO 02VC 02MD 09MO 02MC 02RD 02RO	1	0	0.988120079041	-75.0	-224.0	-78	-218	1
2.7	2015_Jun_10_0948	s	s	21	3	SIC	268	RC	2	0	02VD 02VO 09VC 02MD 02MO 02MC 02RD 02RO	1	0	0.752681970596	463.0	-3.0	461	-5	1
2.7	2015_Jun_10_0948	s	s	21	3	SIC	269	ABS	0	2	02VD 02VO 02VC 02MD 02MO 02MC 10RD 02RO	1	0	0.78297996521	None	None	-123	-289	0
2.7	2015_Jun_10_0948	s	s	21	3	SIC	270	ABS	0	1	02VD 02VO 02VC 02MD 02MO 02MC 02RD 10RO	0	1	1.38015913963	None	None	None	None	1
2.7	2015_Jun_10_0948	s	s	21	3	SIC	271	RC	2	1	02VD 09VO 02VC 02MD 02MO 02MC 02RD 02RO	0	1	1.18349719048	-344.0	-195.0	None	None	0
2.7	2015_Jun_10_0948	s	s	21	3	SIC	272	RC	0	1	02VD 02VO 02VC 02MD 02MO 02MC 02RD 09RO	1	0	1.23265218735	300.0	103.0	304	100	1
2.7	2015_Jun_10_0948	s	s	21	3	SIC	273	ABS	0	1	02VD 02VO 02VC 02MD 02MO 02MC 02RD 10RO	1	0	1.17147397995	None	None	-109	-396	0
2.7	2015_Jun_10_0948	s	s	21	3	SIC	274	ABS	2	1	02VD 10VO 02VC 02MD 02MO 02MC 02RD 02RO	0	1	1.01891708374	None	None	None	None	1
2.7	2015_Jun_10_0948	s	s	21	3	SIC	275	ABS	1	2	02VD 02VO 02VC 10MD 02MO 02MC 02RD 02RO	0	1	1.18314409256	None	None	None	None	1
2.7	2015_Jun_10_0948	s	s	21	3	SIC	276	RC	2	1	02VD 09VO 02VC 02MD 02MO 02MC 02RD 02RO	0	1	1.31769990921	270.0	395.0	None	None	0
2.7	2015_Jun_10_0948	s	s	21	3	SIC	277	RC	2	2	09VD 02VO 02VC 02MD 02MO 02MC 02RD 02RO	1	0	1.50098705292	370.0	-220.0	373	-222	1
2.7	2015_Jun_10_0948	s	s	21	3	SIC	278	ABS	2	2	10VD 02VO 02VC 02MD 02MO 02MC 02RD 02RO	0	1	1.27047204971	None	None	None	None	1
2.7	2015_Jun_10_0948	s	s	21	3	SIC	279	ABS	1	1	02VD 02VO 02VC 02MD 10MO 02MC 02RD 02RO	0	1	1.57150793076	None	None	None	None	1
2.7	2015_Jun_10_0948	s	s	21	3	SIC	280	RC	1	0	02VD 02VO 02VC 02MD 02MO 09MC 02RD 02RO	0	1	1.25549411774	91.0	270.0	None	None	0
2.7	2015_Jun_10_0948	s	s	21	3	SIC	281	RC	1	1	02VD 02VO 02VC 02MD 09MO 02MC 02RD 02RO	1	0	1.26607918739	-535.0	-313.0	-533	-314	1
2.7	2015_Jun_10_0948	s	s	21	3	SIC	282	RC	2	0	02VD 02VO 09VC 02MD 02MO 02MC 02RD 02RO	1	0	0.529060840607	-4.0	56.0	-6	51	1
2.7	2015_Jun_10_0948	s	s	21	3	SIC	283	ABS	0	2	02VD 02VO 02VC 02MD 02MO 02MC 10RD 02RO	0	1	0.759644985199	None	None	None	None	1
2.7	2015_Jun_10_0948	s	s	21	3	SIC	284	RC	1	2	02VD 02VO 02VC 09MD 02MO 02MC 02RD 02RO	0	1	1.04698801041	513.0	-293.0	None	None	0
2.7	2015_Jun_10_0948	s	s	21	3	SIC	285	ABS	2	0	02VD 02VO 10VC 02MD 02MO 02MC 02RD 02RO	0	1	1.28906798363	None	None	None	None	1
2.7	2015_Jun_10_0948	s	s	21	3	SIC	286	RC	0	2	02VD 02VO 02VC 02MD 02MO 02MC 09RD 02RO	1	0	0.997078895569	326.0	100.0	329	98	1
2.7	2015_Jun_10_0948	s	s	21	3	SIC	287	RC	0	1	02VD 02VO 02VC 02MD 02MO 02MC 02RD 09RO	0	1	1.28905701637	323.0	-396.0	None	None	0
2.7	2015_Jun_10_0948	s	s	21	3	SIC	288	ABS	1	0	02VD 02VO 02VC 02MD 02MO 10MC 02RD 02RO	0	1	1.34124112129	None	None	None	None	1
2.7	2015_Jun_10_0948	s	s	21	3	SIC	289	RC	1	1	02VD 02VO 02VC 02MD 09MO 02MC 02RD 02RO	1	0	0.835054159164	170.0	193.0	167	185	1
2.7	2015_Jun_10_0948	s	s	21	3	SIC	290	RC	2	2	09VD 02VO 02VC 02MD 02MO 02MC 02RD 02RO	1	0	0.759697914124	-364.0	191.0	-363	196	1
2.7	2015_Jun_10_0948	s	s	21	3	SIC	291	ABS	0	1	02VD 02VO 02VC 02MD 02MO 02MC 02RD 10RO	0	1	1.55309295654	None	None	None	None	1
2.7	2015_Jun_10_0948	s	s	21	3	SIC	292	ABS	2	0	02VD 02VO 10VC 02MD 02MO 02MC 02RD 02RO	0	1	1.10060405731	None	None	None	None	1
2.7	2015_Jun_10_0948	s	s	21	3	SIC	293	RC	0	2	02VD 02VO 02VC 02MD 02MO 02MC 09RD 02RO	1	0	0.679152011871	-362.0	78.0	-359	78	1
2.7	2015_Jun_10_0948	s	s	21	3	SIC	294	RC	1	2	02VD 02VO 02VC 09MD 02MO 02MC 02RD 02RO	1	0	0.924332857132	-408.0	224.0	-406	214	1
2.7	2015_Jun_10_0948	s	s	21	3	SIC	295	ABS	2	2	10VD 02VO 02VC 02MD 02MO 02MC 02RD 02RO	0	1	1.03519797325	None	None	None	None	1
2.7	2015_Jun_10_0948	s	s	21	3	SIC	296	ABS	0	2	02VD 02VO 02VC 02MD 02MO 02MC 10RD 02RO	0	1	1.11761498451	None	None	None	None	1
2.7	2015_Jun_10_0948	s	s	21	3	SIC	297	RC	1	0	02VD 02VO 02VC 02MD 02MO 09MC 02RD 02RO	0	1	1.30595302582	6.0	293.0	None	None	0
2.7	2015_Jun_10_0948	s	s	21	3	SIC	298	RC	2	0	02VD 02VO 09VC 02MD 02MO 02MC 02RD 02RO	1	0	0.481928110123	-52.0	97.0	-54	91	1
2.7	2015_Jun_10_0948	s	s	21	3	SIC	299	RC	0	1	02VD 02VO 02VC 02MD 02MO 02MC 02RD 09RO	1	0	1.87990999222	319.0	92.0	325	90	1
2.7	2015_Jun_10_0948	s	s	21	3	SIC	300	ABS	1	1	02VD 02VO 02VC 02MD 10MO 02MC 02RD 02RO	0	1	1.44201588631	None	None	None	None	1
2.7	2015_Jun_10_0948	s	s	21	3	SIC	301	ABS	2	1	02VD 10VO 02VC 02MD 02MO 02MC 02RD 02RO	0	1	1.07577490807	None	None	None	None	1
2.7	2015_Jun_10_0948	s	s	21	3	SIC	302	ABS	1	2	02VD 02VO 02VC 10MD 02MO 02MC 02RD 02RO	0	1	0.91490316391	None	None	None	None	1
2.7	2015_Jun_10_0948	s	s	21	3	SIC	303	RC	2	1	02VD 09VO 02VC 02MD 02MO 02MC 02RD 02RO	0	1	1.37659215927	409.0	287.0	None	None	0
2.7	2015_Jun_10_0948	s	s	21	3	SIC	304	ABS	1	0	02VD 02VO 02VC 02MD 02MO 10MC 02RD 02RO	0	1	2.33358812332	None	None	None	None	1
2.7	2015_Jun_10_0948	s	s	21	3	SIC	305	RC	0	2	02VD 02VO 02VC 02MD 02MO 02MC 09RD 02RO	1	0	0.658540964127	-208.0	351.0	-210	351	1
2.7	2015_Jun_10_0948	s	s	21	3	SIC	306	ABS	2	0	02VD 02VO 10VC 02MD 02MO 02MC 02RD 02RO	0	1	1.01162695885	None	None	None	None	1
2.7	2015_Jun_10_0948	s	s	21	3	SIC	307	ABS	1	1	02VD 02VO 02VC 02MD 10MO 02MC 02RD 02RO	0	1	0.929229021072	None	None	None	None	1
2.7	2015_Jun_10_0948	s	s	21	3	SIC	308	RC	2	1	02VD 09VO 02VC 02MD 02MO 02MC 02RD 02RO	0	1	0.740949869156	196.0	223.0	None	None	0
2.7	2015_Jun_10_0948	s	s	21	3	SIC	309	RC	1	2	02VD 02VO 02VC 09MD 02MO 02MC 02RD 02RO	0	1	0.720845937729	343.0	-41.0	None	None	0
2.7	2015_Jun_10_0948	s	s	21	3	SIC	310	RC	1	1	02VD 02VO 02VC 02MD 09MO 02MC 02RD 02RO	0	1	1.08224391937	324.0	272.0	None	None	0
2.7	2015_Jun_10_0948	s	s	21	3	SIC	311	ABS	0	2	02VD 02VO 02VC 02MD 02MO 02MC 10RD 02RO	0	1	0.846811056137	None	None	None	None	1
2.7	2015_Jun_10_0948	s	s	21	3	SIC	312	ABS	1	0	02VD 02VO 02VC 02MD 02MO 10MC 02RD 02RO	0	1	1.03518009186	None	None	None	None	1
2.7	2015_Jun_10_0948	s	s	21	3	SIC	313	ABS	0	1	02VD 02VO 02VC 02MD 02MO 02MC 02RD 10RO	0	1	3.07190918922	None	None	None	None	1
2.7	2015_Jun_10_0948	s	s	21	3	SIC	314	ABS	2	2	10VD 02VO 02VC 02MD 02MO 02MC 02RD 02RO	0	1	1.29417395592	None	None	None	None	1
2.7	2015_Jun_10_0948	s	s	21	3	SIC	315	RC	2	0	02VD 02VO 09VC 02MD 02MO 02MC 02RD 02RO	1	0	0.564389944077	15.0	245.0	19	238	1
2.7	2015_Jun_10_0948	s	s	21	3	SIC	316	RC	2	2	09VD 02VO 02VC 02MD 02MO 02MC 02RD 02RO	0	1	0.808958053589	-206.0	-400.0	None	None	0
2.7	2015_Jun_10_0948	s	s	21	3	SIC	317	ABS	1	2	02VD 02VO 02VC 10MD 02MO 02MC 02RD 02RO	0	1	0.72537112236	None	None	None	None	1
2.7	2015_Jun_10_0948	s	s	21	3	SIC	318	ABS	2	1	02VD 10VO 02VC 02MD 02MO 02MC 02RD 02RO	0	1	1.07086920738	None	None	None	None	1
2.7	2015_Jun_10_0948	s	s	21	3	SIC	319	RC	1	0	02VD 02VO 02VC 02MD 02MO 09MC 02RD 02RO	0	1	1.19493699074	510.0	406.0	None	None	0
2.7	2015_Jun_10_0948	s	s	21	3	SIC	320	RC	0	1	02VD 02VO 02VC 02MD 02MO 02MC 02RD 09RO	1	0	1.43088316917	305.0	-160.0	306	-166	1
2.7	2015_Jun_10_0948	s	s	21	3	SIC	321	ABS	1	0	02VD 02VO 02VC 02MD 02MO 10MC 02RD 02RO	0	1	0.902578115463	None	None	None	None	1
2.7	2015_Jun_10_0948	s	s	21	3	SIC	322	RC	0	2	02VD 02VO 02VC 02MD 02MO 02MC 09RD 02RO	1	0	0.693912982941	-104.0	-3.0	-109	0	1
2.7	2015_Jun_10_0948	s	s	21	3	SIC	323	ABS	0	2	02VD 02VO 02VC 02MD 02MO 02MC 10RD 02RO	0	1	1.01874995232	None	None	None	None	1
2.7	2015_Jun_10_0948	s	s	21	3	SIC	324	RC	1	2	02VD 02VO 02VC 09MD 02MO 02MC 02RD 02RO	1	0	0.724067926407	-264.0	195.0	-261	193	1
2.7	2015_Jun_10_0948	s	s	21	3	SIC	325	ABS	1	1	02VD 02VO 02VC 02MD 10MO 02MC 02RD 02RO	0	1	1.38836693764	None	None	None	None	1
2.7	2015_Jun_10_0948	s	s	21	3	SIC	326	RC	2	1	02VD 09VO 02VC 02MD 02MO 02MC 02RD 02RO	1	0	0.561728000641	-118.0	-25.0	-114	-28	1
2.7	2015_Jun_10_0948	s	s	21	3	SIC	327	RC	2	2	09VD 02VO 02VC 02MD 02MO 02MC 02RD 02RO	1	0	1.89163517952	-146.0	384.0	-140	376	1
2.7	2015_Jun_10_0948	s	s	21	3	SIC	328	ABS	2	1	02VD 10VO 02VC 02MD 02MO 02MC 02RD 02RO	0	1	1.0469930172	None	None	None	None	1
2.7	2015_Jun_10_0948	s	s	21	3	SIC	329	ABS	2	0	02VD 02VO 10VC 02MD 02MO 02MC 02RD 02RO	0	1	1.30277299881	None	None	None	None	1
2.7	2015_Jun_10_0948	s	s	21	3	SIC	330	RC	1	1	02VD 02VO 02VC 02MD 09MO 02MC 02RD 02RO	1	0	1.56527113914	232.0	-101.0	237	-102	1
2.7	2015_Jun_10_0948	s	s	21	3	SIC	331	RC	1	0	02VD 02VO 02VC 02MD 02MO 09MC 02RD 02RO	1	0	1.0175909996	-6.0	-178.0	-9	-177	1
2.7	2015_Jun_10_0948	s	s	21	3	SIC	332	ABS	0	1	02VD 02VO 02VC 02MD 02MO 02MC 02RD 10RO	0	1	1.88851118088	None	None	None	None	1
2.7	2015_Jun_10_0948	s	s	21	3	SIC	333	RC	0	1	02VD 02VO 02VC 02MD 02MO 02MC 02RD 09RO	0	1	2.01879692078	432.0	383.0	None	None	0
2.7	2015_Jun_10_0948	s	s	21	3	SIC	334	RC	2	0	02VD 02VO 09VC 02MD 02MO 02MC 02RD 02RO	1	0	0.641894102097	-53.0	52.0	-59	49	1
2.7	2015_Jun_10_0948	s	s	21	3	SIC	335	ABS	2	2	10VD 02VO 02VC 02MD 02MO 02MC 02RD 02RO	0	1	1.05873608589	None	None	None	None	1
2.7	2015_Jun_10_0948	s	s	21	3	SIC	336	ABS	1	2	02VD 02VO 02VC 10MD 02MO 02MC 02RD 02RO	0	1	1.05876803398	None	None	None	None	1
2.7	2015_Jun_10_0948	s	s	21	3	SIC	337	RC	2	2	09VD 02VO 02VC 02MD 02MO 02MC 02RD 02RO	1	0	0.529113769531	-113.0	-171.0	-110	-178	1
2.7	2015_Jun_10_0948	s	s	21	3	SIC	338	RC	1	1	02VD 02VO 02VC 02MD 09MO 02MC 02RD 02RO	0	1	1.10583114624	500.0	-122.0	None	None	0
2.7	2015_Jun_10_0948	s	s	21	3	SIC	339	RC	0	1	02VD 02VO 02VC 02MD 02MO 02MC 02RD 09RO	1	0	1.78843784332	369.0	213.0	370	212	1
2.7	2015_Jun_10_0948	s	s	21	3	SIC	340	ABS	0	1	02VD 02VO 02VC 02MD 02MO 02MC 02RD 10RO	0	1	2.68307495117	None	None	None	None	1
2.7	2015_Jun_10_0948	s	s	21	3	SIC	341	ABS	1	2	02VD 02VO 02VC 10MD 02MO 02MC 02RD 02RO	0	1	1.10283517838	None	None	None	None	1
2.7	2015_Jun_10_0948	s	s	21	3	SIC	342	ABS	2	0	02VD 02VO 10VC 02MD 02MO 02MC 02RD 02RO	0	1	1.10114002228	None	None	None	None	1
2.7	2015_Jun_10_0948	s	s	21	3	SIC	343	ABS	1	0	02VD 02VO 02VC 02MD 02MO 10MC 02RD 02RO	0	1	0.865242004395	None	None	None	None	1
2.7	2015_Jun_10_0948	s	s	21	3	SIC	344	RC	2	1	02VD 09VO 02VC 02MD 02MO 02MC 02RD 02RO	1	0	1.2116920948	389.0	-32.0	398	-35	1
2.7	2015_Jun_10_0948	s	s	21	3	SIC	345	RC	1	2	02VD 02VO 02VC 09MD 02MO 02MC 02RD 02RO	1	0	1.13842010498	121.0	131.0	117	138	1
2.7	2015_Jun_10_0948	s	s	21	3	SIC	346	ABS	1	1	02VD 02VO 02VC 02MD 10MO 02MC 02RD 02RO	0	1	0.858644008636	None	None	None	None	1
2.7	2015_Jun_10_0948	s	s	21	3	SIC	347	RC	1	0	02VD 02VO 02VC 02MD 02MO 09MC 02RD 02RO	1	0	0.502758026123	11.0	279.0	8	272	1
2.7	2015_Jun_10_0948	s	s	21	3	SIC	348	ABS	2	1	02VD 10VO 02VC 02MD 02MO 02MC 02RD 02RO	0	1	1.96010708809	None	None	None	None	1
2.7	2015_Jun_10_0948	s	s	21	3	SIC	349	RC	2	0	02VD 02VO 09VC 02MD 02MO 02MC 02RD 02RO	1	0	1.44213318825	-246.0	-406.0	-245	-411	1
2.7	2015_Jun_10_0948	s	s	21	3	SIC	350	ABS	0	2	02VD 02VO 02VC 02MD 02MO 02MC 10RD 02RO	0	1	1.19427418709	None	None	None	None	1
2.7	2015_Jun_10_0948	s	s	21	3	SIC	351	ABS	2	2	10VD 02VO 02VC 02MD 02MO 02MC 02RD 02RO	0	1	1.37651705742	None	None	None	None	1
2.7	2015_Jun_10_0948	s	s	21	3	SIC	352	RC	0	2	02VD 02VO 02VC 02MD 02MO 02MC 09RD 02RO	1	0	1.66482400894	-393.0	-27.0	-392	-33	1
2.7	2015_Jun_10_0948	s	s	21	3	SIC	353	ABS	1	1	02VD 02VO 02VC 02MD 10MO 02MC 02RD 02RO	0	1	1.07658290863	None	None	None	None	1
2.7	2015_Jun_10_0948	s	s	21	3	SIC	354	RC	0	1	02VD 02VO 02VC 02MD 02MO 02MC 02RD 09RO	1	0	2.27539205551	-473.0	239.0	-469	243	1
2.7	2015_Jun_10_0948	s	s	21	3	SIC	355	ABS	0	1	02VD 02VO 02VC 02MD 02MO 02MC 02RD 10RO	0	1	1.00662493706	None	None	None	None	1
2.7	2015_Jun_10_0948	s	s	21	3	SIC	356	RC	1	1	02VD 02VO 02VC 02MD 09MO 02MC 02RD 02RO	1	0	0.7022960186	-265.0	56.0	-261	51	1
2.7	2015_Jun_10_0948	s	s	21	3	SIC	357	RC	2	0	02VD 02VO 09VC 02MD 02MO 02MC 02RD 02RO	1	0	0.99413895607	-345.0	-278.0	-352	-278	1
2.7	2015_Jun_10_0948	s	s	21	3	SIC	358	ABS	1	2	02VD 02VO 02VC 10MD 02MO 02MC 02RD 02RO	0	1	1.18000912666	None	None	None	None	1
2.7	2015_Jun_10_0948	s	s	21	3	SIC	359	RC	1	0	02VD 02VO 02VC 02MD 02MO 09MC 02RD 02RO	1	0	0.488698959351	-76.0	145.0	-76	145	1
2.7	2015_Jun_10_0948	s	s	21	3	SIC	360	ABS	1	0	02VD 02VO 02VC 02MD 02MO 10MC 02RD 02RO	0	1	2.08277606964	None	None	None	None	1
2.7	2015_Jun_10_0948	s	s	21	3	SIC	361	RC	2	1	02VD 09VO 02VC 02MD 02MO 02MC 02RD 02RO	1	0	0.588334798813	126.0	-16.0	121	-26	1
2.7	2015_Jun_10_0948	s	s	21	3	SIC	362	RC	0	2	02VD 02VO 02VC 02MD 02MO 02MC 09RD 02RO	0	1	1.24234700203	381.0	-253.0	None	None	0
2.7	2015_Jun_10_0948	s	s	21	3	SIC	363	ABS	2	0	02VD 02VO 10VC 02MD 02MO 02MC 02RD 02RO	0	1	0.925178050995	None	None	None	None	1
2.7	2015_Jun_10_0948	s	s	21	3	SIC	364	ABS	2	1	02VD 10VO 02VC 02MD 02MO 02MC 02RD 02RO	0	1	1.05371999741	None	None	None	None	1
2.7	2015_Jun_10_0948	s	s	21	3	SIC	365	RC	2	2	09VD 02VO 02VC 02MD 02MO 02MC 02RD 02RO	1	0	1.37079119682	389.0	254.0	390	246	1
2.7	2015_Jun_10_0948	s	s	21	3	SIC	366	RC	1	2	02VD 02VO 02VC 09MD 02MO 02MC 02RD 02RO	1	0	0.940945863724	-204.0	-305.0	-212	-303	1
2.7	2015_Jun_10_0948	s	s	21	3	SIC	367	ABS	0	2	02VD 02VO 02VC 02MD 02MO 02MC 10RD 02RO	0	1	0.964575052261	None	None	None	None	1
2.7	2015_Jun_10_0948	s	s	21	3	SIC	368	ABS	2	2	10VD 02VO 02VC 02MD 02MO 02MC 02RD 02RO	0	1	0.723473072052	None	None	None	None	1
2.7	2015_Jun_10_0948	s	s	21	3	SIC	369	RC	1	2	02VD 02VO 02VC 09MD 02MO 02MC 02RD 02RO	1	0	0.611819982529	-128.0	-160.0	-129	-164	1
2.7	2015_Jun_10_0948	s	s	21	3	SIC	370	ABS	0	2	02VD 02VO 02VC 02MD 02MO 02MC 10RD 02RO	0	1	0.641036987305	None	None	None	None	1
2.7	2015_Jun_10_0948	s	s	21	3	SIC	371	RC	1	1	02VD 02VO 02VC 02MD 09MO 02MC 02RD 02RO	1	0	0.552571773529	382.0	-159.0	81	-108	0
2.7	2015_Jun_10_0948	s	s	21	3	SIC	372	RC	2	2	09VD 02VO 02VC 02MD 02MO 02MC 02RD 02RO	0	1	0.858547210693	-34.0	405.0	None	None	0
2.7	2015_Jun_10_0948	s	s	21	3	SIC	373	ABS	1	2	02VD 02VO 02VC 10MD 02MO 02MC 02RD 02RO	0	1	0.787969112396	None	None	None	None	1
2.7	2015_Jun_10_0948	s	s	21	3	SIC	374	RC	2	1	02VD 09VO 02VC 02MD 02MO 02MC 02RD 02RO	1	0	0.74089384079	141.0	-204.0	-53	261	0
2.7	2015_Jun_10_0948	s	s	21	3	SIC	375	ABS	0	1	02VD 02VO 02VC 02MD 02MO 02MC 02RD 10RO	0	1	2.03573989868	None	None	None	None	1
2.7	2015_Jun_10_0948	s	s	21	3	SIC	376	ABS	1	1	02VD 02VO 02VC 02MD 10MO 02MC 02RD 02RO	1	0	1.12399196625	None	None	-280	-319	0
2.7	2015_Jun_10_0948	s	s	21	3	SIC	377	RC	1	0	02VD 02VO 02VC 02MD 02MO 09MC 02RD 02RO	0	1	0.893893003464	472.0	-221.0	None	None	0
2.7	2015_Jun_10_0948	s	s	21	3	SIC	378	ABS	1	0	02VD 02VO 02VC 02MD 02MO 10MC 02RD 02RO	0	1	1.78889203072	None	None	None	None	1
2.7	2015_Jun_10_0948	s	s	21	3	SIC	379	ABS	2	2	10VD 02VO 02VC 02MD 02MO 02MC 02RD 02RO	0	1	1.15316104889	None	None	None	None	1
2.7	2015_Jun_10_0948	s	s	21	3	SIC	380	ABS	2	0	02VD 02VO 10VC 02MD 02MO 02MC 02RD 02RO	0	1	1.14108777046	None	None	None	None	1
2.7	2015_Jun_10_0948	s	s	21	3	SIC	381	RC	0	1	02VD 02VO 02VC 02MD 02MO 02MC 02RD 09RO	1	0	0.970108032227	-389.0	-66.0	-392	-60	1
2.7	2015_Jun_10_0948	s	s	21	3	SIC	382	RC	0	2	02VD 02VO 02VC 02MD 02MO 02MC 09RD 02RO	0	1	0.854039907455	-473.0	-249.0	None	None	0
2.7	2015_Jun_10_0948	s	s	21	3	SIC	383	ABS	2	1	02VD 10VO 02VC 02MD 02MO 02MC 02RD 02RO	1	0	1.2941429615	None	None	426	403	0
2.7	2015_Jun_10_0948	s	s	21	3	SIC	384	RC	2	0	02VD 02VO 09VC 02MD 02MO 02MC 02RD 02RO	0	1	1.28902697563	-404.0	234.0	None	None	0
2.7	2015_Jun_10_0948	s	s	21	3	SIC	385	ABS	2	0	02VD 02VO 10VC 02MD 02MO 02MC 02RD 02RO	0	1	1.50115895271	None	None	None	None	1
2.7	2015_Jun_10_0948	s	s	21	3	SIC	386	ABS	2	1	02VD 10VO 02VC 02MD 02MO 02MC 02RD 02RO	0	1	0.96086192131	None	None	None	None	1
2.7	2015_Jun_10_0948	s	s	21	3	SIC	387	ABS	1	0	02VD 02VO 02VC 02MD 02MO 10MC 02RD 02RO	0	1	2.67909502983	None	None	None	None	1
2.7	2015_Jun_10_0948	s	s	21	3	SIC	388	RC	1	0	02VD 02VO 02VC 02MD 02MO 09MC 02RD 02RO	1	0	1.13606715202	471.0	-168.0	464	-174	1
2.7	2015_Jun_10_0948	s	s	21	3	SIC	389	RC	2	2	09VD 02VO 02VC 02MD 02MO 02MC 02RD 02RO	1	0	1.3294711113	-339.0	-374.0	-345	-369	1
2.7	2015_Jun_10_0948	s	s	21	3	SIC	390	RC	2	1	02VD 09VO 02VC 02MD 02MO 02MC 02RD 02RO	1	0	0.658483028412	-129.0	-229.0	-127	-230	1
2.7	2015_Jun_10_0948	s	s	21	3	SIC	391	RC	1	2	02VD 02VO 02VC 09MD 02MO 02MC 02RD 02RO	1	0	0.705595016479	31.0	235.0	28	224	1
2.7	2015_Jun_10_0948	s	s	21	3	SIC	392	ABS	0	2	02VD 02VO 02VC 02MD 02MO 02MC 10RD 02RO	0	1	1.37134408951	None	None	None	None	1
2.7	2015_Jun_10_0948	s	s	21	3	SIC	393	ABS	2	2	10VD 02VO 02VC 02MD 02MO 02MC 02RD 02RO	0	1	1.41185593605	None	None	None	None	1
2.7	2015_Jun_10_0948	s	s	21	3	SIC	394	ABS	0	1	02VD 02VO 02VC 02MD 02MO 02MC 02RD 10RO	0	1	1.95009803772	None	None	None	None	1
2.7	2015_Jun_10_0948	s	s	21	3	SIC	395	RC	0	1	02VD 02VO 02VC 02MD 02MO 02MC 02RD 09RO	0	1	1.32943892479	444.0	313.0	None	None	0
2.7	2015_Jun_10_0948	s	s	21	3	SIC	396	RC	0	2	02VD 02VO 02VC 02MD 02MO 02MC 09RD 02RO	1	0	0.994958877563	277.0	-179.0	281	-178	1
2.7	2015_Jun_10_0948	s	s	21	3	SIC	397	RC	1	1	02VD 02VO 02VC 02MD 09MO 02MC 02RD 02RO	0	1	1.094009161	-333.0	-33.0	None	None	0
2.7	2015_Jun_10_0948	s	s	21	3	SIC	398	RC	2	0	02VD 02VO 09VC 02MD 02MO 02MC 02RD 02RO	1	0	0.667209863663	236.0	198.0	242	201	1
2.7	2015_Jun_10_0948	s	s	21	3	SIC	399	ABS	1	1	02VD 02VO 02VC 02MD 10MO 02MC 02RD 02RO	0	1	0.7823138237	None	None	None	None	1
2.7	2015_Jun_10_0948	s	s	21	3	SIC	400	ABS	1	2	02VD 02VO 02VC 10MD 02MO 02MC 02RD 02RO	0	1	0.658576965332	None	None	None	None	1
2.7	2015_Jun_10_0948	s	s	21	3	SIC	401	ABS	2	1	02VD 10VO 02VC 02MD 02MO 02MC 02RD 02RO	0	1	0.740932941437	None	None	None	None	1
2.7	2015_Jun_10_0948	s	s	21	3	SIC	402	ABS	0	1	02VD 02VO 02VC 02MD 02MO 02MC 02RD 10RO	1	0	0.749963998795	None	None	59	-166	0
2.7	2015_Jun_10_0948	s	s	21	3	SIC	403	ABS	1	0	02VD 02VO 02VC 02MD 02MO 10MC 02RD 02RO	0	1	0.818581819534	None	None	None	None	1
2.7	2015_Jun_10_0948	s	s	21	3	SIC	404	RC	0	1	02VD 02VO 02VC 02MD 02MO 02MC 02RD 09RO	0	1	3.18919110298	-161.0	406.0	None	None	0
2.7	2015_Jun_10_0948	s	s	21	3	SIC	405	RC	2	0	02VD 02VO 09VC 02MD 02MO 02MC 02RD 02RO	1	0	1.70613694191	-20.0	397.0	-24	390	1
2.7	2015_Jun_10_0948	s	s	21	3	SIC	406	ABS	1	2	02VD 02VO 02VC 10MD 02MO 02MC 02RD 02RO	0	1	0.905683994293	None	None	None	None	1
2.7	2015_Jun_10_0948	s	s	21	3	SIC	407	RC	2	1	02VD 09VO 02VC 02MD 02MO 02MC 02RD 02RO	0	1	1.21174907684	-529.0	-65.0	None	None	0
2.7	2015_Jun_10_0948	s	s	21	3	SIC	408	ABS	0	2	02VD 02VO 02VC 02MD 02MO 02MC 10RD 02RO	1	0	1.4589509964	None	None	-137	-116	0
2.7	2015_Jun_10_0948	s	s	21	3	SIC	409	RC	1	2	02VD 02VO 02VC 09MD 02MO 02MC 02RD 02RO	1	0	1.08227181435	-497.0	73.0	-495	76	1
2.7	2015_Jun_10_0948	s	s	21	3	SIC	410	RC	0	2	02VD 02VO 02VC 02MD 02MO 02MC 09RD 02RO	0	1	0.999887943268	23.0	406.0	None	None	0
2.7	2015_Jun_10_0948	s	s	21	3	SIC	411	ABS	2	0	02VD 02VO 10VC 02MD 02MO 02MC 02RD 02RO	0	1	1.41862201691	None	None	None	None	1
2.7	2015_Jun_10_0948	s	s	21	3	SIC	412	RC	1	0	02VD 02VO 02VC 02MD 02MO 09MC 02RD 02RO	1	0	0.846837997437	101.0	-147.0	104	-154	1
2.7	2015_Jun_10_0948	s	s	21	3	SIC	413	ABS	2	2	10VD 02VO 02VC 02MD 02MO 02MC 02RD 02RO	0	1	0.996354103088	None	None	None	None	1
2.7	2015_Jun_10_0948	s	s	21	3	SIC	414	RC	2	2	09VD 02VO 02VC 02MD 02MO 02MC 02RD 02RO	1	0	0.512296199799	-161.0	16.0	-160	11	1
2.7	2015_Jun_10_0948	s	s	21	3	SIC	415	RC	1	1	02VD 02VO 02VC 02MD 09MO 02MC 02RD 02RO	1	0	0.529088020325	-52.0	173.0	-49	169	1
2.7	2015_Jun_10_0948	s	s	21	3	SIC	416	ABS	1	1	02VD 02VO 02VC 02MD 10MO 02MC 02RD 02RO	0	1	0.891415834427	None	None	None	None	1
2.7	2015_Jun_10_0948	s	s	21	3	SIC	417	RC	0	1	02VD 02VO 02VC 02MD 02MO 02MC 02RD 09RO	1	0	1.46790099144	-454.0	-19.0	-445	-18	1
2.7	2015_Jun_10_0948	s	s	21	3	SIC	418	ABS	2	1	02VD 10VO 02VC 02MD 02MO 02MC 02RD 02RO	0	1	0.819636821747	None	None	None	None	1
2.7	2015_Jun_10_0948	s	s	21	3	SIC	419	ABS	0	1	02VD 02VO 02VC 02MD 02MO 02MC 02RD 10RO	0	1	1.14784002304	None	None	None	None	1
2.7	2015_Jun_10_0948	s	s	21	3	SIC	420	RC	0	2	02VD 02VO 02VC 02MD 02MO 02MC 09RD 02RO	0	1	1.09404110909	-523.0	342.0	None	None	0
2.7	2015_Jun_10_0948	s	s	21	3	SIC	421	ABS	2	2	10VD 02VO 02VC 02MD 02MO 02MC 02RD 02RO	0	1	1.03514909744	None	None	None	None	1
2.7	2015_Jun_10_0948	s	s	21	3	SIC	422	ABS	0	2	02VD 02VO 02VC 02MD 02MO 02MC 10RD 02RO	0	1	0.924202919006	None	None	None	None	1
2.7	2015_Jun_10_0948	s	s	21	3	SIC	423	ABS	1	1	02VD 02VO 02VC 02MD 10MO 02MC 02RD 02RO	0	1	0.835130929947	None	None	None	None	1
2.7	2015_Jun_10_0948	s	s	21	3	SIC	424	RC	2	2	09VD 02VO 02VC 02MD 02MO 02MC 02RD 02RO	1	0	0.646744012833	71.0	213.0	69	212	1
2.7	2015_Jun_10_0948	s	s	21	3	SIC	425	ABS	1	2	02VD 02VO 02VC 10MD 02MO 02MC 02RD 02RO	0	1	0.799767017365	None	None	None	None	1
2.7	2015_Jun_10_0948	s	s	21	3	SIC	426	ABS	1	0	02VD 02VO 02VC 02MD 02MO 10MC 02RD 02RO	0	1	0.95886516571	None	None	None	None	1
2.7	2015_Jun_10_0948	s	s	21	3	SIC	427	ABS	2	0	02VD 02VO 10VC 02MD 02MO 02MC 02RD 02RO	0	1	0.847336769104	None	None	None	None	1
2.7	2015_Jun_10_0948	s	s	21	3	SIC	428	RC	2	0	02VD 02VO 09VC 02MD 02MO 02MC 02RD 02RO	1	0	0.88219499588	276.0	122.0	277	121	1
2.7	2015_Jun_10_0948	s	s	21	3	SIC	429	RC	1	0	02VD 02VO 02VC 02MD 02MO 09MC 02RD 02RO	0	1	1.84736204147	-280.0	-341.0	None	None	0
2.7	2015_Jun_10_0948	s	s	21	3	SIC	430	RC	1	2	02VD 02VO 02VC 09MD 02MO 02MC 02RD 02RO	1	0	0.52407002449	58.0	70.0	58	68	1
2.7	2015_Jun_10_0948	s	s	21	3	SIC	431	RC	1	1	02VD 02VO 02VC 02MD 09MO 02MC 02RD 02RO	1	0	0.618131160736	-204.0	60.0	-210	60	1
2.7	2015_Jun_10_0948	s	s	21	3	SIC	432	RC	2	1	02VD 09VO 02VC 02MD 02MO 02MC 02RD 02RO	1	0	1.03275203705	453.0	211.0	446	212	1
2.7	2015_Jun_10_0948	s	s	21	3	SIC	433	ABS	1	0	02VD 02VO 02VC 02MD 02MO 10MC 02RD 02RO	0	1	0.905757904053	None	None	None	None	1
2.7	2015_Jun_10_0948	s	s	21	3	SIC	434	RC	2	2	09VD 02VO 02VC 02MD 02MO 02MC 02RD 02RO	1	0	0.972973108292	446.0	-142.0	446	-146	1
2.7	2015_Jun_10_0948	s	s	21	3	SIC	435	ABS	0	2	02VD 02VO 02VC 02MD 02MO 02MC 10RD 02RO	0	1	1.28233408928	None	None	None	None	1
2.7	2015_Jun_10_0948	s	s	21	3	SIC	436	ABS	1	2	02VD 02VO 02VC 10MD 02MO 02MC 02RD 02RO	0	1	1.12937998772	None	None	None	None	1
2.7	2015_Jun_10_0948	s	s	21	3	SIC	437	ABS	1	1	02VD 02VO 02VC 02MD 10MO 02MC 02RD 02RO	0	1	1.51774406433	None	None	None	None	1
2.7	2015_Jun_10_0948	s	s	21	3	SIC	438	RC	0	2	02VD 02VO 02VC 02MD 02MO 02MC 09RD 02RO	0	1	0.873996019363	524.0	311.0	None	None	0
2.7	2015_Jun_10_0948	s	s	21	3	SIC	439	ABS	2	0	02VD 02VO 10VC 02MD 02MO 02MC 02RD 02RO	0	1	0.771542787552	None	None	None	None	1
2.7	2015_Jun_10_0948	s	s	21	3	SIC	440	RC	2	0	02VD 02VO 09VC 02MD 02MO 02MC 02RD 02RO	1	0	0.623165845871	144.0	-38.0	139	-37	1
2.7	2015_Jun_10_0948	s	s	21	3	SIC	441	RC	2	1	02VD 09VO 02VC 02MD 02MO 02MC 02RD 02RO	1	0	1.14780282974	313.0	338.0	319	344	1
2.7	2015_Jun_10_0948	s	s	21	3	SIC	442	RC	1	0	02VD 02VO 02VC 02MD 02MO 09MC 02RD 02RO	1	0	0.69975399971	23.0	-83.0	18	-85	1
2.7	2015_Jun_10_0948	s	s	21	3	SIC	443	ABS	0	1	02VD 02VO 02VC 02MD 02MO 02MC 02RD 10RO	0	1	1.25601387024	None	None	None	None	1
2.7	2015_Jun_10_0948	s	s	21	3	SIC	444	ABS	2	2	10VD 02VO 02VC 02MD 02MO 02MC 02RD 02RO	1	0	0.523998022079	None	None	-109	-123	0
2.7	2015_Jun_10_0948	s	s	21	3	SIC	445	RC	1	2	02VD 02VO 02VC 09MD 02MO 02MC 02RD 02RO	1	0	1.00802302361	427.0	404.0	426	402	1
2.7	2015_Jun_10_0948	s	s	21	3	SIC	446	RC	1	1	02VD 02VO 02VC 02MD 09MO 02MC 02RD 02RO	1	0	0.712449073792	-128.0	234.0	-120	237	1
2.7	2015_Jun_10_0948	s	s	21	3	SIC	447	ABS	2	1	02VD 10VO 02VC 02MD 02MO 02MC 02RD 02RO	0	1	0.865020036697	None	None	None	None	1
2.7	2015_Jun_10_0948	s	s	21	3	SIC	448	RC	0	1	02VD 02VO 02VC 02MD 02MO 02MC 02RD 09RO	1	0	1.55310916901	-328.0	182.0	-329	183	1
2.7	2015_Jun_10_0948	s	s	21	3	SIC	449	ABS	1	2	02VD 02VO 02VC 10MD 02MO 02MC 02RD 02RO	0	1	1.22345781326	None	None	None	None	1
2.7	2015_Jun_10_0948	s	s	21	3	SIC	450	ABS	1	1	02VD 02VO 02VC 02MD 10MO 02MC 02RD 02RO	0	1	0.936094045639	None	None	None	None	1
2.7	2015_Jun_10_0948	s	s	21	3	SIC	451	RC	1	1	02VD 02VO 02VC 02MD 09MO 02MC 02RD 02RO	1	0	0.788021087646	-185.0	-186.0	-179	-188	1
2.7	2015_Jun_10_0948	s	s	21	3	SIC	452	RC	2	1	02VD 09VO 02VC 02MD 02MO 02MC 02RD 02RO	0	1	0.788005113602	-483.0	-230.0	None	None	0
2.7	2015_Jun_10_0948	s	s	21	3	SIC	453	RC	0	1	02VD 02VO 02VC 02MD 02MO 02MC 02RD 09RO	1	0	1.07648301125	-383.0	-364.0	-379	-374	1
2.7	2015_Jun_10_0948	s	s	21	3	SIC	454	RC	0	2	02VD 02VO 02VC 02MD 02MO 02MC 09RD 02RO	1	0	0.611634016037	47.0	157.0	51	162	1
2.7	2015_Jun_10_0948	s	s	21	3	SIC	455	ABS	2	2	10VD 02VO 02VC 02MD 02MO 02MC 02RD 02RO	0	1	0.936100959778	None	None	None	None	1
2.7	2015_Jun_10_0948	s	s	21	3	SIC	456	ABS	0	1	02VD 02VO 02VC 02MD 02MO 02MC 02RD 10RO	0	1	2.45473599434	None	None	None	None	1
2.7	2015_Jun_10_0948	s	s	21	3	SIC	457	RC	1	2	02VD 02VO 02VC 09MD 02MO 02MC 02RD 02RO	1	0	1.10193586349	-247.0	-50.0	-243	-47	1
2.7	2015_Jun_10_0948	s	s	21	3	SIC	458	ABS	1	0	02VD 02VO 02VC 02MD 02MO 10MC 02RD 02RO	0	1	1.10578083992	None	None	None	None	1
2.7	2015_Jun_10_0948	s	s	21	3	SIC	459	ABS	2	0	02VD 02VO 10VC 02MD 02MO 02MC 02RD 02RO	0	1	0.705712080002	None	None	None	None	1
2.7	2015_Jun_10_0948	s	s	21	3	SIC	460	RC	2	2	09VD 02VO 02VC 02MD 02MO 02MC 02RD 02RO	1	0	0.988076925278	412.0	118.0	419	114	1
2.7	2015_Jun_10_0948	s	s	21	3	SIC	461	RC	1	0	02VD 02VO 02VC 02MD 02MO 09MC 02RD 02RO	0	1	0.973951101303	228.0	254.0	None	None	0
2.7	2015_Jun_10_0948	s	s	21	3	SIC	462	RC	2	0	02VD 02VO 09VC 02MD 02MO 02MC 02RD 02RO	1	0	1.05919694901	-364.0	-412.0	-366	-410	1
2.7	2015_Jun_10_0948	s	s	21	3	SIC	463	ABS	2	1	02VD 10VO 02VC 02MD 02MO 02MC 02RD 02RO	1	0	1.0324909687	None	None	22	78	0
2.7	2015_Jun_10_0948	s	s	21	3	SIC	464	ABS	0	2	02VD 02VO 02VC 02MD 02MO 02MC 10RD 02RO	0	1	0.988441944122	None	None	None	None	1
2.7	2015_Jun_10_0948	s	s	21	3	SIC	465	ABS	1	1	02VD 02VO 02VC 02MD 10MO 02MC 02RD 02RO	0	1	1.1007270813	None	None	None	None	1
2.7	2015_Jun_10_0948	s	s	21	3	SIC	466	RC	2	0	02VD 02VO 09VC 02MD 02MO 02MC 02RD 02RO	0	1	0.970751047134	459.0	22.0	None	None	0
2.7	2015_Jun_10_0948	s	s	21	3	SIC	467	RC	2	1	02VD 09VO 02VC 02MD 02MO 02MC 02RD 02RO	0	1	0.77663397789	-304.0	305.0	None	None	0
2.7	2015_Jun_10_0948	s	s	21	3	SIC	468	RC	1	2	02VD 02VO 02VC 09MD 02MO 02MC 02RD 02RO	0	1	0.844074964523	195.0	215.0	None	None	0
2.7	2015_Jun_10_0948	s	s	21	3	SIC	469	ABS	1	0	02VD 02VO 02VC 02MD 02MO 10MC 02RD 02RO	0	1	1.3766040802	None	None	None	None	1
2.7	2015_Jun_10_0948	s	s	21	3	SIC	470	RC	1	1	02VD 02VO 02VC 02MD 09MO 02MC 02RD 02RO	1	0	0.665187835693	-62.0	253.0	-63	243	1
2.7	2015_Jun_10_0948	s	s	21	3	SIC	471	RC	0	2	02VD 02VO 02VC 02MD 02MO 02MC 09RD 02RO	0	1	1.01838898659	349.0	384.0	None	None	0
2.7	2015_Jun_10_0948	s	s	21	3	SIC	472	ABS	2	2	10VD 02VO 02VC 02MD 02MO 02MC 02RD 02RO	0	1	0.999922037125	None	None	None	None	1
2.7	2015_Jun_10_0948	s	s	21	3	SIC	473	ABS	2	0	02VD 02VO 10VC 02MD 02MO 02MC 02RD 02RO	0	1	1.93549203873	None	None	None	None	1
2.7	2015_Jun_10_0948	s	s	21	3	SIC	474	ABS	0	1	02VD 02VO 02VC 02MD 02MO 02MC 02RD 10RO	0	1	1.33612799644	None	None	None	None	1
2.7	2015_Jun_10_0948	s	s	21	3	SIC	475	RC	2	2	09VD 02VO 02VC 02MD 02MO 02MC 02RD 02RO	1	0	1.4068570137	365.0	180.0	372	180	1
2.7	2015_Jun_10_0948	s	s	21	3	SIC	476	ABS	1	2	02VD 02VO 02VC 10MD 02MO 02MC 02RD 02RO	0	1	1.26543307304	None	None	None	None	1
2.7	2015_Jun_10_0948	s	s	21	3	SIC	477	RC	0	1	02VD 02VO 02VC 02MD 02MO 02MC 02RD 09RO	0	1	0.982954025269	500.0	335.0	None	None	0
2.7	2015_Jun_10_0948	s	s	21	3	SIC	478	ABS	0	2	02VD 02VO 02VC 02MD 02MO 02MC 10RD 02RO	0	1	1.34120798111	None	None	None	None	1
2.7	2015_Jun_10_0948	s	s	21	3	SIC	479	ABS	2	1	02VD 10VO 02VC 02MD 02MO 02MC 02RD 02RO	0	1	0.988515138626	None	None	None	None	1
2.7	2015_Jun_10_0948	s	s	21	3	SIC	480	RC	1	0	02VD 02VO 02VC 02MD 02MO 09MC 02RD 02RO	0	1	0.859069824219	314.0	378.0	None	None	0
