Version	Date	Stimuli	Method	Subject	Session	Condition	Trial	Target	Channel1	Channel2	Distractors	LMouseButton	RMouseButton	RT	TargetX	TargetY	ResponseX	ResponseY	Correct
2.7	2015_Jun_17_1003	s	s	23	3	Capacity	1	RC	2	0	15VC 08MC	1	0	1.08918404579	-97.0	-92.0	-104	-96	1
2.7	2015_Jun_17_1003	s	s	23	3	Capacity	2	ABS	1	0	08VC 16MC	0	1	3.54593896866	None	None	None	None	1
2.7	2015_Jun_17_1003	s	s	23	3	Capacity	3	ABS	2	0	16VC 08MC	0	1	2.859634161	None	None	None	None	1
2.7	2015_Jun_17_1003	s	s	23	3	Capacity	4	RC	1	0	08VC 15MC	1	0	1.49419808388	412.0	-1.0	410	6	1
2.7	2015_Jun_17_1003	s	s	23	3	Capacity	5	ABS	2	0	16VC 08MC	0	1	1.77672100067	None	None	None	None	1
2.7	2015_Jun_17_1003	s	s	23	3	Capacity	6	ABS	1	0	08VC 16MC	0	1	2.79627490044	None	None	None	None	1
2.7	2015_Jun_17_1003	s	s	23	3	Capacity	7	RC	2	0	15VC 08MC	1	0	0.893876075745	-263.0	293.0	-265	295	1
2.7	2015_Jun_17_1003	s	s	23	3	Capacity	8	RC	1	0	08VC 15MC	1	0	1.40053987503	531.0	-252.0	524	-256	1
2.7	2015_Jun_17_1003	s	s	23	3	Capacity	9	ABS	2	0	16VC 08MC	0	1	1.89176893234	None	None	None	None	1
2.7	2015_Jun_17_1003	s	s	23	3	Capacity	10	ABS	1	0	08VC 16MC	0	1	2.72513794899	None	None	None	None	1
2.7	2015_Jun_17_1003	s	s	23	3	Capacity	11	RC	1	0	08VC 15MC	1	0	0.587924957275	-213.0	-161.0	-209	-161	1
2.7	2015_Jun_17_1003	s	s	23	3	Capacity	12	RC	2	0	15VC 08MC	0	1	1.26736187935	519.0	-318.0	None	None	0
2.7	2015_Jun_17_1003	s	s	23	3	Capacity	13	ABS	2	0	16VC 08MC	0	1	1.8556060791	None	None	None	None	1
2.7	2015_Jun_17_1003	s	s	23	3	Capacity	14	RC	2	0	15VC 08MC	1	0	0.641715049744	-153.0	-69.0	-155	-75	1
2.7	2015_Jun_17_1003	s	s	23	3	Capacity	15	ABS	1	0	08VC 16MC	0	1	2.47810411453	None	None	None	None	1
2.7	2015_Jun_17_1003	s	s	23	3	Capacity	16	RC	1	0	08VC 15MC	1	0	0.865483999252	50.0	-172.0	46	-171	1
2.7	2015_Jun_17_1003	s	s	23	3	Capacity	17	RC	2	0	15VC 08MC	1	0	2.00030589104	533.0	-358.0	534	-357	1
2.7	2015_Jun_17_1003	s	s	23	3	Capacity	18	ABS	1	0	08VC 16MC	0	1	0.152397155762	None	None	None	None	1
2.7	2015_Jun_17_1003	s	s	23	3	Capacity	19	RC	1	0	08VC 15MC	1	0	1.55850815773	521.0	-231.0	520	-238	1
2.7	2015_Jun_17_1003	s	s	23	3	Capacity	20	ABS	2	0	16VC 08MC	0	1	2.08961296082	None	None	None	None	1
2.7	2015_Jun_17_1003	s	s	23	3	Capacity	21	RC	1	0	08VC 15MC	1	0	1.49418210983	348.0	87.0	349	93	1
2.7	2015_Jun_17_1003	s	s	23	3	Capacity	22	RC	2	0	15VC 08MC	1	0	0.976396083832	-228.0	344.0	-225	351	1
2.7	2015_Jun_17_1003	s	s	23	3	Capacity	23	ABS	1	0	08VC 16MC	0	1	3.30698204041	None	None	None	None	1
2.7	2015_Jun_17_1003	s	s	23	3	Capacity	24	ABS	2	0	16VC 08MC	0	1	2.1485710144	None	None	None	None	1
2.7	2015_Jun_17_1003	s	s	23	3	Capacity	25	RC	2	0	15VC 08MC	1	0	0.654129981995	-276.0	-158.0	-278	-170	1
2.7	2015_Jun_17_1003	s	s	23	3	Capacity	26	RC	1	0	08VC 15MC	1	0	1.05875897408	46.0	-185.0	45	-192	1
2.7	2015_Jun_17_1003	s	s	23	3	Capacity	27	ABS	2	0	16VC 08MC	0	1	3.57765007019	None	None	None	None	1
2.7	2015_Jun_17_1003	s	s	23	3	Capacity	28	ABS	1	0	08VC 16MC	0	1	4.20830488205	None	None	None	None	1
2.7	2015_Jun_17_1003	s	s	23	3	Capacity	29	RC	2	0	15VC 08MC	1	0	2.13675999641	321.0	88.0	327	88	1
2.7	2015_Jun_17_1003	s	s	23	3	Capacity	30	RC	1	0	08VC 15MC	1	0	1.15977978706	-397.0	-28.0	-404	-31	1
2.7	2015_Jun_17_1003	s	s	23	3	Capacity	31	ABS	1	0	08VC 16MC	0	1	2.21904206276	None	None	None	None	1
2.7	2015_Jun_17_1003	s	s	23	3	Capacity	32	ABS	2	0	16VC 08MC	0	1	2.0450501442	None	None	None	None	1
2.7	2015_Jun_17_1003	s	s	23	3	Capacity	33	ABS	1	0	08VC 16MC	0	1	2.05592894554	None	None	None	None	1
2.7	2015_Jun_17_1003	s	s	23	3	Capacity	34	RC	2	0	15VC 08MC	1	0	0.682078838348	-256.0	59.0	-263	68	1
2.7	2015_Jun_17_1003	s	s	23	3	Capacity	35	RC	1	0	08VC 15MC	1	0	1.14812898636	469.0	-202.0	474	-202	1
2.7	2015_Jun_17_1003	s	s	23	3	Capacity	36	ABS	2	0	16VC 08MC	0	1	1.595266819	None	None	None	None	1
2.7	2015_Jun_17_1003	s	s	23	3	Capacity	37	RC	1	0	08VC 15MC	1	0	1.23530197144	-21.0	-404.0	-23	-410	1
2.7	2015_Jun_17_1003	s	s	23	3	Capacity	38	ABS	1	0	08VC 16MC	0	1	2.8360888958	None	None	None	None	1
2.7	2015_Jun_17_1003	s	s	23	3	Capacity	39	ABS	2	0	16VC 08MC	0	1	1.84173607826	None	None	None	None	1
2.7	2015_Jun_17_1003	s	s	23	3	Capacity	40	RC	2	0	15VC 08MC	1	0	0.740876913071	-521.0	101.0	-520	101	1
2.7	2015_Jun_17_1003	s	s	23	3	Capacity	41	ABS	1	0	08VC 16MC	0	1	1.85682487488	None	None	None	None	1
2.7	2015_Jun_17_1003	s	s	23	3	Capacity	42	ABS	2	0	16VC 08MC	0	1	1.30124998093	None	None	None	None	1
2.7	2015_Jun_17_1003	s	s	23	3	Capacity	43	RC	2	0	15VC 08MC	1	0	1.49509596825	234.0	-285.0	233	-277	1
2.7	2015_Jun_17_1003	s	s	23	3	Capacity	44	RC	1	0	08VC 15MC	1	0	1.15332102776	-363.0	-241.0	-359	-247	1
2.7	2015_Jun_17_1003	s	s	23	3	Capacity	45	RC	2	0	15VC 08MC	1	0	0.971319913864	-264.0	103.0	-266	102	1
2.7	2015_Jun_17_1003	s	s	23	3	Capacity	46	RC	1	0	08VC 15MC	1	0	0.690058946609	-150.0	47.0	-157	46	1
2.7	2015_Jun_17_1003	s	s	23	3	Capacity	47	ABS	2	0	16VC 08MC	0	1	1.73648285866	None	None	None	None	1
2.7	2015_Jun_17_1003	s	s	23	3	Capacity	48	ABS	1	0	08VC 16MC	0	1	2.38376188278	None	None	None	None	1
2.7	2015_Jun_17_1003	s	s	23	3	Capacity	49	RC	2	0	15VC 08MC	1	0	0.92610001564	-90.0	-195.0	-89	-196	1
2.7	2015_Jun_17_1003	s	s	23	3	Capacity	50	RC	1	0	08VC 15MC	1	0	2.60070586205	-144.0	224.0	-144	227	1
2.7	2015_Jun_17_1003	s	s	23	3	Capacity	51	ABS	1	0	08VC 16MC	0	1	1.71285700798	None	None	None	None	1
2.7	2015_Jun_17_1003	s	s	23	3	Capacity	52	ABS	2	0	16VC 08MC	0	1	1.37655305862	None	None	None	None	1
2.7	2015_Jun_17_1003	s	s	23	3	Capacity	53	ABS	1	0	08VC 16MC	0	1	1.95315599442	None	None	None	None	1
2.7	2015_Jun_17_1003	s	s	23	3	Capacity	54	ABS	2	0	16VC 08MC	0	1	1.38829398155	None	None	None	None	1
2.7	2015_Jun_17_1003	s	s	23	3	Capacity	55	RC	2	0	15VC 08MC	1	0	0.79647397995	-397.0	181.0	-403	177	1
2.7	2015_Jun_17_1003	s	s	23	3	Capacity	56	RC	1	0	08VC 15MC	1	0	2.91852784157	322.0	374.0	330	371	1
2.7	2015_Jun_17_1003	s	s	23	3	Capacity	57	RC	1	0	08VC 15MC	1	0	0.91744017601	-66.0	-147.0	-72	-146	1
2.7	2015_Jun_17_1003	s	s	23	3	Capacity	58	ABS	2	0	16VC 08MC	0	1	2.25440406799	None	None	None	None	1
2.7	2015_Jun_17_1003	s	s	23	3	Capacity	59	ABS	1	0	08VC 16MC	0	1	1.98361992836	None	None	None	None	1
2.7	2015_Jun_17_1003	s	s	23	3	Capacity	60	RC	2	0	15VC 08MC	1	0	1.6918129921	443.0	338.0	448	340	1
2.7	2015_Jun_17_1003	s	s	23	3	Capacity	61	RC	2	0	15VC 08MC	1	0	1.5742058754	-46.0	-391.0	-51	-387	1
2.7	2015_Jun_17_1003	s	s	23	3	Capacity	62	ABS	1	0	08VC 16MC	0	1	2.41935396194	None	None	None	None	1
2.7	2015_Jun_17_1003	s	s	23	3	Capacity	63	RC	1	0	08VC 15MC	1	0	0.700771808624	75.0	-209.0	74	-217	1
2.7	2015_Jun_17_1003	s	s	23	3	Capacity	64	ABS	2	0	16VC 08MC	0	1	1.93641901016	None	None	None	None	1
2.7	2015_Jun_17_1003	s	s	23	3	Capacity	1	RC	0	2	15RD 08RO	1	0	1.32939887047	-27.0	177.0	-24	181	1
2.7	2015_Jun_17_1003	s	s	23	3	Capacity	2	ABS	0	2	16RD 08RO	0	1	3.59631299973	None	None	None	None	1
2.7	2015_Jun_17_1003	s	s	23	3	Capacity	3	ABS	0	1	08RD 16RO	0	1	5.78556013107	None	None	None	None	1
2.7	2015_Jun_17_1003	s	s	23	3	Capacity	4	RC	0	1	08RD 15RO	1	0	2.75360298157	253.0	288.0	250	289	1
2.7	2015_Jun_17_1003	s	s	23	3	Capacity	5	RC	0	2	15RD 08RO	1	0	2.78410506248	485.0	-278.0	480	-279	1
2.7	2015_Jun_17_1003	s	s	23	3	Capacity	6	ABS	0	2	16RD 08RO	0	1	5.9398021698	None	None	None	None	1
2.7	2015_Jun_17_1003	s	s	23	3	Capacity	7	RC	0	1	08RD 15RO	1	0	2.04795312881	-257.0	-277.0	-257	-279	1
2.7	2015_Jun_17_1003	s	s	23	3	Capacity	8	ABS	0	1	08RD 16RO	0	1	7.72895002365	None	None	None	None	1
2.7	2015_Jun_17_1003	s	s	23	3	Capacity	9	ABS	0	1	08RD 16RO	0	1	7.84682011604	None	None	None	None	1
2.7	2015_Jun_17_1003	s	s	23	3	Capacity	10	RC	0	1	08RD 15RO	1	0	2.71879696846	407.0	-223.0	416	-216	1
2.7	2015_Jun_17_1003	s	s	23	3	Capacity	11	RC	0	2	15RD 08RO	1	0	0.940901041031	-313.0	-19.0	-319	-16	1
2.7	2015_Jun_17_1003	s	s	23	3	Capacity	12	ABS	0	2	16RD 08RO	0	1	4.63185095787	None	None	None	None	1
2.7	2015_Jun_17_1003	s	s	23	3	Capacity	13	ABS	0	2	16RD 08RO	0	1	3.46032309532	None	None	None	None	1
2.7	2015_Jun_17_1003	s	s	23	3	Capacity	14	RC	0	2	15RD 08RO	1	0	1.618694067	501.0	251.0	499	251	1
2.7	2015_Jun_17_1003	s	s	23	3	Capacity	15	ABS	0	1	08RD 16RO	0	1	6.67064189911	None	None	None	None	1
2.7	2015_Jun_17_1003	s	s	23	3	Capacity	16	RC	0	1	08RD 15RO	1	0	1.26566982269	-366.0	-13.0	-371	-18	1
2.7	2015_Jun_17_1003	s	s	23	3	Capacity	17	ABS	0	1	08RD 16RO	0	1	7.56776094437	None	None	None	None	1
2.7	2015_Jun_17_1003	s	s	23	3	Capacity	18	ABS	0	2	16RD 08RO	0	1	4.09557819366	None	None	None	None	1
2.7	2015_Jun_17_1003	s	s	23	3	Capacity	19	RC	0	2	15RD 08RO	1	0	0.949689149857	-346.0	248.0	-346	247	1
2.7	2015_Jun_17_1003	s	s	23	3	Capacity	20	RC	0	1	08RD 15RO	0	1	4.91428184509	-481.0	-317.0	None	None	0
2.7	2015_Jun_17_1003	s	s	23	3	Capacity	21	RC	0	1	08RD 15RO	1	0	1.18822002411	137.0	-39.0	128	-38	1
2.7	2015_Jun_17_1003	s	s	23	3	Capacity	22	ABS	0	2	16RD 08RO	0	1	5.69141507149	None	None	None	None	1
2.7	2015_Jun_17_1003	s	s	23	3	Capacity	23	RC	0	2	15RD 08RO	1	0	1.81190395355	-533.0	-392.0	-531	-398	1
2.7	2015_Jun_17_1003	s	s	23	3	Capacity	24	ABS	0	1	08RD 16RO	0	1	7.00970506668	None	None	None	None	1
2.7	2015_Jun_17_1003	s	s	23	3	Capacity	25	ABS	0	1	08RD 16RO	0	1	6.49155902863	None	None	None	None	1
2.7	2015_Jun_17_1003	s	s	23	3	Capacity	26	RC	0	1	08RD 15RO	0	1	5.35000896454	-186.0	-36.0	None	None	0
2.7	2015_Jun_17_1003	s	s	23	3	Capacity	27	RC	0	2	15RD 08RO	1	0	2.56260299683	345.0	-11.0	347	-9	1
2.7	2015_Jun_17_1003	s	s	23	3	Capacity	28	ABS	0	2	16RD 08RO	0	1	6.30839896202	None	None	None	None	1
2.7	2015_Jun_17_1003	s	s	23	3	Capacity	29	ABS	0	1	08RD 16RO	0	1	6.0189371109	None	None	None	None	1
2.7	2015_Jun_17_1003	s	s	23	3	Capacity	30	RC	0	2	15RD 08RO	1	0	1.48242807388	284.0	389.0	286	390	1
2.7	2015_Jun_17_1003	s	s	23	3	Capacity	31	RC	0	1	08RD 15RO	1	0	7.6384909153	-219.0	-114.0	-215	-115	1
2.7	2015_Jun_17_1003	s	s	23	3	Capacity	32	ABS	0	2	16RD 08RO	0	1	3.64284586906	None	None	None	None	1
2.7	2015_Jun_17_1003	s	s	23	3	Capacity	33	ABS	0	2	16RD 08RO	0	1	3.94274711609	None	None	None	None	1
2.7	2015_Jun_17_1003	s	s	23	3	Capacity	34	RC	0	2	15RD 08RO	1	0	1.27711701393	-329.0	-44.0	-330	-49	1
2.7	2015_Jun_17_1003	s	s	23	3	Capacity	35	RC	0	1	08RD 15RO	1	0	1.19673705101	-24.0	-135.0	-31	-133	1
2.7	2015_Jun_17_1003	s	s	23	3	Capacity	36	ABS	0	1	08RD 16RO	0	1	5.26450490952	None	None	None	None	1
2.7	2015_Jun_17_1003	s	s	23	3	Capacity	37	ABS	0	2	16RD 08RO	0	1	5.59711408615	None	None	None	None	1
2.7	2015_Jun_17_1003	s	s	23	3	Capacity	38	RC	0	1	08RD 15RO	1	0	4.05494308472	-405.0	-385.0	-404	-391	1
2.7	2015_Jun_17_1003	s	s	23	3	Capacity	39	ABS	0	1	08RD 16RO	0	1	5.93166184425	None	None	None	None	1
2.7	2015_Jun_17_1003	s	s	23	3	Capacity	40	RC	0	2	15RD 08RO	1	0	1.27099895477	52.0	-251.0	52	-249	1
2.7	2015_Jun_17_1003	s	s	23	3	Capacity	41	ABS	0	1	08RD 16RO	0	1	5.14308714867	None	None	None	None	1
2.7	2015_Jun_17_1003	s	s	23	3	Capacity	42	RC	0	1	08RD 15RO	1	0	0.90639591217	41.0	152.0	41	155	1
2.7	2015_Jun_17_1003	s	s	23	3	Capacity	43	RC	0	2	15RD 08RO	1	0	2.16020607948	-484.0	373.0	-495	374	1
2.7	2015_Jun_17_1003	s	s	23	3	Capacity	44	ABS	0	2	16RD 08RO	0	1	6.12007379532	None	None	None	None	1
2.7	2015_Jun_17_1003	s	s	23	3	Capacity	45	ABS	0	2	16RD 08RO	0	1	4.10278701782	None	None	None	None	1
2.7	2015_Jun_17_1003	s	s	23	3	Capacity	46	RC	0	1	08RD 15RO	0	1	6.58640813828	-221.0	-384.0	None	None	0
2.7	2015_Jun_17_1003	s	s	23	3	Capacity	47	ABS	0	1	08RD 16RO	0	1	6.24463009834	None	None	None	None	1
2.7	2015_Jun_17_1003	s	s	23	3	Capacity	48	RC	0	2	15RD 08RO	1	0	2.31253004074	-156.0	-373.0	-157	-373	1
2.7	2015_Jun_17_1003	s	s	23	3	Capacity	49	RC	0	1	08RD 15RO	1	0	2.14825510979	115.0	-262.0	114	-263	1
2.7	2015_Jun_17_1003	s	s	23	3	Capacity	50	ABS	0	2	16RD 08RO	0	1	2.7485408783	None	None	None	None	1
2.7	2015_Jun_17_1003	s	s	23	3	Capacity	51	RC	0	2	15RD 08RO	1	0	2.15335893631	-361.0	124.0	-367	124	1
2.7	2015_Jun_17_1003	s	s	23	3	Capacity	52	ABS	0	1	08RD 16RO	0	1	3.68042492867	None	None	None	None	1
2.7	2015_Jun_17_1003	s	s	23	3	Capacity	53	ABS	0	2	16RD 08RO	0	1	3.69038009644	None	None	None	None	1
2.7	2015_Jun_17_1003	s	s	23	3	Capacity	54	RC	0	1	08RD 15RO	1	0	2.22402095795	-493.0	-250.0	-500	-251	1
2.7	2015_Jun_17_1003	s	s	23	3	Capacity	55	RC	0	2	15RD 08RO	1	0	2.82422614098	-477.0	-58.0	-476	-60	1
2.7	2015_Jun_17_1003	s	s	23	3	Capacity	56	ABS	0	1	08RD 16RO	0	1	3.70706892014	None	None	None	None	1
2.7	2015_Jun_17_1003	s	s	23	3	Capacity	57	RC	0	2	15RD 08RO	1	0	1.77391386032	-24.0	-385.0	-28	-387	1
2.7	2015_Jun_17_1003	s	s	23	3	Capacity	58	RC	0	1	08RD 15RO	1	0	1.28234791756	-146.0	-401.0	-147	-406	1
2.7	2015_Jun_17_1003	s	s	23	3	Capacity	59	ABS	0	2	16RD 08RO	0	1	2.39567780495	None	None	None	None	1
2.7	2015_Jun_17_1003	s	s	23	3	Capacity	60	ABS	0	1	08RD 16RO	0	1	4.56627416611	None	None	None	None	1
2.7	2015_Jun_17_1003	s	s	23	3	Capacity	61	ABS	0	2	16RD 08RO	0	1	3.33688783646	None	None	None	None	1
2.7	2015_Jun_17_1003	s	s	23	3	Capacity	62	RC	0	1	08RD 15RO	1	0	1.01168203354	-37.0	70.0	-35	73	1
2.7	2015_Jun_17_1003	s	s	23	3	Capacity	63	RC	0	2	15RD 08RO	1	0	2.56081008911	225.0	32.0	223	29	1
2.7	2015_Jun_17_1003	s	s	23	3	Capacity	64	ABS	0	1	08RD 16RO	0	1	4.81003904343	None	None	None	None	1
2.7	2015_Jun_17_1003	s	s	23	3	SIC	1	RC	0	1	02VD 02VO 02VC 02MD 02MO 02MC 02RD 09RO	1	0	1.53865599632	451.0	-185.0	447	-186	1
2.7	2015_Jun_17_1003	s	s	23	3	SIC	2	ABS	0	1	02VD 02VO 02VC 02MD 02MO 02MC 02RD 10RO	0	1	4.40567994118	None	None	None	None	1
2.7	2015_Jun_17_1003	s	s	23	3	SIC	3	RC	1	1	02VD 02VO 02VC 02MD 09MO 02MC 02RD 02RO	1	0	2.08631706238	404.0	-320.0	406	-322	1
2.7	2015_Jun_17_1003	s	s	23	3	SIC	4	RC	2	0	02VD 02VO 09VC 02MD 02MO 02MC 02RD 02RO	1	0	1.40004301071	377.0	50.0	379	46	1
2.7	2015_Jun_17_1003	s	s	23	3	SIC	5	ABS	1	2	02VD 02VO 02VC 10MD 02MO 02MC 02RD 02RO	0	1	4.05454397202	None	None	None	None	1
2.7	2015_Jun_17_1003	s	s	23	3	SIC	6	ABS	0	2	02VD 02VO 02VC 02MD 02MO 02MC 10RD 02RO	0	1	2.27108097076	None	None	None	None	1
2.7	2015_Jun_17_1003	s	s	23	3	SIC	7	RC	2	2	09VD 02VO 02VC 02MD 02MO 02MC 02RD 02RO	1	0	0.658596992493	-234.0	230.0	-238	235	1
2.7	2015_Jun_17_1003	s	s	23	3	SIC	8	RC	2	1	02VD 09VO 02VC 02MD 02MO 02MC 02RD 02RO	1	0	1.11255693436	326.0	238.0	329	225	1
2.7	2015_Jun_17_1003	s	s	23	3	SIC	9	ABS	1	0	02VD 02VO 02VC 02MD 02MO 10MC 02RD 02RO	0	1	2.5484290123	None	None	None	None	1
2.7	2015_Jun_17_1003	s	s	23	3	SIC	10	RC	1	0	02VD 02VO 02VC 02MD 02MO 09MC 02RD 02RO	1	0	1.87771701813	406.0	-259.0	402	-255	1
2.7	2015_Jun_17_1003	s	s	23	3	SIC	11	ABS	1	1	02VD 02VO 02VC 02MD 10MO 02MC 02RD 02RO	0	1	4.22506403923	None	None	None	None	1
2.7	2015_Jun_17_1003	s	s	23	3	SIC	12	RC	0	2	02VD 02VO 02VC 02MD 02MO 02MC 09RD 02RO	1	0	1.12936592102	276.0	53.0	282	60	1
2.7	2015_Jun_17_1003	s	s	23	3	SIC	13	RC	1	2	02VD 02VO 02VC 09MD 02MO 02MC 02RD 02RO	1	0	1.56070899963	140.0	-264.0	138	-263	1
2.7	2015_Jun_17_1003	s	s	23	3	SIC	14	ABS	2	1	02VD 10VO 02VC 02MD 02MO 02MC 02RD 02RO	0	1	3.55447292328	None	None	None	None	1
2.7	2015_Jun_17_1003	s	s	23	3	SIC	15	ABS	2	0	02VD 02VO 10VC 02MD 02MO 02MC 02RD 02RO	0	1	2.2074098587	None	None	None	None	1
2.7	2015_Jun_17_1003	s	s	23	3	SIC	16	ABS	2	2	10VD 02VO 02VC 02MD 02MO 02MC 02RD 02RO	0	1	3.48347878456	None	None	None	None	1
2.7	2015_Jun_17_1003	s	s	23	3	SIC	17	RC	2	1	02VD 09VO 02VC 02MD 02MO 02MC 02RD 02RO	1	0	0.985375881195	-532.0	-278.0	-537	-275	1
2.7	2015_Jun_17_1003	s	s	23	3	SIC	18	RC	1	0	02VD 02VO 02VC 02MD 02MO 09MC 02RD 02RO	1	0	0.700873851776	95.0	200.0	91	195	1
2.7	2015_Jun_17_1003	s	s	23	3	SIC	19	RC	2	2	09VD 02VO 02VC 02MD 02MO 02MC 02RD 02RO	1	0	1.77398896217	69.0	-201.0	62	-202	1
2.7	2015_Jun_17_1003	s	s	23	3	SIC	20	ABS	0	2	02VD 02VO 02VC 02MD 02MO 02MC 10RD 02RO	0	1	3.79561495781	None	None	None	None	1
2.7	2015_Jun_17_1003	s	s	23	3	SIC	21	RC	1	2	02VD 02VO 02VC 09MD 02MO 02MC 02RD 02RO	1	0	1.87699794769	-489.0	-241.0	-490	-242	1
2.7	2015_Jun_17_1003	s	s	23	3	SIC	22	RC	2	0	02VD 02VO 09VC 02MD 02MO 02MC 02RD 02RO	1	0	1.41183495522	73.0	-216.0	67	-216	1
2.7	2015_Jun_17_1003	s	s	23	3	SIC	23	ABS	0	1	02VD 02VO 02VC 02MD 02MO 02MC 02RD 10RO	0	1	7.33932304382	None	None	None	None	1
2.7	2015_Jun_17_1003	s	s	23	3	SIC	24	RC	0	1	02VD 02VO 02VC 02MD 02MO 02MC 02RD 09RO	1	0	3.45988798141	449.0	-399.0	454	-404	1
2.7	2015_Jun_17_1003	s	s	23	3	SIC	25	ABS	2	2	10VD 02VO 02VC 02MD 02MO 02MC 02RD 02RO	0	1	2.33655905724	None	None	None	None	1
2.7	2015_Jun_17_1003	s	s	23	3	SIC	26	ABS	1	2	02VD 02VO 02VC 10MD 02MO 02MC 02RD 02RO	0	1	3.64822816849	None	None	None	None	1
2.7	2015_Jun_17_1003	s	s	23	3	SIC	27	RC	1	1	02VD 02VO 02VC 02MD 09MO 02MC 02RD 02RO	1	0	1.20012378693	-318.0	-41.0	-315	-39	1
2.7	2015_Jun_17_1003	s	s	23	3	SIC	28	RC	0	2	02VD 02VO 02VC 02MD 02MO 02MC 09RD 02RO	1	0	2.22995710373	481.0	250.0	483	248	1
2.7	2015_Jun_17_1003	s	s	23	3	SIC	29	ABS	2	1	02VD 10VO 02VC 02MD 02MO 02MC 02RD 02RO	0	1	2.27109718323	None	None	None	None	1
2.7	2015_Jun_17_1003	s	s	23	3	SIC	30	ABS	1	0	02VD 02VO 02VC 02MD 02MO 10MC 02RD 02RO	0	1	3.40978908539	None	None	None	None	1
2.7	2015_Jun_17_1003	s	s	23	3	SIC	31	ABS	1	1	02VD 02VO 02VC 02MD 10MO 02MC 02RD 02RO	0	1	3.04521799088	None	None	None	None	1
2.7	2015_Jun_17_1003	s	s	23	3	SIC	32	ABS	2	0	02VD 02VO 10VC 02MD 02MO 02MC 02RD 02RO	0	1	2.70164489746	None	None	None	None	1
2.7	2015_Jun_17_1003	s	s	23	3	SIC	33	ABS	0	1	02VD 02VO 02VC 02MD 02MO 02MC 02RD 10RO	0	1	4.71370792389	None	None	None	None	1
2.7	2015_Jun_17_1003	s	s	23	3	SIC	34	ABS	2	2	10VD 02VO 02VC 02MD 02MO 02MC 02RD 02RO	0	1	2.74558615685	None	None	None	None	1
2.7	2015_Jun_17_1003	s	s	23	3	SIC	35	ABS	2	0	02VD 02VO 10VC 02MD 02MO 02MC 02RD 02RO	0	1	4.42206692696	None	None	None	None	1
2.7	2015_Jun_17_1003	s	s	23	3	SIC	36	RC	1	2	02VD 02VO 02VC 09MD 02MO 02MC 02RD 02RO	1	0	0.740995883942	119.0	106.0	123	106	1
2.7	2015_Jun_17_1003	s	s	23	3	SIC	37	ABS	1	0	02VD 02VO 02VC 02MD 02MO 10MC 02RD 02RO	0	1	3.00086593628	None	None	None	None	1
2.7	2015_Jun_17_1003	s	s	23	3	SIC	38	RC	0	1	02VD 02VO 02VC 02MD 02MO 02MC 02RD 09RO	1	0	1.56484389305	395.0	-121.0	389	-114	1
2.7	2015_Jun_17_1003	s	s	23	3	SIC	39	RC	2	2	09VD 02VO 02VC 02MD 02MO 02MC 02RD 02RO	1	0	0.826940059662	276.0	239.0	276	234	1
2.7	2015_Jun_17_1003	s	s	23	3	SIC	40	ABS	0	2	02VD 02VO 02VC 02MD 02MO 02MC 10RD 02RO	0	1	2.41229701042	None	None	None	None	1
2.7	2015_Jun_17_1003	s	s	23	3	SIC	41	RC	2	0	02VD 02VO 09VC 02MD 02MO 02MC 02RD 02RO	1	0	1.65899705887	-214.0	-363.0	-209	-361	1
2.7	2015_Jun_17_1003	s	s	23	3	SIC	42	RC	0	2	02VD 02VO 02VC 02MD 02MO 02MC 09RD 02RO	1	0	0.905620098114	-272.0	-294.0	-266	-290	1
2.7	2015_Jun_17_1003	s	s	23	3	SIC	43	RC	1	1	02VD 02VO 02VC 02MD 09MO 02MC 02RD 02RO	1	0	1.27978992462	-43.0	-312.0	-42	-308	1
2.7	2015_Jun_17_1003	s	s	23	3	SIC	44	RC	2	1	02VD 09VO 02VC 02MD 02MO 02MC 02RD 02RO	1	0	1.33617997169	416.0	344.0	421	350	1
2.7	2015_Jun_17_1003	s	s	23	3	SIC	45	ABS	1	1	02VD 02VO 02VC 02MD 10MO 02MC 02RD 02RO	0	1	4.03177785873	None	None	None	None	1
2.7	2015_Jun_17_1003	s	s	23	3	SIC	46	ABS	1	2	02VD 02VO 02VC 10MD 02MO 02MC 02RD 02RO	0	1	3.83156704903	None	None	None	None	1
2.7	2015_Jun_17_1003	s	s	23	3	SIC	47	RC	1	0	02VD 02VO 02VC 02MD 02MO 09MC 02RD 02RO	1	0	1.8125	-501.0	-333.0	-501	-335	1
2.7	2015_Jun_17_1003	s	s	23	3	SIC	48	ABS	2	1	02VD 10VO 02VC 02MD 02MO 02MC 02RD 02RO	0	1	1.74502205849	None	None	None	None	1
2.7	2015_Jun_17_1003	s	s	23	3	SIC	49	ABS	0	2	02VD 02VO 02VC 02MD 02MO 02MC 10RD 02RO	0	1	2.89967393875	None	None	None	None	1
2.7	2015_Jun_17_1003	s	s	23	3	SIC	50	RC	1	0	02VD 02VO 02VC 02MD 02MO 09MC 02RD 02RO	1	0	0.69061589241	-281.0	-179.0	-282	-177	1
2.7	2015_Jun_17_1003	s	s	23	3	SIC	51	ABS	2	1	02VD 10VO 02VC 02MD 02MO 02MC 02RD 02RO	0	1	2.49468994141	None	None	None	None	1
2.7	2015_Jun_17_1003	s	s	23	3	SIC	52	RC	1	2	02VD 02VO 02VC 09MD 02MO 02MC 02RD 02RO	1	0	0.677284955978	-251.0	192.0	-245	190	1
2.7	2015_Jun_17_1003	s	s	23	3	SIC	53	ABS	1	1	02VD 02VO 02VC 02MD 10MO 02MC 02RD 02RO	0	1	3.49258613586	None	None	None	None	1
2.7	2015_Jun_17_1003	s	s	23	3	SIC	54	ABS	1	2	02VD 02VO 02VC 10MD 02MO 02MC 02RD 02RO	0	1	2.88977313042	None	None	None	None	1
2.7	2015_Jun_17_1003	s	s	23	3	SIC	55	RC	2	0	02VD 02VO 09VC 02MD 02MO 02MC 02RD 02RO	1	0	1.95321917534	386.0	375.0	384	375	1
2.7	2015_Jun_17_1003	s	s	23	3	SIC	56	RC	0	1	02VD 02VO 02VC 02MD 02MO 02MC 02RD 09RO	1	0	2.64223313332	-480.0	-320.0	-487	-321	1
2.7	2015_Jun_17_1003	s	s	23	3	SIC	57	RC	0	2	02VD 02VO 02VC 02MD 02MO 02MC 09RD 02RO	1	0	1.57660984993	446.0	135.0	445	135	1
2.7	2015_Jun_17_1003	s	s	23	3	SIC	58	RC	1	1	02VD 02VO 02VC 02MD 09MO 02MC 02RD 02RO	1	0	1.14107012749	-251.0	-261.0	-250	-260	1
2.7	2015_Jun_17_1003	s	s	23	3	SIC	59	ABS	2	2	10VD 02VO 02VC 02MD 02MO 02MC 02RD 02RO	0	1	2.48301577568	None	None	None	None	1
2.7	2015_Jun_17_1003	s	s	23	3	SIC	60	ABS	1	0	02VD 02VO 02VC 02MD 02MO 10MC 02RD 02RO	0	1	3.59807491302	None	None	None	None	1
2.7	2015_Jun_17_1003	s	s	23	3	SIC	61	ABS	2	0	02VD 02VO 10VC 02MD 02MO 02MC 02RD 02RO	0	1	2.5417239666	None	None	None	None	1
2.7	2015_Jun_17_1003	s	s	23	3	SIC	62	RC	2	2	09VD 02VO 02VC 02MD 02MO 02MC 02RD 02RO	1	0	2.5065600872	527.0	-270.0	524	-274	1
2.7	2015_Jun_17_1003	s	s	23	3	SIC	63	RC	2	1	02VD 09VO 02VC 02MD 02MO 02MC 02RD 02RO	1	0	1.98354792595	535.0	-315.0	527	-317	1
2.7	2015_Jun_17_1003	s	s	23	3	SIC	64	ABS	0	1	02VD 02VO 02VC 02MD 02MO 02MC 02RD 10RO	0	1	3.25485897064	None	None	None	None	1
2.7	2015_Jun_17_1003	s	s	23	3	SIC	65	ABS	1	2	02VD 02VO 02VC 10MD 02MO 02MC 02RD 02RO	0	1	2.42415785789	None	None	None	None	1
2.7	2015_Jun_17_1003	s	s	23	3	SIC	66	ABS	1	1	02VD 02VO 02VC 02MD 10MO 02MC 02RD 02RO	0	1	2.84829998016	None	None	None	None	1
2.7	2015_Jun_17_1003	s	s	23	3	SIC	67	ABS	0	1	02VD 02VO 02VC 02MD 02MO 02MC 02RD 10RO	0	1	4.268835783	None	None	None	None	1
2.7	2015_Jun_17_1003	s	s	23	3	SIC	68	ABS	1	0	02VD 02VO 02VC 02MD 02MO 10MC 02RD 02RO	0	1	4.48394203186	None	None	None	None	1
2.7	2015_Jun_17_1003	s	s	23	3	SIC	69	RC	1	1	02VD 02VO 02VC 02MD 09MO 02MC 02RD 02RO	1	0	2.54222893715	248.0	189.0	241	191	1
2.7	2015_Jun_17_1003	s	s	23	3	SIC	70	RC	0	2	02VD 02VO 02VC 02MD 02MO 02MC 09RD 02RO	1	0	1.02342414856	-455.0	-48.0	-461	-51	1
2.7	2015_Jun_17_1003	s	s	23	3	SIC	71	RC	1	0	02VD 02VO 02VC 02MD 02MO 09MC 02RD 02RO	1	0	3.02439212799	-143.0	375.0	-144	377	1
2.7	2015_Jun_17_1003	s	s	23	3	SIC	72	RC	2	1	02VD 09VO 02VC 02MD 02MO 02MC 02RD 02RO	1	0	0.997138023376	495.0	125.0	498	126	1
2.7	2015_Jun_17_1003	s	s	23	3	SIC	73	ABS	2	2	10VD 02VO 02VC 02MD 02MO 02MC 02RD 02RO	0	1	2.25480604172	None	None	None	None	1
2.7	2015_Jun_17_1003	s	s	23	3	SIC	74	ABS	2	1	02VD 10VO 02VC 02MD 02MO 02MC 02RD 02RO	0	1	3.19282817841	None	None	None	None	1
2.7	2015_Jun_17_1003	s	s	23	3	SIC	75	ABS	0	2	02VD 02VO 02VC 02MD 02MO 02MC 10RD 02RO	0	1	3.57277417183	None	None	None	None	1
2.7	2015_Jun_17_1003	s	s	23	3	SIC	76	ABS	2	0	02VD 02VO 10VC 02MD 02MO 02MC 02RD 02RO	0	1	2.19735097885	None	None	None	None	1
2.7	2015_Jun_17_1003	s	s	23	3	SIC	77	RC	2	2	09VD 02VO 02VC 02MD 02MO 02MC 02RD 02RO	1	0	1.52959394455	398.0	-149.0	392	-146	1
2.7	2015_Jun_17_1003	s	s	23	3	SIC	78	RC	0	1	02VD 02VO 02VC 02MD 02MO 02MC 02RD 09RO	1	0	0.791629076004	62.0	-53.0	61	-52	1
2.7	2015_Jun_17_1003	s	s	23	3	SIC	79	RC	1	2	02VD 02VO 02VC 09MD 02MO 02MC 02RD 02RO	1	0	1.80025792122	-520.0	-346.0	-526	-343	1
2.7	2015_Jun_17_1003	s	s	23	3	SIC	80	RC	2	0	02VD 02VO 09VC 02MD 02MO 02MC 02RD 02RO	1	0	2.09447717667	-270.0	-378.0	-267	-385	1
2.7	2015_Jun_17_1003	s	s	23	3	SIC	81	ABS	1	2	02VD 02VO 02VC 10MD 02MO 02MC 02RD 02RO	0	1	2.17686796188	None	None	None	None	1
2.7	2015_Jun_17_1003	s	s	23	3	SIC	82	ABS	1	0	02VD 02VO 02VC 02MD 02MO 10MC 02RD 02RO	0	1	2.48959493637	None	None	None	None	1
2.7	2015_Jun_17_1003	s	s	23	3	SIC	83	ABS	0	2	02VD 02VO 02VC 02MD 02MO 02MC 10RD 02RO	0	1	3.47847390175	None	None	None	None	1
2.7	2015_Jun_17_1003	s	s	23	3	SIC	84	RC	0	1	02VD 02VO 02VC 02MD 02MO 02MC 02RD 09RO	1	0	1.84741783142	175.0	-296.0	178	-294	1
2.7	2015_Jun_17_1003	s	s	23	3	SIC	85	ABS	0	1	02VD 02VO 02VC 02MD 02MO 02MC 02RD 10RO	0	1	4.3780579567	None	None	None	None	1
2.7	2015_Jun_17_1003	s	s	23	3	SIC	86	ABS	2	1	02VD 10VO 02VC 02MD 02MO 02MC 02RD 02RO	0	1	2.99281215668	None	None	None	None	1
2.7	2015_Jun_17_1003	s	s	23	3	SIC	87	RC	0	2	02VD 02VO 02VC 02MD 02MO 02MC 09RD 02RO	1	0	1.46805095673	-18.0	-59.0	-16	-57	1
2.7	2015_Jun_17_1003	s	s	23	3	SIC	88	RC	2	2	09VD 02VO 02VC 02MD 02MO 02MC 02RD 02RO	1	0	1.76494598389	99.0	388.0	99	386	1
2.7	2015_Jun_17_1003	s	s	23	3	SIC	89	ABS	2	2	10VD 02VO 02VC 02MD 02MO 02MC 02RD 02RO	0	1	2.03133893013	None	None	None	None	1
2.7	2015_Jun_17_1003	s	s	23	3	SIC	90	ABS	1	1	02VD 02VO 02VC 02MD 10MO 02MC 02RD 02RO	0	1	2.82479000092	None	None	None	None	1
2.7	2015_Jun_17_1003	s	s	23	3	SIC	91	RC	1	0	02VD 02VO 02VC 02MD 02MO 09MC 02RD 02RO	1	0	1.6708278656	34.0	-291.0	27	-292	1
2.7	2015_Jun_17_1003	s	s	23	3	SIC	92	RC	1	1	02VD 02VO 02VC 02MD 09MO 02MC 02RD 02RO	1	0	1.64067602158	302.0	-299.0	299	-303	1
2.7	2015_Jun_17_1003	s	s	23	3	SIC	93	RC	2	1	02VD 09VO 02VC 02MD 02MO 02MC 02RD 02RO	1	0	0.999818086624	108.0	-338.0	102	-340	1
2.7	2015_Jun_17_1003	s	s	23	3	SIC	94	ABS	2	0	02VD 02VO 10VC 02MD 02MO 02MC 02RD 02RO	0	1	3.10679411888	None	None	None	None	1
2.7	2015_Jun_17_1003	s	s	23	3	SIC	95	RC	1	2	02VD 02VO 02VC 09MD 02MO 02MC 02RD 02RO	1	0	1.18152403831	322.0	-23.0	327	-20	1
2.7	2015_Jun_17_1003	s	s	23	3	SIC	96	RC	2	0	02VD 02VO 09VC 02MD 02MO 02MC 02RD 02RO	1	0	1.40675592422	322.0	-331.0	321	-324	1
2.7	2015_Jun_17_1003	s	s	23	3	SIC	97	ABS	0	1	02VD 02VO 02VC 02MD 02MO 02MC 02RD 10RO	0	1	5.73164916039	None	None	None	None	1
2.7	2015_Jun_17_1003	s	s	23	3	SIC	98	RC	2	2	09VD 02VO 02VC 02MD 02MO 02MC 02RD 02RO	1	0	1.09136605263	149.0	-22.0	143	-18	1
2.7	2015_Jun_17_1003	s	s	23	3	SIC	99	ABS	1	0	02VD 02VO 02VC 02MD 02MO 10MC 02RD 02RO	0	1	3.75061607361	None	None	None	None	1
2.7	2015_Jun_17_1003	s	s	23	3	SIC	100	ABS	2	2	10VD 02VO 02VC 02MD 02MO 02MC 02RD 02RO	0	1	2.01222610474	None	None	None	None	1
2.7	2015_Jun_17_1003	s	s	23	3	SIC	101	RC	1	1	02VD 02VO 02VC 02MD 09MO 02MC 02RD 02RO	1	0	1.50602006912	361.0	151.0	355	150	1
2.7	2015_Jun_17_1003	s	s	23	3	SIC	102	ABS	2	0	02VD 02VO 10VC 02MD 02MO 02MC 02RD 02RO	0	1	3.08323287964	None	None	None	None	1
2.7	2015_Jun_17_1003	s	s	23	3	SIC	103	RC	0	2	02VD 02VO 02VC 02MD 02MO 02MC 09RD 02RO	1	0	1.36140012741	-531.0	-12.0	-532	-14	1
2.7	2015_Jun_17_1003	s	s	23	3	SIC	104	RC	0	1	02VD 02VO 02VC 02MD 02MO 02MC 02RD 09RO	1	0	2.17694711685	-317.0	-269.0	-323	-270	1
2.7	2015_Jun_17_1003	s	s	23	3	SIC	105	RC	1	2	02VD 02VO 02VC 09MD 02MO 02MC 02RD 02RO	1	0	0.835041999817	81.0	-98.0	77	-93	1
2.7	2015_Jun_17_1003	s	s	23	3	SIC	106	ABS	1	1	02VD 02VO 02VC 02MD 10MO 02MC 02RD 02RO	0	1	2.61231899261	None	None	None	None	1
2.7	2015_Jun_17_1003	s	s	23	3	SIC	107	ABS	2	1	02VD 10VO 02VC 02MD 02MO 02MC 02RD 02RO	0	1	1.8944041729	None	None	None	None	1
2.7	2015_Jun_17_1003	s	s	23	3	SIC	108	RC	2	1	02VD 09VO 02VC 02MD 02MO 02MC 02RD 02RO	1	0	1.32947397232	-289.0	-116.0	-290	-113	1
2.7	2015_Jun_17_1003	s	s	23	3	SIC	109	RC	1	0	02VD 02VO 02VC 02MD 02MO 09MC 02RD 02RO	1	0	1.18327403069	27.0	-411.0	38	-410	1
2.7	2015_Jun_17_1003	s	s	23	3	SIC	110	ABS	1	2	02VD 02VO 02VC 10MD 02MO 02MC 02RD 02RO	0	1	2.12476611137	None	None	None	None	1
2.7	2015_Jun_17_1003	s	s	23	3	SIC	111	ABS	0	2	02VD 02VO 02VC 02MD 02MO 02MC 10RD 02RO	0	1	3.96115398407	None	None	None	None	1
2.7	2015_Jun_17_1003	s	s	23	3	SIC	112	RC	2	0	02VD 02VO 09VC 02MD 02MO 02MC 02RD 02RO	1	0	0.665200948715	-223.0	-43.0	-214	-37	1
2.7	2015_Jun_17_1003	s	s	23	3	SIC	113	ABS	1	0	02VD 02VO 02VC 02MD 02MO 10MC 02RD 02RO	0	1	3.96600818634	None	None	None	None	1
2.7	2015_Jun_17_1003	s	s	23	3	SIC	114	RC	0	2	02VD 02VO 02VC 02MD 02MO 02MC 09RD 02RO	1	0	2.37191796303	366.0	367.0	365	371	1
2.7	2015_Jun_17_1003	s	s	23	3	SIC	115	ABS	0	1	02VD 02VO 02VC 02MD 02MO 02MC 02RD 10RO	0	1	4.89593601227	None	None	None	None	1
2.7	2015_Jun_17_1003	s	s	23	3	SIC	116	RC	2	0	02VD 02VO 09VC 02MD 02MO 02MC 02RD 02RO	1	0	0.937308073044	-331.0	-203.0	-328	-198	1
2.7	2015_Jun_17_1003	s	s	23	3	SIC	117	ABS	1	1	02VD 02VO 02VC 02MD 10MO 02MC 02RD 02RO	0	1	2.88982009888	None	None	None	None	1
2.7	2015_Jun_17_1003	s	s	23	3	SIC	118	ABS	2	0	02VD 02VO 10VC 02MD 02MO 02MC 02RD 02RO	0	1	3.30200695992	None	None	None	None	1
2.7	2015_Jun_17_1003	s	s	23	3	SIC	119	RC	1	1	02VD 02VO 02VC 02MD 09MO 02MC 02RD 02RO	1	0	1.17641091347	-35.0	-126.0	-42	-125	1
2.7	2015_Jun_17_1003	s	s	23	3	SIC	120	ABS	0	2	02VD 02VO 02VC 02MD 02MO 02MC 10RD 02RO	0	1	3.85360908508	None	None	None	None	1
2.7	2015_Jun_17_1003	s	s	23	3	SIC	121	ABS	2	2	10VD 02VO 02VC 02MD 02MO 02MC 02RD 02RO	0	1	2.76546597481	None	None	None	None	1
2.7	2015_Jun_17_1003	s	s	23	3	SIC	122	RC	1	2	02VD 02VO 02VC 09MD 02MO 02MC 02RD 02RO	1	0	0.711869001389	-148.0	234.0	-146	239	1
2.7	2015_Jun_17_1003	s	s	23	3	SIC	123	RC	1	0	02VD 02VO 02VC 02MD 02MO 09MC 02RD 02RO	1	0	1.2823779583	39.0	-326.0	39	-333	1
2.7	2015_Jun_17_1003	s	s	23	3	SIC	124	RC	2	1	02VD 09VO 02VC 02MD 02MO 02MC 02RD 02RO	1	0	0.905741930008	-179.0	258.0	-183	259	1
2.7	2015_Jun_17_1003	s	s	23	3	SIC	125	ABS	1	2	02VD 02VO 02VC 10MD 02MO 02MC 02RD 02RO	0	1	3.04544401169	None	None	None	None	1
2.7	2015_Jun_17_1003	s	s	23	3	SIC	126	ABS	2	1	02VD 10VO 02VC 02MD 02MO 02MC 02RD 02RO	0	1	2.60063719749	None	None	None	None	1
2.7	2015_Jun_17_1003	s	s	23	3	SIC	127	RC	0	1	02VD 02VO 02VC 02MD 02MO 02MC 02RD 09RO	1	0	0.900656938553	59.0	89.0	63	90	1
2.7	2015_Jun_17_1003	s	s	23	3	SIC	128	RC	2	2	09VD 02VO 02VC 02MD 02MO 02MC 02RD 02RO	1	0	1.21769714355	-468.0	357.0	-465	354	1
2.7	2015_Jun_17_1003	s	s	23	3	SIC	129	RC	2	2	09VD 02VO 02VC 02MD 02MO 02MC 02RD 02RO	1	0	0.740937948227	-92.0	35.0	-91	34	1
2.7	2015_Jun_17_1003	s	s	23	3	SIC	130	RC	2	0	02VD 02VO 09VC 02MD 02MO 02MC 02RD 02RO	1	0	1.17642188072	118.0	-158.0	122	-157	1
2.7	2015_Jun_17_1003	s	s	23	3	SIC	131	ABS	1	0	02VD 02VO 02VC 02MD 02MO 10MC 02RD 02RO	0	1	4.20554900169	None	None	None	None	1
2.7	2015_Jun_17_1003	s	s	23	3	SIC	132	ABS	1	2	02VD 02VO 02VC 10MD 02MO 02MC 02RD 02RO	0	1	3.58931899071	None	None	None	None	1
2.7	2015_Jun_17_1003	s	s	23	3	SIC	133	RC	0	1	02VD 02VO 02VC 02MD 02MO 02MC 02RD 09RO	1	0	2.39698195457	349.0	230.0	343	233	1
2.7	2015_Jun_17_1003	s	s	23	3	SIC	134	ABS	0	2	02VD 02VO 02VC 02MD 02MO 02MC 10RD 02RO	0	1	3.78955221176	None	None	None	None	1
2.7	2015_Jun_17_1003	s	s	23	3	SIC	135	ABS	2	2	10VD 02VO 02VC 02MD 02MO 02MC 02RD 02RO	0	1	2.50656104088	None	None	None	None	1
2.7	2015_Jun_17_1003	s	s	23	3	SIC	136	RC	1	2	02VD 02VO 02VC 09MD 02MO 02MC 02RD 02RO	1	0	0.682027101517	-335.0	178.0	-341	177	1
2.7	2015_Jun_17_1003	s	s	23	3	SIC	137	RC	1	1	02VD 02VO 02VC 02MD 09MO 02MC 02RD 02RO	1	0	1.06797599792	-345.0	381.0	-342	384	1
2.7	2015_Jun_17_1003	s	s	23	3	SIC	138	RC	1	0	02VD 02VO 02VC 02MD 02MO 09MC 02RD 02RO	1	0	2.37195205688	-150.0	-179.0	-147	-179	1
2.7	2015_Jun_17_1003	s	s	23	3	SIC	139	ABS	1	1	02VD 02VO 02VC 02MD 10MO 02MC 02RD 02RO	0	1	2.33666300774	None	None	None	None	1
2.7	2015_Jun_17_1003	s	s	23	3	SIC	140	RC	2	1	02VD 09VO 02VC 02MD 02MO 02MC 02RD 02RO	1	0	1.2705950737	-167.0	323.0	-173	323	1
2.7	2015_Jun_17_1003	s	s	23	3	SIC	141	ABS	2	1	02VD 10VO 02VC 02MD 02MO 02MC 02RD 02RO	0	1	2.04747915268	None	None	None	None	1
2.7	2015_Jun_17_1003	s	s	23	3	SIC	142	ABS	0	1	02VD 02VO 02VC 02MD 02MO 02MC 02RD 10RO	0	1	2.84791612625	None	None	None	None	1
2.7	2015_Jun_17_1003	s	s	23	3	SIC	143	ABS	2	0	02VD 02VO 10VC 02MD 02MO 02MC 02RD 02RO	0	1	2.1487839222	None	None	None	None	1
2.7	2015_Jun_17_1003	s	s	23	3	SIC	144	RC	0	2	02VD 02VO 02VC 02MD 02MO 02MC 09RD 02RO	1	0	1.18907499313	437.0	343.0	439	346	1
2.7	2015_Jun_17_1003	s	s	23	3	SIC	145	RC	2	0	02VD 02VO 09VC 02MD 02MO 02MC 02RD 02RO	1	0	1.20352292061	-254.0	-104.0	-251	-100	1
2.7	2015_Jun_17_1003	s	s	23	3	SIC	146	RC	1	0	02VD 02VO 02VC 02MD 02MO 09MC 02RD 02RO	1	0	1.3294570446	319.0	48.0	323	49	1
2.7	2015_Jun_17_1003	s	s	23	3	SIC	147	ABS	1	2	02VD 02VO 02VC 10MD 02MO 02MC 02RD 02RO	0	1	3.26713085175	None	None	None	None	1
2.7	2015_Jun_17_1003	s	s	23	3	SIC	148	RC	0	1	02VD 02VO 02VC 02MD 02MO 02MC 02RD 09RO	1	0	2.37703514099	-248.0	-346.0	-245	-344	1
2.7	2015_Jun_17_1003	s	s	23	3	SIC	149	RC	1	2	02VD 02VO 02VC 09MD 02MO 02MC 02RD 02RO	1	0	1.33371901512	-340.0	307.0	-340	303	1
2.7	2015_Jun_17_1003	s	s	23	3	SIC	150	ABS	2	2	10VD 02VO 02VC 02MD 02MO 02MC 02RD 02RO	0	1	1.86651515961	None	None	None	None	1
2.7	2015_Jun_17_1003	s	s	23	3	SIC	151	ABS	2	0	02VD 02VO 10VC 02MD 02MO 02MC 02RD 02RO	0	1	2.47122788429	None	None	None	None	1
2.7	2015_Jun_17_1003	s	s	23	3	SIC	152	ABS	0	1	02VD 02VO 02VC 02MD 02MO 02MC 02RD 10RO	0	1	3.66009402275	None	None	None	None	1
2.7	2015_Jun_17_1003	s	s	23	3	SIC	153	ABS	1	0	02VD 02VO 02VC 02MD 02MO 10MC 02RD 02RO	0	1	3.21949911118	None	None	None	None	1
2.7	2015_Jun_17_1003	s	s	23	3	SIC	154	ABS	0	2	02VD 02VO 02VC 02MD 02MO 02MC 10RD 02RO	0	1	2.9833509922	None	None	None	None	1
2.7	2015_Jun_17_1003	s	s	23	3	SIC	155	RC	2	2	09VD 02VO 02VC 02MD 02MO 02MC 02RD 02RO	1	0	1.12443804741	147.0	59.0	147	69	1
2.7	2015_Jun_17_1003	s	s	23	3	SIC	156	ABS	1	1	02VD 02VO 02VC 02MD 10MO 02MC 02RD 02RO	0	1	1.97405195236	None	None	None	None	1
2.7	2015_Jun_17_1003	s	s	23	3	SIC	157	RC	1	1	02VD 02VO 02VC 02MD 09MO 02MC 02RD 02RO	1	0	0.818111896515	183.0	51.0	176	54	1
2.7	2015_Jun_17_1003	s	s	23	3	SIC	158	RC	2	1	02VD 09VO 02VC 02MD 02MO 02MC 02RD 02RO	1	0	1.19995999336	-487.0	314.0	-489	321	1
2.7	2015_Jun_17_1003	s	s	23	3	SIC	159	ABS	2	1	02VD 10VO 02VC 02MD 02MO 02MC 02RD 02RO	0	1	2.17695403099	None	None	None	None	1
2.7	2015_Jun_17_1003	s	s	23	3	SIC	160	RC	0	2	02VD 02VO 02VC 02MD 02MO 02MC 09RD 02RO	1	0	1.27730107307	452.0	221.0	452	227	1
2.7	2015_Jun_17_1003	s	s	23	3	SIC	161	ABS	2	2	10VD 02VO 02VC 02MD 02MO 02MC 02RD 02RO	0	1	3.80121183395	None	None	None	None	1
2.7	2015_Jun_17_1003	s	s	23	3	SIC	162	RC	1	2	02VD 02VO 02VC 09MD 02MO 02MC 02RD 02RO	1	0	0.796994924545	-163.0	204.0	-168	201	1
2.7	2015_Jun_17_1003	s	s	23	3	SIC	163	RC	0	2	02VD 02VO 02VC 02MD 02MO 02MC 09RD 02RO	1	0	2.60714411736	533.0	-83.0	535	-81	1
2.7	2015_Jun_17_1003	s	s	23	3	SIC	164	RC	1	1	02VD 02VO 02VC 02MD 09MO 02MC 02RD 02RO	1	0	0.987963914871	-312.0	-26.0	-305	-33	1
2.7	2015_Jun_17_1003	s	s	23	3	SIC	165	RC	0	1	02VD 02VO 02VC 02MD 02MO 02MC 02RD 09RO	1	0	2.37430596352	-409.0	222.0	-411	224	1
2.7	2015_Jun_17_1003	s	s	23	3	SIC	166	ABS	2	1	02VD 10VO 02VC 02MD 02MO 02MC 02RD 02RO	0	1	2.5653181076	None	None	None	None	1
2.7	2015_Jun_17_1003	s	s	23	3	SIC	167	RC	2	1	02VD 09VO 02VC 02MD 02MO 02MC 02RD 02RO	1	0	0.946957826614	254.0	213.0	262	208	1
2.7	2015_Jun_17_1003	s	s	23	3	SIC	168	RC	2	0	02VD 02VO 09VC 02MD 02MO 02MC 02RD 02RO	1	0	2.24757003784	477.0	156.0	479	159	1
2.7	2015_Jun_17_1003	s	s	23	3	SIC	169	RC	2	2	09VD 02VO 02VC 02MD 02MO 02MC 02RD 02RO	1	0	0.96061706543	-31.0	-254.0	-31	-258	1
2.7	2015_Jun_17_1003	s	s	23	3	SIC	170	ABS	0	1	02VD 02VO 02VC 02MD 02MO 02MC 02RD 10RO	0	1	6.96758890152	None	None	None	None	1
2.7	2015_Jun_17_1003	s	s	23	3	SIC	171	RC	1	0	02VD 02VO 02VC 02MD 02MO 09MC 02RD 02RO	1	0	0.630006074905	-187.0	119.0	-190	120	1
2.7	2015_Jun_17_1003	s	s	23	3	SIC	172	ABS	1	0	02VD 02VO 02VC 02MD 02MO 10MC 02RD 02RO	0	1	3.5540368557	None	None	None	None	1
2.7	2015_Jun_17_1003	s	s	23	3	SIC	173	ABS	0	2	02VD 02VO 02VC 02MD 02MO 02MC 10RD 02RO	0	1	4.76641798019	None	None	None	None	1
2.7	2015_Jun_17_1003	s	s	23	3	SIC	174	ABS	2	0	02VD 02VO 10VC 02MD 02MO 02MC 02RD 02RO	0	1	2.39695286751	None	None	None	None	1
2.7	2015_Jun_17_1003	s	s	23	3	SIC	175	ABS	1	1	02VD 02VO 02VC 02MD 10MO 02MC 02RD 02RO	0	1	2.34175896645	None	None	None	None	1
2.7	2015_Jun_17_1003	s	s	23	3	SIC	176	ABS	1	2	02VD 02VO 02VC 10MD 02MO 02MC 02RD 02RO	0	1	2.54547691345	None	None	None	None	1
2.7	2015_Jun_17_1003	s	s	23	3	SIC	177	ABS	0	2	02VD 02VO 02VC 02MD 02MO 02MC 10RD 02RO	0	1	2.96043395996	None	None	None	None	1
2.7	2015_Jun_17_1003	s	s	23	3	SIC	178	RC	2	2	09VD 02VO 02VC 02MD 02MO 02MC 02RD 02RO	1	0	1.01813006401	-96.0	234.0	-99	234	1
2.7	2015_Jun_17_1003	s	s	23	3	SIC	179	RC	2	1	02VD 09VO 02VC 02MD 02MO 02MC 02RD 02RO	1	0	1.61200404167	-283.0	-394.0	-285	-399	1
2.7	2015_Jun_17_1003	s	s	23	3	SIC	180	RC	1	2	02VD 02VO 02VC 09MD 02MO 02MC 02RD 02RO	1	0	1.18451881409	416.0	-124.0	416	-118	1
2.7	2015_Jun_17_1003	s	s	23	3	SIC	181	RC	0	2	02VD 02VO 02VC 02MD 02MO 02MC 09RD 02RO	1	0	1.28246998787	247.0	336.0	246	339	1
2.7	2015_Jun_17_1003	s	s	23	3	SIC	182	ABS	1	2	02VD 02VO 02VC 10MD 02MO 02MC 02RD 02RO	0	1	2.38866901398	None	None	None	None	1
2.7	2015_Jun_17_1003	s	s	23	3	SIC	183	ABS	2	2	10VD 02VO 02VC 02MD 02MO 02MC 02RD 02RO	0	1	2.23232102394	None	None	None	None	1
2.7	2015_Jun_17_1003	s	s	23	3	SIC	184	ABS	0	1	02VD 02VO 02VC 02MD 02MO 02MC 02RD 10RO	0	1	6.1291000843	None	None	None	None	1
2.7	2015_Jun_17_1003	s	s	23	3	SIC	185	RC	0	1	02VD 02VO 02VC 02MD 02MO 02MC 02RD 09RO	1	0	4.83201909065	-47.0	322.0	-52	316	1
2.7	2015_Jun_17_1003	s	s	23	3	SIC	186	RC	1	0	02VD 02VO 02VC 02MD 02MO 09MC 02RD 02RO	1	0	0.634896993637	-139.0	42.0	-145	40	1
2.7	2015_Jun_17_1003	s	s	23	3	SIC	187	ABS	2	1	02VD 10VO 02VC 02MD 02MO 02MC 02RD 02RO	0	1	3.24802899361	None	None	None	None	1
2.7	2015_Jun_17_1003	s	s	23	3	SIC	188	ABS	1	0	02VD 02VO 02VC 02MD 02MO 10MC 02RD 02RO	0	1	4.53796005249	None	None	None	None	1
2.7	2015_Jun_17_1003	s	s	23	3	SIC	189	ABS	2	0	02VD 02VO 10VC 02MD 02MO 02MC 02RD 02RO	0	1	2.09493303299	None	None	None	None	1
2.7	2015_Jun_17_1003	s	s	23	3	SIC	190	RC	1	1	02VD 02VO 02VC 02MD 09MO 02MC 02RD 02RO	1	0	0.700673103333	-149.0	-23.0	-150	-26	1
2.7	2015_Jun_17_1003	s	s	23	3	SIC	191	RC	2	0	02VD 02VO 09VC 02MD 02MO 02MC 02RD 02RO	1	0	1.03061890602	135.0	-158.0	136	-159	1
2.7	2015_Jun_17_1003	s	s	23	3	SIC	192	ABS	1	1	02VD 02VO 02VC 02MD 10MO 02MC 02RD 02RO	0	1	3.00088095665	None	None	None	None	1
2.7	2015_Jun_17_1003	s	s	23	3	SIC	193	ABS	2	0	02VD 02VO 10VC 02MD 02MO 02MC 02RD 02RO	0	1	2.44761896133	None	None	None	None	1
2.7	2015_Jun_17_1003	s	s	23	3	SIC	194	RC	1	2	02VD 02VO 02VC 09MD 02MO 02MC 02RD 02RO	1	0	0.734447956085	81.0	-134.0	82	-127	1
2.7	2015_Jun_17_1003	s	s	23	3	SIC	195	ABS	1	1	02VD 02VO 02VC 02MD 10MO 02MC 02RD 02RO	0	1	3.33047389984	None	None	None	None	1
2.7	2015_Jun_17_1003	s	s	23	3	SIC	196	RC	2	0	02VD 02VO 09VC 02MD 02MO 02MC 02RD 02RO	1	0	0.60742688179	-74.0	123.0	-75	125	1
2.7	2015_Jun_17_1003	s	s	23	3	SIC	197	RC	2	1	02VD 09VO 02VC 02MD 02MO 02MC 02RD 02RO	1	0	1.38301086426	407.0	269.0	409	270	1
2.7	2015_Jun_17_1003	s	s	23	3	SIC	198	ABS	0	2	02VD 02VO 02VC 02MD 02MO 02MC 10RD 02RO	0	1	2.54181909561	None	None	None	None	1
2.7	2015_Jun_17_1003	s	s	23	3	SIC	199	RC	1	0	02VD 02VO 02VC 02MD 02MO 09MC 02RD 02RO	1	0	1.66629695892	312.0	-233.0	316	-232	1
2.7	2015_Jun_17_1003	s	s	23	3	SIC	200	ABS	2	1	02VD 10VO 02VC 02MD 02MO 02MC 02RD 02RO	0	1	2.66630506516	None	None	None	None	1
2.7	2015_Jun_17_1003	s	s	23	3	SIC	201	ABS	2	2	10VD 02VO 02VC 02MD 02MO 02MC 02RD 02RO	0	1	1.8781709671	None	None	None	None	1
2.7	2015_Jun_17_1003	s	s	23	3	SIC	202	ABS	1	0	02VD 02VO 02VC 02MD 02MO 10MC 02RD 02RO	0	1	3.96095395088	None	None	None	None	1
2.7	2015_Jun_17_1003	s	s	23	3	SIC	203	RC	2	2	09VD 02VO 02VC 02MD 02MO 02MC 02RD 02RO	1	0	0.773020982742	-404.0	-257.0	-406	-255	1
2.7	2015_Jun_17_1003	s	s	23	3	SIC	204	ABS	0	1	02VD 02VO 02VC 02MD 02MO 02MC 02RD 10RO	0	1	3.94800615311	None	None	None	None	1
2.7	2015_Jun_17_1003	s	s	23	3	SIC	205	RC	1	1	02VD 02VO 02VC 02MD 09MO 02MC 02RD 02RO	1	0	1.07734489441	-75.0	-113.0	-84	-110	1
2.7	2015_Jun_17_1003	s	s	23	3	SIC	206	RC	0	1	02VD 02VO 02VC 02MD 02MO 02MC 02RD 09RO	1	0	0.858563184738	-60.0	187.0	-57	191	1
2.7	2015_Jun_17_1003	s	s	23	3	SIC	207	ABS	1	2	02VD 02VO 02VC 10MD 02MO 02MC 02RD 02RO	0	1	3.34219002724	None	None	None	None	1
2.7	2015_Jun_17_1003	s	s	23	3	SIC	208	RC	0	2	02VD 02VO 02VC 02MD 02MO 02MC 09RD 02RO	1	0	1.81921195984	301.0	-3.0	298	2	1
2.7	2015_Jun_17_1003	s	s	23	3	SIC	209	RC	2	0	02VD 02VO 09VC 02MD 02MO 02MC 02RD 02RO	1	0	1.5060300827	430.0	-179.0	423	-180	1
2.7	2015_Jun_17_1003	s	s	23	3	SIC	210	RC	0	2	02VD 02VO 02VC 02MD 02MO 02MC 09RD 02RO	1	0	1.02909088135	-256.0	-182.0	-262	-183	1
2.7	2015_Jun_17_1003	s	s	23	3	SIC	211	ABS	1	0	02VD 02VO 02VC 02MD 02MO 10MC 02RD 02RO	0	1	3.67171907425	None	None	None	None	1
2.7	2015_Jun_17_1003	s	s	23	3	SIC	212	RC	1	1	02VD 02VO 02VC 02MD 09MO 02MC 02RD 02RO	1	0	1.29417586327	375.0	208.0	374	212	1
2.7	2015_Jun_17_1003	s	s	23	3	SIC	213	ABS	0	1	02VD 02VO 02VC 02MD 02MO 02MC 02RD 10RO	0	1	3.624751091	None	None	None	None	1
2.7	2015_Jun_17_1003	s	s	23	3	SIC	214	RC	0	1	02VD 02VO 02VC 02MD 02MO 02MC 02RD 09RO	1	0	1.67081093788	438.0	-166.0	435	-164	1
2.7	2015_Jun_17_1003	s	s	23	3	SIC	215	RC	1	0	02VD 02VO 02VC 02MD 02MO 09MC 02RD 02RO	1	0	1.10578417778	-417.0	-330.0	-417	-334	1
2.7	2015_Jun_17_1003	s	s	23	3	SIC	216	RC	1	2	02VD 02VO 02VC 09MD 02MO 02MC 02RD 02RO	1	0	1.16469192505	-536.0	-240.0	-538	-243	1
2.7	2015_Jun_17_1003	s	s	23	3	SIC	217	RC	2	2	09VD 02VO 02VC 02MD 02MO 02MC 02RD 02RO	1	0	0.682079076767	-15.0	290.0	-17	287	1
2.7	2015_Jun_17_1003	s	s	23	3	SIC	218	ABS	1	1	02VD 02VO 02VC 02MD 10MO 02MC 02RD 02RO	0	1	4.09556603432	None	None	None	None	1
2.7	2015_Jun_17_1003	s	s	23	3	SIC	219	ABS	2	1	02VD 10VO 02VC 02MD 02MO 02MC 02RD 02RO	0	1	3.07996582985	None	None	None	None	1
2.7	2015_Jun_17_1003	s	s	23	3	SIC	220	ABS	0	2	02VD 02VO 02VC 02MD 02MO 02MC 10RD 02RO	0	1	2.8830909729	None	None	None	None	1
2.7	2015_Jun_17_1003	s	s	23	3	SIC	221	ABS	2	2	10VD 02VO 02VC 02MD 02MO 02MC 02RD 02RO	0	1	2.43585300446	None	None	None	None	1
2.7	2015_Jun_17_1003	s	s	23	3	SIC	222	RC	2	1	02VD 09VO 02VC 02MD 02MO 02MC 02RD 02RO	1	0	0.693790912628	-275.0	311.0	-277	315	1
2.7	2015_Jun_17_1003	s	s	23	3	SIC	223	ABS	1	2	02VD 02VO 02VC 10MD 02MO 02MC 02RD 02RO	0	1	2.97733521461	None	None	None	None	1
2.7	2015_Jun_17_1003	s	s	23	3	SIC	224	ABS	2	0	02VD 02VO 10VC 02MD 02MO 02MC 02RD 02RO	0	1	2.12988591194	None	None	None	None	1
2.7	2015_Jun_17_1003	s	s	23	3	SIC	225	RC	2	1	02VD 09VO 02VC 02MD 02MO 02MC 02RD 02RO	1	0	1.68266105652	403.0	-384.0	398	-383	1
2.7	2015_Jun_17_1003	s	s	23	3	SIC	226	RC	2	2	09VD 02VO 02VC 02MD 02MO 02MC 02RD 02RO	1	0	1.30098605156	-294.0	-360.0	-301	-359	1
2.7	2015_Jun_17_1003	s	s	23	3	SIC	227	ABS	1	2	02VD 02VO 02VC 10MD 02MO 02MC 02RD 02RO	0	1	2.19562792778	None	None	None	None	1
2.7	2015_Jun_17_1003	s	s	23	3	SIC	228	ABS	1	1	02VD 02VO 02VC 02MD 10MO 02MC 02RD 02RO	0	1	3.02480006218	None	None	None	None	1
2.7	2015_Jun_17_1003	s	s	23	3	SIC	229	ABS	2	2	10VD 02VO 02VC 02MD 02MO 02MC 02RD 02RO	0	1	3.30691885948	None	None	None	None	1
2.7	2015_Jun_17_1003	s	s	23	3	SIC	230	RC	1	1	02VD 02VO 02VC 02MD 09MO 02MC 02RD 02RO	1	0	1.45894503593	457.0	-172.0	456	-173	1
2.7	2015_Jun_17_1003	s	s	23	3	SIC	231	RC	0	2	02VD 02VO 02VC 02MD 02MO 02MC 09RD 02RO	1	0	0.99532699585	170.0	393.0	175	395	1
2.7	2015_Jun_17_1003	s	s	23	3	SIC	232	RC	0	1	02VD 02VO 02VC 02MD 02MO 02MC 02RD 09RO	1	0	1.55976295471	450.0	51.0	443	49	1
2.7	2015_Jun_17_1003	s	s	23	3	SIC	233	ABS	0	1	02VD 02VO 02VC 02MD 02MO 02MC 02RD 10RO	0	1	2.78644990921	None	None	None	None	1
2.7	2015_Jun_17_1003	s	s	23	3	SIC	234	RC	1	2	02VD 02VO 02VC 09MD 02MO 02MC 02RD 02RO	1	0	1.37650084496	-313.0	305.0	-313	306	1
2.7	2015_Jun_17_1003	s	s	23	3	SIC	235	ABS	2	0	02VD 02VO 10VC 02MD 02MO 02MC 02RD 02RO	0	1	2.29471302032	None	None	None	None	1
2.7	2015_Jun_17_1003	s	s	23	3	SIC	236	ABS	2	1	02VD 10VO 02VC 02MD 02MO 02MC 02RD 02RO	0	1	2.5889339447	None	None	None	None	1
2.7	2015_Jun_17_1003	s	s	23	3	SIC	237	ABS	0	2	02VD 02VO 02VC 02MD 02MO 02MC 10RD 02RO	0	1	3.08327698708	None	None	None	None	1
2.7	2015_Jun_17_1003	s	s	23	3	SIC	238	RC	2	0	02VD 02VO 09VC 02MD 02MO 02MC 02RD 02RO	1	0	0.726396083832	-379.0	0.0	-385	5	1
2.7	2015_Jun_17_1003	s	s	23	3	SIC	239	RC	1	0	02VD 02VO 02VC 02MD 02MO 09MC 02RD 02RO	1	0	1.67741394043	464.0	146.0	463	150	1
2.7	2015_Jun_17_1003	s	s	23	3	SIC	240	ABS	1	0	02VD 02VO 02VC 02MD 02MO 10MC 02RD 02RO	0	1	3.53876805305	None	None	None	None	1
2.7	2015_Jun_17_1003	s	s	23	3	SIC	241	RC	0	1	02VD 02VO 02VC 02MD 02MO 02MC 02RD 09RO	1	0	1.98425102234	397.0	-97.0	403	-88	1
2.7	2015_Jun_17_1003	s	s	23	3	SIC	242	ABS	0	2	02VD 02VO 02VC 02MD 02MO 02MC 10RD 02RO	0	1	2.06613683701	None	None	None	None	1
2.7	2015_Jun_17_1003	s	s	23	3	SIC	243	RC	1	1	02VD 02VO 02VC 02MD 09MO 02MC 02RD 02RO	1	0	0.653512954712	16.0	5.0	18	7	1
2.7	2015_Jun_17_1003	s	s	23	3	SIC	244	RC	2	1	02VD 09VO 02VC 02MD 02MO 02MC 02RD 02RO	1	0	0.902453899384	220.0	162.0	226	168	1
2.7	2015_Jun_17_1003	s	s	23	3	SIC	245	ABS	2	2	10VD 02VO 02VC 02MD 02MO 02MC 02RD 02RO	0	1	2.84780097008	None	None	None	None	1
2.7	2015_Jun_17_1003	s	s	23	3	SIC	246	ABS	2	1	02VD 10VO 02VC 02MD 02MO 02MC 02RD 02RO	0	1	2.7015838623	None	None	None	None	1
2.7	2015_Jun_17_1003	s	s	23	3	SIC	247	RC	2	0	02VD 02VO 09VC 02MD 02MO 02MC 02RD 02RO	1	0	1.10056400299	-449.0	-304.0	-452	-307	1
2.7	2015_Jun_17_1003	s	s	23	3	SIC	248	RC	1	0	02VD 02VO 02VC 02MD 02MO 09MC 02RD 02RO	1	0	1.44209599495	-144.0	184.0	-145	188	1
2.7	2015_Jun_17_1003	s	s	23	3	SIC	249	RC	0	2	02VD 02VO 02VC 02MD 02MO 02MC 09RD 02RO	1	0	0.758943080902	40.0	130.0	25	136	1
2.7	2015_Jun_17_1003	s	s	23	3	SIC	250	ABS	1	2	02VD 02VO 02VC 10MD 02MO 02MC 02RD 02RO	0	1	2.7594769001	None	None	None	None	1
2.7	2015_Jun_17_1003	s	s	23	3	SIC	251	ABS	0	1	02VD 02VO 02VC 02MD 02MO 02MC 02RD 10RO	0	1	4.81354999542	None	None	None	None	1
2.7	2015_Jun_17_1003	s	s	23	3	SIC	252	ABS	1	1	02VD 02VO 02VC 02MD 10MO 02MC 02RD 02RO	0	1	3.15388393402	None	None	None	None	1
2.7	2015_Jun_17_1003	s	s	23	3	SIC	253	ABS	1	0	02VD 02VO 02VC 02MD 02MO 10MC 02RD 02RO	0	1	4.63192009926	None	None	None	None	1
2.7	2015_Jun_17_1003	s	s	23	3	SIC	254	RC	1	2	02VD 02VO 02VC 09MD 02MO 02MC 02RD 02RO	1	0	1.18367004395	-72.0	-109.0	-66	-114	1
2.7	2015_Jun_17_1003	s	s	23	3	SIC	255	ABS	2	0	02VD 02VO 10VC 02MD 02MO 02MC 02RD 02RO	0	1	2.4947681427	None	None	None	None	1
2.7	2015_Jun_17_1003	s	s	23	3	SIC	256	RC	2	2	09VD 02VO 02VC 02MD 02MO 02MC 02RD 02RO	1	0	1.21175098419	-42.0	-148.0	-46	-156	1
2.7	2015_Jun_17_1003	s	s	23	3	SIC	257	ABS	1	1	02VD 02VO 02VC 02MD 10MO 02MC 02RD 02RO	0	1	2.40096592903	None	None	None	None	1
2.7	2015_Jun_17_1003	s	s	23	3	SIC	258	ABS	1	0	02VD 02VO 02VC 02MD 02MO 10MC 02RD 02RO	0	1	2.39563894272	None	None	None	None	1
2.7	2015_Jun_17_1003	s	s	23	3	SIC	259	ABS	2	0	02VD 02VO 10VC 02MD 02MO 02MC 02RD 02RO	0	1	2.84783816338	None	None	None	None	1
2.7	2015_Jun_17_1003	s	s	23	3	SIC	260	RC	1	1	02VD 02VO 02VC 02MD 09MO 02MC 02RD 02RO	1	0	0.843070983887	-407.0	-16.0	-402	-14	1
2.7	2015_Jun_17_1003	s	s	23	3	SIC	261	RC	0	1	02VD 02VO 02VC 02MD 02MO 02MC 02RD 09RO	1	0	5.19703817368	-133.0	-270.0	-135	-267	1
2.7	2015_Jun_17_1003	s	s	23	3	SIC	262	ABS	1	2	02VD 02VO 02VC 10MD 02MO 02MC 02RD 02RO	0	1	2.7840731144	None	None	None	None	1
2.7	2015_Jun_17_1003	s	s	23	3	SIC	263	RC	1	2	02VD 02VO 02VC 09MD 02MO 02MC 02RD 02RO	1	0	0.670315980911	-133.0	-100.0	-138	-93	1
2.7	2015_Jun_17_1003	s	s	23	3	SIC	264	RC	0	2	02VD 02VO 02VC 02MD 02MO 02MC 09RD 02RO	1	0	1.19483995438	-407.0	406.0	-407	410	1
2.7	2015_Jun_17_1003	s	s	23	3	SIC	265	RC	1	0	02VD 02VO 02VC 02MD 02MO 09MC 02RD 02RO	1	0	1.01163983345	-47.0	127.0	-43	125	1
2.7	2015_Jun_17_1003	s	s	23	3	SIC	266	ABS	0	2	02VD 02VO 02VC 02MD 02MO 02MC 10RD 02RO	0	1	4.4317150116	None	None	None	None	1
2.7	2015_Jun_17_1003	s	s	23	3	SIC	267	ABS	0	1	02VD 02VO 02VC 02MD 02MO 02MC 02RD 10RO	0	1	7.54100489616	None	None	None	None	1
2.7	2015_Jun_17_1003	s	s	23	3	SIC	268	ABS	2	2	10VD 02VO 02VC 02MD 02MO 02MC 02RD 02RO	0	1	2.13497781754	None	None	None	None	1
2.7	2015_Jun_17_1003	s	s	23	3	SIC	269	ABS	2	1	02VD 10VO 02VC 02MD 02MO 02MC 02RD 02RO	0	1	1.76498889923	None	None	None	None	1
2.7	2015_Jun_17_1003	s	s	23	3	SIC	270	RC	2	2	09VD 02VO 02VC 02MD 02MO 02MC 02RD 02RO	1	0	1.05870199203	489.0	-89.0	491	-86	1
2.7	2015_Jun_17_1003	s	s	23	3	SIC	271	RC	2	1	02VD 09VO 02VC 02MD 02MO 02MC 02RD 02RO	1	0	1.2000169754	-162.0	297.0	-163	299	1
2.7	2015_Jun_17_1003	s	s	23	3	SIC	272	RC	2	0	02VD 02VO 09VC 02MD 02MO 02MC 02RD 02RO	1	0	1.42088794708	374.0	182.0	368	188	1
2.7	2015_Jun_17_1003	s	s	23	3	SIC	273	ABS	1	0	02VD 02VO 02VC 02MD 02MO 10MC 02RD 02RO	0	1	2.83111310005	None	None	None	None	1
2.7	2015_Jun_17_1003	s	s	23	3	SIC	274	RC	2	0	02VD 02VO 09VC 02MD 02MO 02MC 02RD 02RO	1	0	1.16488909721	86.0	-191.0	89	-195	1
2.7	2015_Jun_17_1003	s	s	23	3	SIC	275	RC	0	2	02VD 02VO 02VC 02MD 02MO 02MC 09RD 02RO	1	0	0.608134031296	105.0	-59.0	106	-56	1
2.7	2015_Jun_17_1003	s	s	23	3	SIC	276	RC	2	2	09VD 02VO 02VC 02MD 02MO 02MC 02RD 02RO	1	0	1.90625119209	494.0	367.0	499	375	1
2.7	2015_Jun_17_1003	s	s	23	3	SIC	277	ABS	2	1	02VD 10VO 02VC 02MD 02MO 02MC 02RD 02RO	0	1	3.02135896683	None	None	None	None	1
2.7	2015_Jun_17_1003	s	s	23	3	SIC	278	ABS	1	2	02VD 02VO 02VC 10MD 02MO 02MC 02RD 02RO	0	1	2.81786084175	None	None	None	None	1
2.7	2015_Jun_17_1003	s	s	23	3	SIC	279	ABS	2	2	10VD 02VO 02VC 02MD 02MO 02MC 02RD 02RO	0	1	2.29503893852	None	None	None	None	1
2.7	2015_Jun_17_1003	s	s	23	3	SIC	280	RC	1	0	02VD 02VO 02VC 02MD 02MO 09MC 02RD 02RO	1	0	2.0827999115	-33.0	346.0	-40	348	1
2.7	2015_Jun_17_1003	s	s	23	3	SIC	281	RC	1	1	02VD 02VO 02VC 02MD 09MO 02MC 02RD 02RO	1	0	1.09397101402	-379.0	193.0	-387	198	1
2.7	2015_Jun_17_1003	s	s	23	3	SIC	282	RC	2	1	02VD 09VO 02VC 02MD 02MO 02MC 02RD 02RO	1	0	1.27726101875	-425.0	-215.0	-426	-214	1
2.7	2015_Jun_17_1003	s	s	23	3	SIC	283	ABS	1	1	02VD 02VO 02VC 02MD 10MO 02MC 02RD 02RO	0	1	2.79513311386	None	None	None	None	1
2.7	2015_Jun_17_1003	s	s	23	3	SIC	284	ABS	2	0	02VD 02VO 10VC 02MD 02MO 02MC 02RD 02RO	0	1	2.45490694046	None	None	None	None	1
2.7	2015_Jun_17_1003	s	s	23	3	SIC	285	ABS	0	1	02VD 02VO 02VC 02MD 02MO 02MC 02RD 10RO	0	1	3.26020097733	None	None	None	None	1
2.7	2015_Jun_17_1003	s	s	23	3	SIC	286	RC	0	1	02VD 02VO 02VC 02MD 02MO 02MC 02RD 09RO	1	0	2.96557688713	538.0	395.0	534	392	1
2.7	2015_Jun_17_1003	s	s	23	3	SIC	287	RC	1	2	02VD 02VO 02VC 09MD 02MO 02MC 02RD 02RO	1	0	1.37148094177	279.0	-162.0	279	-160	1
2.7	2015_Jun_17_1003	s	s	23	3	SIC	288	ABS	0	2	02VD 02VO 02VC 02MD 02MO 02MC 10RD 02RO	0	1	4.58992695808	None	None	None	None	1
2.7	2015_Jun_17_1003	s	s	23	3	SIC	289	RC	0	2	02VD 02VO 02VC 02MD 02MO 02MC 09RD 02RO	1	0	0.859124898911	-131.0	74.0	-137	72	1
2.7	2015_Jun_17_1003	s	s	23	3	SIC	290	ABS	1	0	02VD 02VO 02VC 02MD 02MO 10MC 02RD 02RO	0	1	2.61953496933	None	None	None	None	1
2.7	2015_Jun_17_1003	s	s	23	3	SIC	291	ABS	1	2	02VD 02VO 02VC 10MD 02MO 02MC 02RD 02RO	0	1	3.67890191078	None	None	None	None	1
2.7	2015_Jun_17_1003	s	s	23	3	SIC	292	RC	1	1	02VD 02VO 02VC 02MD 09MO 02MC 02RD 02RO	1	0	0.982661008835	-88.0	-212.0	-85	-207	1
2.7	2015_Jun_17_1003	s	s	23	3	SIC	293	RC	1	0	02VD 02VO 02VC 02MD 02MO 09MC 02RD 02RO	1	0	1.48242020607	2.0	-264.0	-1	-259	1
2.7	2015_Jun_17_1003	s	s	23	3	SIC	294	RC	2	0	02VD 02VO 09VC 02MD 02MO 02MC 02RD 02RO	1	0	1.05872678757	-43.0	-130.0	-41	-127	1
2.7	2015_Jun_17_1003	s	s	23	3	SIC	295	RC	0	1	02VD 02VO 02VC 02MD 02MO 02MC 02RD 09RO	1	0	1.60670089722	-117.0	-301.0	-119	-307	1
2.7	2015_Jun_17_1003	s	s	23	3	SIC	296	ABS	2	0	02VD 02VO 10VC 02MD 02MO 02MC 02RD 02RO	0	1	3.75011610985	None	None	None	None	1
2.7	2015_Jun_17_1003	s	s	23	3	SIC	297	ABS	2	1	02VD 10VO 02VC 02MD 02MO 02MC 02RD 02RO	0	1	2.45948386192	None	None	None	None	1
2.7	2015_Jun_17_1003	s	s	23	3	SIC	298	RC	1	2	02VD 02VO 02VC 09MD 02MO 02MC 02RD 02RO	1	0	1.30147004128	141.0	-336.0	152	-334	1
2.7	2015_Jun_17_1003	s	s	23	3	SIC	299	ABS	0	2	02VD 02VO 02VC 02MD 02MO 02MC 10RD 02RO	0	1	2.26548695564	None	None	None	None	1
2.7	2015_Jun_17_1003	s	s	23	3	SIC	300	RC	2	1	02VD 09VO 02VC 02MD 02MO 02MC 02RD 02RO	1	0	0.700350046158	102.0	-88.0	101	-92	1
2.7	2015_Jun_17_1003	s	s	23	3	SIC	301	ABS	2	2	10VD 02VO 02VC 02MD 02MO 02MC 02RD 02RO	0	1	2.28304100037	None	None	None	None	1
2.7	2015_Jun_17_1003	s	s	23	3	SIC	302	ABS	0	1	02VD 02VO 02VC 02MD 02MO 02MC 02RD 10RO	0	1	5.64457416534	None	None	None	None	1
2.7	2015_Jun_17_1003	s	s	23	3	SIC	303	ABS	1	1	02VD 02VO 02VC 02MD 10MO 02MC 02RD 02RO	0	1	3.63163495064	None	None	None	None	1
2.7	2015_Jun_17_1003	s	s	23	3	SIC	304	RC	2	2	09VD 02VO 02VC 02MD 02MO 02MC 02RD 02RO	1	0	0.690968990326	-198.0	-117.0	-194	-116	1
2.7	2015_Jun_17_1003	s	s	23	3	SIC	305	ABS	1	2	02VD 02VO 02VC 10MD 02MO 02MC 02RD 02RO	0	1	2.81959605217	None	None	None	None	1
2.7	2015_Jun_17_1003	s	s	23	3	SIC	306	ABS	2	2	10VD 02VO 02VC 02MD 02MO 02MC 02RD 02RO	0	1	2.17176818848	None	None	None	None	1
2.7	2015_Jun_17_1003	s	s	23	3	SIC	307	RC	2	2	09VD 02VO 02VC 02MD 02MO 02MC 02RD 02RO	1	0	2.37702608109	417.0	189.0	414	191	1
2.7	2015_Jun_17_1003	s	s	23	3	SIC	308	ABS	1	0	02VD 02VO 02VC 02MD 02MO 10MC 02RD 02RO	0	1	4.472178936	None	None	None	None	1
2.7	2015_Jun_17_1003	s	s	23	3	SIC	309	RC	1	0	02VD 02VO 02VC 02MD 02MO 09MC 02RD 02RO	1	0	1.11239099503	345.0	157.0	350	162	1
2.7	2015_Jun_17_1003	s	s	23	3	SIC	310	RC	1	2	02VD 02VO 02VC 09MD 02MO 02MC 02RD 02RO	1	0	1.17628288269	-191.0	360.0	-203	361	1
2.7	2015_Jun_17_1003	s	s	23	3	SIC	311	RC	1	1	02VD 02VO 02VC 02MD 09MO 02MC 02RD 02RO	1	0	1.17643904686	413.0	107.0	417	104	1
2.7	2015_Jun_17_1003	s	s	23	3	SIC	312	RC	2	0	02VD 02VO 09VC 02MD 02MO 02MC 02RD 02RO	1	0	0.617254972458	-93.0	37.0	-101	33	1
2.7	2015_Jun_17_1003	s	s	23	3	SIC	313	RC	0	2	02VD 02VO 02VC 02MD 02MO 02MC 09RD 02RO	1	0	1.2064409256	-342.0	-69.0	-346	-60	1
2.7	2015_Jun_17_1003	s	s	23	3	SIC	314	ABS	0	2	02VD 02VO 02VC 02MD 02MO 02MC 10RD 02RO	0	1	3.78945684433	None	None	None	None	1
2.7	2015_Jun_17_1003	s	s	23	3	SIC	315	ABS	2	0	02VD 02VO 10VC 02MD 02MO 02MC 02RD 02RO	0	1	3.30360889435	None	None	None	None	1
2.7	2015_Jun_17_1003	s	s	23	3	SIC	316	ABS	0	1	02VD 02VO 02VC 02MD 02MO 02MC 02RD 10RO	0	1	7.68551778793	None	None	None	None	1
2.7	2015_Jun_17_1003	s	s	23	3	SIC	317	RC	2	1	02VD 09VO 02VC 02MD 02MO 02MC 02RD 02RO	1	0	1.47759103775	-466.0	140.0	-462	133	1
2.7	2015_Jun_17_1003	s	s	23	3	SIC	318	RC	0	1	02VD 02VO 02VC 02MD 02MO 02MC 02RD 09RO	1	0	2.36021900177	430.0	271.0	439	273	1
2.7	2015_Jun_17_1003	s	s	23	3	SIC	319	ABS	1	1	02VD 02VO 02VC 02MD 10MO 02MC 02RD 02RO	0	1	4.6957449913	None	None	None	None	1
2.7	2015_Jun_17_1003	s	s	23	3	SIC	320	ABS	2	1	02VD 10VO 02VC 02MD 02MO 02MC 02RD 02RO	0	1	3.6198451519	None	None	None	None	1
2.7	2015_Jun_17_1003	s	s	23	3	SIC	321	RC	0	2	02VD 02VO 02VC 02MD 02MO 02MC 09RD 02RO	1	0	1.18817806244	256.0	-70.0	243	-65	1
2.7	2015_Jun_17_1003	s	s	23	3	SIC	322	ABS	0	2	02VD 02VO 02VC 02MD 02MO 02MC 10RD 02RO	0	1	2.98651504517	None	None	None	None	1
2.7	2015_Jun_17_1003	s	s	23	3	SIC	323	RC	1	0	02VD 02VO 02VC 02MD 02MO 09MC 02RD 02RO	1	0	1.98047780991	37.0	-323.0	27	-325	1
2.7	2015_Jun_17_1003	s	s	23	3	SIC	324	RC	1	1	02VD 02VO 02VC 02MD 09MO 02MC 02RD 02RO	1	0	1.30077004433	314.0	-257.0	317	-258	1
2.7	2015_Jun_17_1003	s	s	23	3	SIC	325	ABS	2	1	02VD 10VO 02VC 02MD 02MO 02MC 02RD 02RO	0	1	2.07908511162	None	None	None	None	1
2.7	2015_Jun_17_1003	s	s	23	3	SIC	326	RC	1	2	02VD 02VO 02VC 09MD 02MO 02MC 02RD 02RO	1	0	0.94998383522	21.0	-209.0	25	-202	1
2.7	2015_Jun_17_1003	s	s	23	3	SIC	327	ABS	1	2	02VD 02VO 02VC 10MD 02MO 02MC 02RD 02RO	0	1	3.78358101845	None	None	None	None	1
2.7	2015_Jun_17_1003	s	s	23	3	SIC	328	RC	2	2	09VD 02VO 02VC 02MD 02MO 02MC 02RD 02RO	1	0	1.55836081505	318.0	180.0	315	173	1
2.7	2015_Jun_17_1003	s	s	23	3	SIC	329	ABS	2	2	10VD 02VO 02VC 02MD 02MO 02MC 02RD 02RO	0	1	1.96011590958	None	None	None	None	1
2.7	2015_Jun_17_1003	s	s	23	3	SIC	330	ABS	2	0	02VD 02VO 10VC 02MD 02MO 02MC 02RD 02RO	0	1	2.62425804138	None	None	None	None	1
2.7	2015_Jun_17_1003	s	s	23	3	SIC	331	ABS	1	0	02VD 02VO 02VC 02MD 02MO 10MC 02RD 02RO	0	1	4.67250394821	None	None	None	None	1
2.7	2015_Jun_17_1003	s	s	23	3	SIC	332	ABS	0	1	02VD 02VO 02VC 02MD 02MO 02MC 02RD 10RO	0	1	7.23831105232	None	None	None	None	1
2.7	2015_Jun_17_1003	s	s	23	3	SIC	333	ABS	1	1	02VD 02VO 02VC 02MD 10MO 02MC 02RD 02RO	0	1	5.84981799126	None	None	None	None	1
2.7	2015_Jun_17_1003	s	s	23	3	SIC	334	RC	0	1	02VD 02VO 02VC 02MD 02MO 02MC 02RD 09RO	1	0	1.09180188179	-194.0	-83.0	-201	-83	1
2.7	2015_Jun_17_1003	s	s	23	3	SIC	335	RC	2	1	02VD 09VO 02VC 02MD 02MO 02MC 02RD 02RO	1	0	2.31307792664	507.0	251.0	501	254	1
2.7	2015_Jun_17_1003	s	s	23	3	SIC	336	RC	2	0	02VD 02VO 09VC 02MD 02MO 02MC 02RD 02RO	1	0	0.677089929581	169.0	-14.0	170	-16	1
2.7	2015_Jun_17_1003	s	s	23	3	SIC	337	RC	0	2	02VD 02VO 02VC 02MD 02MO 02MC 09RD 02RO	1	0	2.22402000427	474.0	43.0	484	48	1
2.7	2015_Jun_17_1003	s	s	23	3	SIC	338	RC	2	1	02VD 09VO 02VC 02MD 02MO 02MC 02RD 02RO	1	0	1.94509220123	145.0	376.0	142	366	1
2.7	2015_Jun_17_1003	s	s	23	3	SIC	339	ABS	0	1	02VD 02VO 02VC 02MD 02MO 02MC 02RD 10RO	0	1	4.61998915672	None	None	None	None	1
2.7	2015_Jun_17_1003	s	s	23	3	SIC	340	RC	2	2	09VD 02VO 02VC 02MD 02MO 02MC 02RD 02RO	1	0	0.611392974854	-113.0	-8.0	-110	-9	1
2.7	2015_Jun_17_1003	s	s	23	3	SIC	341	ABS	2	1	02VD 10VO 02VC 02MD 02MO 02MC 02RD 02RO	0	1	2.22403001785	None	None	None	None	1
2.7	2015_Jun_17_1003	s	s	23	3	SIC	342	ABS	1	2	02VD 02VO 02VC 10MD 02MO 02MC 02RD 02RO	0	1	2.44251704216	None	None	None	None	1
2.7	2015_Jun_17_1003	s	s	23	3	SIC	343	ABS	2	2	10VD 02VO 02VC 02MD 02MO 02MC 02RD 02RO	0	1	2.73785281181	None	None	None	None	1
2.7	2015_Jun_17_1003	s	s	23	3	SIC	344	RC	2	0	02VD 02VO 09VC 02MD 02MO 02MC 02RD 02RO	1	0	0.917320013046	68.0	220.0	66	217	1
2.7	2015_Jun_17_1003	s	s	23	3	SIC	345	ABS	1	1	02VD 02VO 02VC 02MD 10MO 02MC 02RD 02RO	0	1	2.54190182686	None	None	None	None	1
2.7	2015_Jun_17_1003	s	s	23	3	SIC	346	RC	1	2	02VD 02VO 02VC 09MD 02MO 02MC 02RD 02RO	1	0	2.99639415741	-398.0	380.0	-395	375	1
2.7	2015_Jun_17_1003	s	s	23	3	SIC	347	ABS	1	0	02VD 02VO 02VC 02MD 02MO 10MC 02RD 02RO	0	1	4.60787200928	None	None	None	None	1
2.7	2015_Jun_17_1003	s	s	23	3	SIC	348	RC	0	1	02VD 02VO 02VC 02MD 02MO 02MC 02RD 09RO	1	0	1.98381614685	-538.0	280.0	-531	284	1
2.7	2015_Jun_17_1003	s	s	23	3	SIC	349	RC	1	0	02VD 02VO 02VC 02MD 02MO 09MC 02RD 02RO	1	0	1.77685689926	-104.0	-394.0	-98	-399	1
2.7	2015_Jun_17_1003	s	s	23	3	SIC	350	RC	1	1	02VD 02VO 02VC 02MD 09MO 02MC 02RD 02RO	1	0	0.846919059753	-146.0	-202.0	-141	-205	1
2.7	2015_Jun_17_1003	s	s	23	3	SIC	351	ABS	2	0	02VD 02VO 10VC 02MD 02MO 02MC 02RD 02RO	0	1	1.92480993271	None	None	None	None	1
2.7	2015_Jun_17_1003	s	s	23	3	SIC	352	ABS	0	2	02VD 02VO 02VC 02MD 02MO 02MC 10RD 02RO	0	1	2.82793998718	None	None	None	None	1
2.7	2015_Jun_17_1003	s	s	23	3	SIC	353	ABS	2	1	02VD 10VO 02VC 02MD 02MO 02MC 02RD 02RO	0	1	2.25934505463	None	None	None	None	1
2.7	2015_Jun_17_1003	s	s	23	3	SIC	354	RC	2	1	02VD 09VO 02VC 02MD 02MO 02MC 02RD 02RO	0	1	2.7839050293	502.0	-240.0	None	None	0
2.7	2015_Jun_17_1003	s	s	23	3	SIC	355	RC	2	2	09VD 02VO 02VC 02MD 02MO 02MC 02RD 02RO	1	0	1.03024315834	103.0	266.0	98	260	1
2.7	2015_Jun_17_1003	s	s	23	3	SIC	356	ABS	0	2	02VD 02VO 02VC 02MD 02MO 02MC 10RD 02RO	0	1	2.60050082207	None	None	None	None	1
2.7	2015_Jun_17_1003	s	s	23	3	SIC	357	RC	1	1	02VD 02VO 02VC 02MD 09MO 02MC 02RD 02RO	1	0	0.665214061737	-262.0	-99.0	-256	-101	1
2.7	2015_Jun_17_1003	s	s	23	3	SIC	358	RC	1	2	02VD 02VO 02VC 09MD 02MO 02MC 02RD 02RO	1	0	1.45401382446	195.0	-167.0	188	-173	1
2.7	2015_Jun_17_1003	s	s	23	3	SIC	359	ABS	1	1	02VD 02VO 02VC 02MD 10MO 02MC 02RD 02RO	0	1	2.71266913414	None	None	None	None	1
2.7	2015_Jun_17_1003	s	s	23	3	SIC	360	RC	0	1	02VD 02VO 02VC 02MD 02MO 02MC 02RD 09RO	1	0	2.38877606392	-400.0	-217.0	-404	-219	1
2.7	2015_Jun_17_1003	s	s	23	3	SIC	361	RC	0	2	02VD 02VO 02VC 02MD 02MO 02MC 09RD 02RO	1	0	1.34785509109	528.0	134.0	525	137	1
2.7	2015_Jun_17_1003	s	s	23	3	SIC	362	RC	2	0	02VD 02VO 09VC 02MD 02MO 02MC 02RD 02RO	1	0	0.658542871475	-301.0	-27.0	-296	-28	1
2.7	2015_Jun_17_1003	s	s	23	3	SIC	363	ABS	1	2	02VD 02VO 02VC 10MD 02MO 02MC 02RD 02RO	0	1	2.4594399929	None	None	None	None	1
2.7	2015_Jun_17_1003	s	s	23	3	SIC	364	ABS	2	2	10VD 02VO 02VC 02MD 02MO 02MC 02RD 02RO	0	1	4.22005105019	None	None	None	None	1
2.7	2015_Jun_17_1003	s	s	23	3	SIC	365	ABS	1	0	02VD 02VO 02VC 02MD 02MO 10MC 02RD 02RO	0	1	3.36075592041	None	None	None	None	1
2.7	2015_Jun_17_1003	s	s	23	3	SIC	366	ABS	0	1	02VD 02VO 02VC 02MD 02MO 02MC 02RD 10RO	0	1	5.1050620079	None	None	None	None	1
2.7	2015_Jun_17_1003	s	s	23	3	SIC	367	RC	1	0	02VD 02VO 02VC 02MD 02MO 09MC 02RD 02RO	1	0	0.788477182388	-266.0	-192.0	-257	-192	1
2.7	2015_Jun_17_1003	s	s	23	3	SIC	368	ABS	2	0	02VD 02VO 10VC 02MD 02MO 02MC 02RD 02RO	0	1	3.23624300957	None	None	None	None	1
2.7	2015_Jun_17_1003	s	s	23	3	SIC	369	RC	1	2	02VD 02VO 02VC 09MD 02MO 02MC 02RD 02RO	1	0	1.11268210411	-413.0	-298.0	-414	-302	1
2.7	2015_Jun_17_1003	s	s	23	3	SIC	370	RC	0	2	02VD 02VO 02VC 02MD 02MO 02MC 09RD 02RO	1	0	0.83872294426	45.0	197.0	49	194	1
2.7	2015_Jun_17_1003	s	s	23	3	SIC	371	RC	1	1	02VD 02VO 02VC 02MD 09MO 02MC 02RD 02RO	1	0	0.949803829193	391.0	16.0	386	18	1
2.7	2015_Jun_17_1003	s	s	23	3	SIC	372	RC	1	0	02VD 02VO 02VC 02MD 02MO 09MC 02RD 02RO	1	0	1.85088300705	-517.0	-404.0	-514	-408	1
2.7	2015_Jun_17_1003	s	s	23	3	SIC	373	RC	2	2	09VD 02VO 02VC 02MD 02MO 02MC 02RD 02RO	1	0	0.717324972153	-146.0	-216.0	-147	-215	1
2.7	2015_Jun_17_1003	s	s	23	3	SIC	374	ABS	0	2	02VD 02VO 02VC 02MD 02MO 02MC 10RD 02RO	0	1	2.61243700981	None	None	None	None	1
2.7	2015_Jun_17_1003	s	s	23	3	SIC	375	RC	2	1	02VD 09VO 02VC 02MD 02MO 02MC 02RD 02RO	1	0	0.973206043243	10.0	321.0	11	329	1
2.7	2015_Jun_17_1003	s	s	23	3	SIC	376	ABS	2	1	02VD 10VO 02VC 02MD 02MO 02MC 02RD 02RO	0	1	1.56475710869	None	None	None	None	1
2.7	2015_Jun_17_1003	s	s	23	3	SIC	377	RC	2	0	02VD 02VO 09VC 02MD 02MO 02MC 02RD 02RO	1	0	1.71389484406	511.0	-89.0	511	-87	1
2.7	2015_Jun_17_1003	s	s	23	3	SIC	378	ABS	1	1	02VD 02VO 02VC 02MD 10MO 02MC 02RD 02RO	0	1	2.86862897873	None	None	None	None	1
2.7	2015_Jun_17_1003	s	s	23	3	SIC	379	ABS	0	1	02VD 02VO 02VC 02MD 02MO 02MC 02RD 10RO	0	1	4.961602211	None	None	None	None	1
2.7	2015_Jun_17_1003	s	s	23	3	SIC	380	ABS	1	2	02VD 02VO 02VC 10MD 02MO 02MC 02RD 02RO	0	1	2.75369787216	None	None	None	None	1
2.7	2015_Jun_17_1003	s	s	23	3	SIC	381	ABS	2	0	02VD 02VO 10VC 02MD 02MO 02MC 02RD 02RO	0	1	2.76097512245	None	None	None	None	1
2.7	2015_Jun_17_1003	s	s	23	3	SIC	382	ABS	2	2	10VD 02VO 02VC 02MD 02MO 02MC 02RD 02RO	0	1	2.0710170269	None	None	None	None	1
2.7	2015_Jun_17_1003	s	s	23	3	SIC	383	ABS	1	0	02VD 02VO 02VC 02MD 02MO 10MC 02RD 02RO	0	1	2.37749385834	None	None	None	None	1
2.7	2015_Jun_17_1003	s	s	23	3	SIC	384	RC	0	1	02VD 02VO 02VC 02MD 02MO 02MC 02RD 09RO	1	0	1.32455301285	-458.0	216.0	-457	215	1
2.7	2015_Jun_17_1003	s	s	23	3	SIC	385	ABS	2	1	02VD 10VO 02VC 02MD 02MO 02MC 02RD 02RO	0	1	1.76494383812	None	None	None	None	1
2.7	2015_Jun_17_1003	s	s	23	3	SIC	386	ABS	1	1	02VD 02VO 02VC 02MD 10MO 02MC 02RD 02RO	0	1	3.33946895599	None	None	None	None	1
2.7	2015_Jun_17_1003	s	s	23	3	SIC	387	RC	1	0	02VD 02VO 02VC 02MD 02MO 09MC 02RD 02RO	1	0	1.21864390373	-313.0	-153.0	-312	-147	1
2.7	2015_Jun_17_1003	s	s	23	3	SIC	388	RC	0	1	02VD 02VO 02VC 02MD 02MO 02MC 02RD 09RO	1	0	1.72966217995	378.0	-77.0	378	-74	1
2.7	2015_Jun_17_1003	s	s	23	3	SIC	389	RC	2	2	09VD 02VO 02VC 02MD 02MO 02MC 02RD 02RO	1	0	0.84403014183	-390.0	47.0	-388	49	1
2.7	2015_Jun_17_1003	s	s	23	3	SIC	390	ABS	0	2	02VD 02VO 02VC 02MD 02MO 02MC 10RD 02RO	0	1	3.2833468914	None	None	None	None	1
2.7	2015_Jun_17_1003	s	s	23	3	SIC	391	ABS	1	0	02VD 02VO 02VC 02MD 02MO 10MC 02RD 02RO	0	1	5.06074404716	None	None	None	None	1
2.7	2015_Jun_17_1003	s	s	23	3	SIC	392	RC	1	2	02VD 02VO 02VC 09MD 02MO 02MC 02RD 02RO	1	0	1.15965485573	114.0	106.0	116	102	1
2.7	2015_Jun_17_1003	s	s	23	3	SIC	393	RC	0	2	02VD 02VO 02VC 02MD 02MO 02MC 09RD 02RO	1	0	0.935261011124	-202.0	-120.0	-203	-114	1
2.7	2015_Jun_17_1003	s	s	23	3	SIC	394	ABS	1	2	02VD 02VO 02VC 10MD 02MO 02MC 02RD 02RO	0	1	2.06810188293	None	None	None	None	1
2.7	2015_Jun_17_1003	s	s	23	3	SIC	395	RC	2	0	02VD 02VO 09VC 02MD 02MO 02MC 02RD 02RO	1	0	0.917525053024	-42.0	210.0	-43	213	1
2.7	2015_Jun_17_1003	s	s	23	3	SIC	396	ABS	2	0	02VD 02VO 10VC 02MD 02MO 02MC 02RD 02RO	0	1	2.21928715706	None	None	None	None	1
2.7	2015_Jun_17_1003	s	s	23	3	SIC	397	RC	2	1	02VD 09VO 02VC 02MD 02MO 02MC 02RD 02RO	0	1	2.07101011276	-465.0	384.0	None	None	0
2.7	2015_Jun_17_1003	s	s	23	3	SIC	398	ABS	2	2	10VD 02VO 02VC 02MD 02MO 02MC 02RD 02RO	0	1	4.30745410919	None	None	None	None	1
2.7	2015_Jun_17_1003	s	s	23	3	SIC	399	ABS	0	1	02VD 02VO 02VC 02MD 02MO 02MC 02RD 10RO	0	1	6.4732439518	None	None	None	None	1
2.7	2015_Jun_17_1003	s	s	23	3	SIC	400	RC	1	1	02VD 02VO 02VC 02MD 09MO 02MC 02RD 02RO	1	0	1.65544199944	436.0	-162.0	440	-163	1
2.7	2015_Jun_17_1003	s	s	23	3	SIC	401	ABS	2	0	02VD 02VO 10VC 02MD 02MO 02MC 02RD 02RO	0	1	2.7493519783	None	None	None	None	1
2.7	2015_Jun_17_1003	s	s	23	3	SIC	402	RC	2	1	02VD 09VO 02VC 02MD 02MO 02MC 02RD 02RO	1	0	1.52443003654	-115.0	-297.0	-119	-295	1
2.7	2015_Jun_17_1003	s	s	23	3	SIC	403	RC	1	2	02VD 02VO 02VC 09MD 02MO 02MC 02RD 02RO	1	0	1.23031902313	208.0	225.0	214	224	1
2.7	2015_Jun_17_1003	s	s	23	3	SIC	404	ABS	0	2	02VD 02VO 02VC 02MD 02MO 02MC 10RD 02RO	0	1	3.8286280632	None	None	None	None	1
2.7	2015_Jun_17_1003	s	s	23	3	SIC	405	RC	2	2	09VD 02VO 02VC 02MD 02MO 02MC 02RD 02RO	1	0	1.52432394028	413.0	-208.0	412	-210	1
2.7	2015_Jun_17_1003	s	s	23	3	SIC	406	RC	0	1	02VD 02VO 02VC 02MD 02MO 02MC 02RD 09RO	1	0	1.04317307472	-407.0	-321.0	-413	-329	1
2.7	2015_Jun_17_1003	s	s	23	3	SIC	407	RC	1	0	02VD 02VO 02VC 02MD 02MO 09MC 02RD 02RO	1	0	2.09455394745	-371.0	369.0	-367	370	1
2.7	2015_Jun_17_1003	s	s	23	3	SIC	408	RC	0	2	02VD 02VO 02VC 02MD 02MO 02MC 09RD 02RO	1	0	1.44716119766	259.0	148.0	253	147	1
2.7	2015_Jun_17_1003	s	s	23	3	SIC	409	ABS	2	1	02VD 10VO 02VC 02MD 02MO 02MC 02RD 02RO	0	1	2.30147600174	None	None	None	None	1
2.7	2015_Jun_17_1003	s	s	23	3	SIC	410	ABS	0	1	02VD 02VO 02VC 02MD 02MO 02MC 02RD 10RO	0	1	5.93820095062	None	None	None	None	1
2.7	2015_Jun_17_1003	s	s	23	3	SIC	411	RC	2	0	02VD 02VO 09VC 02MD 02MO 02MC 02RD 02RO	1	0	1.32450914383	192.0	369.0	192	366	1
2.7	2015_Jun_17_1003	s	s	23	3	SIC	412	ABS	1	0	02VD 02VO 02VC 02MD 02MO 10MC 02RD 02RO	0	1	2.28287005424	None	None	None	None	1
2.7	2015_Jun_17_1003	s	s	23	3	SIC	413	RC	1	1	02VD 02VO 02VC 02MD 09MO 02MC 02RD 02RO	1	0	1.79672122002	519.0	-106.0	524	-107	1
2.7	2015_Jun_17_1003	s	s	23	3	SIC	414	ABS	1	1	02VD 02VO 02VC 02MD 10MO 02MC 02RD 02RO	0	1	4.12578606606	None	None	None	None	1
2.7	2015_Jun_17_1003	s	s	23	3	SIC	415	ABS	1	2	02VD 02VO 02VC 10MD 02MO 02MC 02RD 02RO	0	1	3.59607791901	None	None	None	None	1
2.7	2015_Jun_17_1003	s	s	23	3	SIC	416	ABS	2	2	10VD 02VO 02VC 02MD 02MO 02MC 02RD 02RO	0	1	3.94288897514	None	None	None	None	1
2.7	2015_Jun_17_1003	s	s	23	3	SIC	417	ABS	2	0	02VD 02VO 10VC 02MD 02MO 02MC 02RD 02RO	0	1	3.07193589211	None	None	None	None	1
2.7	2015_Jun_17_1003	s	s	23	3	SIC	418	RC	1	0	02VD 02VO 02VC 02MD 02MO 09MC 02RD 02RO	1	0	1.57708406448	-193.0	-377.0	-195	-377	1
2.7	2015_Jun_17_1003	s	s	23	3	SIC	419	ABS	1	0	02VD 02VO 02VC 02MD 02MO 10MC 02RD 02RO	0	1	3.88371706009	None	None	None	None	1
2.7	2015_Jun_17_1003	s	s	23	3	SIC	420	ABS	2	1	02VD 10VO 02VC 02MD 02MO 02MC 02RD 02RO	0	1	3.61969804764	None	None	None	None	1
2.7	2015_Jun_17_1003	s	s	23	3	SIC	421	ABS	0	2	02VD 02VO 02VC 02MD 02MO 02MC 10RD 02RO	0	1	2.76267290115	None	None	None	None	1
2.7	2015_Jun_17_1003	s	s	23	3	SIC	422	ABS	2	2	10VD 02VO 02VC 02MD 02MO 02MC 02RD 02RO	0	1	2.81817817688	None	None	None	None	1
2.7	2015_Jun_17_1003	s	s	23	3	SIC	423	RC	0	2	02VD 02VO 02VC 02MD 02MO 02MC 09RD 02RO	1	0	1.41172194481	-12.0	-402.0	-13	-400	1
2.7	2015_Jun_17_1003	s	s	23	3	SIC	424	ABS	0	1	02VD 02VO 02VC 02MD 02MO 02MC 02RD 10RO	0	1	4.5277299881	None	None	None	None	1
2.7	2015_Jun_17_1003	s	s	23	3	SIC	425	RC	1	1	02VD 02VO 02VC 02MD 09MO 02MC 02RD 02RO	1	0	1.19998598099	190.0	41.0	187	38	1
2.7	2015_Jun_17_1003	s	s	23	3	SIC	426	RC	2	2	09VD 02VO 02VC 02MD 02MO 02MC 02RD 02RO	1	0	1.03515410423	242.0	-14.0	249	-9	1
2.7	2015_Jun_17_1003	s	s	23	3	SIC	427	ABS	1	2	02VD 02VO 02VC 10MD 02MO 02MC 02RD 02RO	0	1	4.51381802559	None	None	None	None	1
2.7	2015_Jun_17_1003	s	s	23	3	SIC	428	RC	1	2	02VD 02VO 02VC 09MD 02MO 02MC 02RD 02RO	1	0	1.64436388016	369.0	-257.0	372	-259	1
2.7	2015_Jun_17_1003	s	s	23	3	SIC	429	RC	2	1	02VD 09VO 02VC 02MD 02MO 02MC 02RD 02RO	1	0	1.08891701698	260.0	-356.0	256	-365	1
2.7	2015_Jun_17_1003	s	s	23	3	SIC	430	RC	2	0	02VD 02VO 09VC 02MD 02MO 02MC 02RD 02RO	1	0	1.10318589211	125.0	320.0	124	319	1
2.7	2015_Jun_17_1003	s	s	23	3	SIC	431	ABS	1	1	02VD 02VO 02VC 02MD 10MO 02MC 02RD 02RO	0	1	2.19537997246	None	None	None	None	1
2.7	2015_Jun_17_1003	s	s	23	3	SIC	432	RC	0	1	02VD 02VO 02VC 02MD 02MO 02MC 02RD 09RO	1	0	0.841956138611	-30.0	90.0	-35	89	1
2.7	2015_Jun_17_1003	s	s	23	3	SIC	433	RC	2	2	09VD 02VO 02VC 02MD 02MO 02MC 02RD 02RO	1	0	2.29462099075	458.0	-188.0	465	-185	1
2.7	2015_Jun_17_1003	s	s	23	3	SIC	434	ABS	1	1	02VD 02VO 02VC 02MD 10MO 02MC 02RD 02RO	0	1	3.76017189026	None	None	None	None	1
2.7	2015_Jun_17_1003	s	s	23	3	SIC	435	ABS	2	0	02VD 02VO 10VC 02MD 02MO 02MC 02RD 02RO	0	1	2.57708382607	None	None	None	None	1
2.7	2015_Jun_17_1003	s	s	23	3	SIC	436	RC	1	2	02VD 02VO 02VC 09MD 02MO 02MC 02RD 02RO	1	0	1.40735793114	-444.0	86.0	-449	85	1
2.7	2015_Jun_17_1003	s	s	23	3	SIC	437	RC	2	0	02VD 02VO 09VC 02MD 02MO 02MC 02RD 02RO	1	0	0.988120079041	-509.0	103.0	-509	104	1
2.7	2015_Jun_17_1003	s	s	23	3	SIC	438	RC	2	1	02VD 09VO 02VC 02MD 02MO 02MC 02RD 02RO	1	0	0.764447927475	196.0	194.0	203	192	1
2.7	2015_Jun_17_1003	s	s	23	3	SIC	439	ABS	0	1	02VD 02VO 02VC 02MD 02MO 02MC 02RD 10RO	0	1	3.79624795914	None	None	None	None	1
2.7	2015_Jun_17_1003	s	s	23	3	SIC	440	ABS	0	2	02VD 02VO 02VC 02MD 02MO 02MC 10RD 02RO	0	1	2.12991881371	None	None	None	None	1
2.7	2015_Jun_17_1003	s	s	23	3	SIC	441	ABS	1	0	02VD 02VO 02VC 02MD 02MO 10MC 02RD 02RO	0	1	3.05574083328	None	None	None	None	1
2.7	2015_Jun_17_1003	s	s	23	3	SIC	442	ABS	2	1	02VD 10VO 02VC 02MD 02MO 02MC 02RD 02RO	0	1	2.36034178734	None	None	None	None	1
2.7	2015_Jun_17_1003	s	s	23	3	SIC	443	RC	0	2	02VD 02VO 02VC 02MD 02MO 02MC 09RD 02RO	1	0	1.52332377434	505.0	146.0	494	147	1
2.7	2015_Jun_17_1003	s	s	23	3	SIC	444	RC	0	1	02VD 02VO 02VC 02MD 02MO 02MC 02RD 09RO	1	0	0.677173852921	-282.0	98.0	-291	98	1
2.7	2015_Jun_17_1003	s	s	23	3	SIC	445	RC	1	0	02VD 02VO 02VC 02MD 02MO 09MC 02RD 02RO	1	0	1.96530890465	348.0	334.0	337	335	1
2.7	2015_Jun_17_1003	s	s	23	3	SIC	446	ABS	1	2	02VD 02VO 02VC 10MD 02MO 02MC 02RD 02RO	0	1	2.46623706818	None	None	None	None	1
2.7	2015_Jun_17_1003	s	s	23	3	SIC	447	ABS	2	2	10VD 02VO 02VC 02MD 02MO 02MC 02RD 02RO	0	1	2.07102108002	None	None	None	None	1
2.7	2015_Jun_17_1003	s	s	23	3	SIC	448	RC	1	1	02VD 02VO 02VC 02MD 09MO 02MC 02RD 02RO	1	0	1.81195616722	427.0	14.0	429	22	1
2.7	2015_Jun_17_1003	s	s	23	3	SIC	449	ABS	0	2	02VD 02VO 02VC 02MD 02MO 02MC 10RD 02RO	0	1	2.48980212212	None	None	None	None	1
2.7	2015_Jun_17_1003	s	s	23	3	SIC	450	ABS	1	1	02VD 02VO 02VC 02MD 10MO 02MC 02RD 02RO	0	1	3.14880204201	None	None	None	None	1
2.7	2015_Jun_17_1003	s	s	23	3	SIC	451	RC	1	0	02VD 02VO 02VC 02MD 02MO 09MC 02RD 02RO	0	1	2.4543569088	-323.0	-411.0	None	None	0
2.7	2015_Jun_17_1003	s	s	23	3	SIC	452	ABS	2	2	10VD 02VO 02VC 02MD 02MO 02MC 02RD 02RO	0	1	5.54982280731	None	None	None	None	1
2.7	2015_Jun_17_1003	s	s	23	3	SIC	453	ABS	0	1	02VD 02VO 02VC 02MD 02MO 02MC 02RD 10RO	0	1	5.28441095352	None	None	None	None	1
2.7	2015_Jun_17_1003	s	s	23	3	SIC	454	RC	2	2	09VD 02VO 02VC 02MD 02MO 02MC 02RD 02RO	1	0	2.01255702972	385.0	-242.0	387	-246	1
2.7	2015_Jun_17_1003	s	s	23	3	SIC	455	RC	0	2	02VD 02VO 02VC 02MD 02MO 02MC 09RD 02RO	1	0	1.13835096359	-246.0	-193.0	-249	-194	1
2.7	2015_Jun_17_1003	s	s	23	3	SIC	456	RC	1	2	02VD 02VO 02VC 09MD 02MO 02MC 02RD 02RO	1	0	2.07765388489	150.0	-409.0	143	-415	1
2.7	2015_Jun_17_1003	s	s	23	3	SIC	457	ABS	2	0	02VD 02VO 10VC 02MD 02MO 02MC 02RD 02RO	0	1	2.95000600815	None	None	None	None	1
2.7	2015_Jun_17_1003	s	s	23	3	SIC	458	RC	1	1	02VD 02VO 02VC 02MD 09MO 02MC 02RD 02RO	1	0	1.10581803322	-514.0	359.0	-511	361	1
2.7	2015_Jun_17_1003	s	s	23	3	SIC	459	ABS	2	1	02VD 10VO 02VC 02MD 02MO 02MC 02RD 02RO	0	1	2.6006500721	None	None	None	None	1
2.7	2015_Jun_17_1003	s	s	23	3	SIC	460	ABS	1	0	02VD 02VO 02VC 02MD 02MO 10MC 02RD 02RO	0	1	5.49130415916	None	None	None	None	1
2.7	2015_Jun_17_1003	s	s	23	3	SIC	461	RC	0	1	02VD 02VO 02VC 02MD 02MO 02MC 02RD 09RO	1	0	1.89050197601	-50.0	247.0	-51	252	1
2.7	2015_Jun_17_1003	s	s	23	3	SIC	462	RC	2	1	02VD 09VO 02VC 02MD 02MO 02MC 02RD 02RO	1	0	1.84187698364	323.0	274.0	324	279	1
2.7	2015_Jun_17_1003	s	s	23	3	SIC	463	RC	2	0	02VD 02VO 09VC 02MD 02MO 02MC 02RD 02RO	1	0	2.35874795914	134.0	167.0	133	164	1
2.7	2015_Jun_17_1003	s	s	23	3	SIC	464	ABS	1	2	02VD 02VO 02VC 10MD 02MO 02MC 02RD 02RO	0	1	4.01032781601	None	None	None	None	1
2.7	2015_Jun_17_1003	s	s	23	3	SIC	465	ABS	1	0	02VD 02VO 02VC 02MD 02MO 10MC 02RD 02RO	0	1	3.63653206825	None	None	None	None	1
2.7	2015_Jun_17_1003	s	s	23	3	SIC	466	ABS	1	1	02VD 02VO 02VC 02MD 10MO 02MC 02RD 02RO	0	1	4.3278439045	None	None	None	None	1
2.7	2015_Jun_17_1003	s	s	23	3	SIC	467	RC	0	1	02VD 02VO 02VC 02MD 02MO 02MC 02RD 09RO	1	0	2.88319301605	-456.0	263.0	-457	266	1
2.7	2015_Jun_17_1003	s	s	23	3	SIC	468	RC	0	2	02VD 02VO 02VC 02MD 02MO 02MC 09RD 02RO	1	0	1.70085406303	-201.0	373.0	-196	373	1
2.7	2015_Jun_17_1003	s	s	23	3	SIC	469	RC	2	2	09VD 02VO 02VC 02MD 02MO 02MC 02RD 02RO	1	0	1.93663191795	477.0	-203.0	471	-196	1
2.7	2015_Jun_17_1003	s	s	23	3	SIC	470	RC	1	2	02VD 02VO 02VC 09MD 02MO 02MC 02RD 02RO	1	0	0.756300926208	-110.0	-229.0	-110	-225	1
2.7	2015_Jun_17_1003	s	s	23	3	SIC	471	RC	1	1	02VD 02VO 02VC 02MD 09MO 02MC 02RD 02RO	1	0	1.08226895332	-435.0	118.0	-433	121	1
2.7	2015_Jun_17_1003	s	s	23	3	SIC	472	ABS	2	1	02VD 10VO 02VC 02MD 02MO 02MC 02RD 02RO	0	1	2.65140199661	None	None	None	None	1
2.7	2015_Jun_17_1003	s	s	23	3	SIC	473	ABS	1	2	02VD 02VO 02VC 10MD 02MO 02MC 02RD 02RO	0	1	2.30637598038	None	None	None	None	1
2.7	2015_Jun_17_1003	s	s	23	3	SIC	474	ABS	2	0	02VD 02VO 10VC 02MD 02MO 02MC 02RD 02RO	0	1	2.0473651886	None	None	None	None	1
2.7	2015_Jun_17_1003	s	s	23	3	SIC	475	RC	2	1	02VD 09VO 02VC 02MD 02MO 02MC 02RD 02RO	1	0	1.24222517014	136.0	382.0	137	385	1
2.7	2015_Jun_17_1003	s	s	23	3	SIC	476	RC	2	0	02VD 02VO 09VC 02MD 02MO 02MC 02RD 02RO	1	0	0.941220998764	253.0	-7.0	242	1	1
2.7	2015_Jun_17_1003	s	s	23	3	SIC	477	RC	1	0	02VD 02VO 02VC 02MD 02MO 09MC 02RD 02RO	1	0	1.72456717491	368.0	-172.0	374	-175	1
2.7	2015_Jun_17_1003	s	s	23	3	SIC	478	ABS	0	1	02VD 02VO 02VC 02MD 02MO 02MC 02RD 10RO	0	1	5.70811891556	None	None	None	None	1
2.7	2015_Jun_17_1003	s	s	23	3	SIC	479	ABS	2	2	10VD 02VO 02VC 02MD 02MO 02MC 02RD 02RO	0	1	3.9276099205	None	None	None	None	1
2.7	2015_Jun_17_1003	s	s	23	3	SIC	480	ABS	0	2	02VD 02VO 02VC 02MD 02MO 02MC 10RD 02RO	0	1	3.93077087402	None	None	None	None	1
