Version	Date	Stimuli	Method	Subject	Session	Condition	Trial	Target	Channel1	Channel2	Distractors	LMouseButton	RMouseButton	RT	TargetX	TargetY	ResponseX	ResponseY	Correct
2.7	2015_Jun_19_1011	s	s	23	5	Capacity	1	RC	0	1	08RD 15RO	1	0	1.54124498367	-358.0	69.0	-361	69	1
2.7	2015_Jun_19_1011	s	s	23	5	Capacity	2	RC	0	2	15RD 08RO	1	0	2.89009904861	-202.0	-268.0	-209	-272	1
2.7	2015_Jun_19_1011	s	s	23	5	Capacity	3	ABS	0	2	16RD 08RO	0	1	4.33803987503	None	None	None	None	1
2.7	2015_Jun_19_1011	s	s	23	5	Capacity	4	ABS	0	1	08RD 16RO	0	1	6.52688884735	None	None	None	None	1
2.7	2015_Jun_19_1011	s	s	23	5	Capacity	5	RC	0	1	08RD 15RO	1	0	4.89067292213	-475.0	113.0	-475	109	1
2.7	2015_Jun_19_1011	s	s	23	5	Capacity	6	ABS	0	2	16RD 08RO	0	1	4.20143198967	None	None	None	None	1
2.7	2015_Jun_19_1011	s	s	23	5	Capacity	7	RC	0	2	15RD 08RO	1	0	0.829905986786	-9.0	176.0	-3	180	1
2.7	2015_Jun_19_1011	s	s	23	5	Capacity	8	ABS	0	1	08RD 16RO	0	1	6.88151693344	None	None	None	None	1
2.7	2015_Jun_19_1011	s	s	23	5	Capacity	9	RC	0	1	08RD 15RO	1	0	4.38487410545	-383.0	86.0	-379	84	1
2.7	2015_Jun_19_1011	s	s	23	5	Capacity	10	ABS	0	2	16RD 08RO	0	1	10.1080591679	None	None	None	None	1
2.7	2015_Jun_19_1011	s	s	23	5	Capacity	11	RC	0	2	15RD 08RO	1	0	3.2899749279	-64.0	-388.0	-67	-390	1
2.7	2015_Jun_19_1011	s	s	23	5	Capacity	12	ABS	0	1	08RD 16RO	0	1	6.64647197723	None	None	None	None	1
2.7	2015_Jun_19_1011	s	s	23	5	Capacity	13	ABS	0	2	16RD 08RO	0	1	3.13038492203	None	None	None	None	1
2.7	2015_Jun_19_1011	s	s	23	5	Capacity	14	RC	0	2	15RD 08RO	1	0	0.985692024231	18.0	-240.0	18	-235	1
2.7	2015_Jun_19_1011	s	s	23	5	Capacity	15	RC	0	1	08RD 15RO	1	0	2.78578495979	54.0	343.0	52	333	1
2.7	2015_Jun_19_1011	s	s	23	5	Capacity	16	ABS	0	1	08RD 16RO	0	1	6.9406478405	None	None	None	None	1
2.7	2015_Jun_19_1011	s	s	23	5	Capacity	17	RC	0	1	08RD 15RO	1	0	1.09202980995	122.0	-91.0	119	-90	1
2.7	2015_Jun_19_1011	s	s	23	5	Capacity	18	ABS	0	1	08RD 16RO	0	1	9.00383591652	None	None	None	None	1
2.7	2015_Jun_19_1011	s	s	23	5	Capacity	19	ABS	0	2	16RD 08RO	0	1	6.449644804	None	None	None	None	1
2.7	2015_Jun_19_1011	s	s	23	5	Capacity	20	RC	0	2	15RD 08RO	1	0	1.21875214577	-408.0	99.0	-408	96	1
2.7	2015_Jun_19_1011	s	s	23	5	Capacity	21	ABS	0	1	08RD 16RO	0	1	4.70743918419	None	None	None	None	1
2.7	2015_Jun_19_1011	s	s	23	5	Capacity	22	ABS	0	2	16RD 08RO	0	1	4.34303212166	None	None	None	None	1
2.7	2015_Jun_19_1011	s	s	23	5	Capacity	23	RC	0	2	15RD 08RO	1	0	2.83111596107	-440.0	-316.0	-446	-315	1
2.7	2015_Jun_19_1011	s	s	23	5	Capacity	24	RC	0	1	08RD 15RO	1	0	2.78410506248	-27.0	-202.0	-22	-205	1
2.7	2015_Jun_19_1011	s	s	23	5	Capacity	25	RC	0	2	15RD 08RO	1	0	0.976274967194	-392.0	97.0	-395	96	1
2.7	2015_Jun_19_1011	s	s	23	5	Capacity	26	RC	0	1	08RD 15RO	1	0	2.43967795372	-124.0	-283.0	-123	-285	1
2.7	2015_Jun_19_1011	s	s	23	5	Capacity	27	ABS	0	1	08RD 16RO	0	1	7.43194890022	None	None	None	None	1
2.7	2015_Jun_19_1011	s	s	23	5	Capacity	28	ABS	0	2	16RD 08RO	1	0	2.69475483894	None	None	-490	-16	0
2.7	2015_Jun_19_1011	s	s	23	5	Capacity	29	ABS	0	2	16RD 08RO	0	1	3.43152499199	None	None	None	None	1
2.7	2015_Jun_19_1011	s	s	23	5	Capacity	30	RC	0	1	08RD 15RO	1	0	1.11755609512	27.0	-343.0	29	-336	1
2.7	2015_Jun_19_1011	s	s	23	5	Capacity	31	RC	0	2	15RD 08RO	1	0	0.764425992966	-26.0	-48.0	-28	-45	1
2.7	2015_Jun_19_1011	s	s	23	5	Capacity	32	ABS	0	1	08RD 16RO	0	1	5.96239805222	None	None	None	None	1
2.7	2015_Jun_19_1011	s	s	23	5	Capacity	33	ABS	0	1	08RD 16RO	0	1	7.00284004211	None	None	None	None	1
2.7	2015_Jun_19_1011	s	s	23	5	Capacity	34	ABS	0	2	16RD 08RO	0	1	3.07969117165	None	None	None	None	1
2.7	2015_Jun_19_1011	s	s	23	5	Capacity	35	RC	0	1	08RD 15RO	1	0	1.43037700653	247.0	294.0	248	300	1
2.7	2015_Jun_19_1011	s	s	23	5	Capacity	36	RC	0	2	15RD 08RO	1	0	2.61241817474	212.0	-257.0	215	-260	1
2.7	2015_Jun_19_1011	s	s	23	5	Capacity	37	RC	0	1	08RD 15RO	1	0	0.552597999573	-274.0	-20.0	-277	-15	1
2.7	2015_Jun_19_1011	s	s	23	5	Capacity	38	ABS	0	1	08RD 16RO	0	1	6.15300393105	None	None	None	None	1
2.7	2015_Jun_19_1011	s	s	23	5	Capacity	39	RC	0	2	15RD 08RO	1	0	4.58471703529	-391.0	-227.0	-391	-238	1
2.7	2015_Jun_19_1011	s	s	23	5	Capacity	40	ABS	0	2	16RD 08RO	0	1	5.69640994072	None	None	None	None	1
2.7	2015_Jun_19_1011	s	s	23	5	Capacity	41	ABS	0	2	16RD 08RO	0	1	5.21371102333	None	None	None	None	1
2.7	2015_Jun_19_1011	s	s	23	5	Capacity	42	RC	0	2	15RD 08RO	1	0	2.25930595398	535.0	64.0	537	63	1
2.7	2015_Jun_19_1011	s	s	23	5	Capacity	43	RC	0	1	08RD 15RO	1	0	2.97251391411	311.0	-372.0	313	-377	1
2.7	2015_Jun_19_1011	s	s	23	5	Capacity	44	ABS	0	1	08RD 16RO	0	1	4.00138092041	None	None	None	None	1
2.7	2015_Jun_19_1011	s	s	23	5	Capacity	45	RC	0	2	15RD 08RO	1	0	2.18866610527	-527.0	-361.0	-522	-362	1
2.7	2015_Jun_19_1011	s	s	23	5	Capacity	46	ABS	0	1	08RD 16RO	0	1	7.38654589653	None	None	None	None	1
2.7	2015_Jun_19_1011	s	s	23	5	Capacity	47	ABS	0	2	16RD 08RO	0	1	3.58418297768	None	None	None	None	1
2.7	2015_Jun_19_1011	s	s	23	5	Capacity	48	RC	0	1	08RD 15RO	1	0	1.38396191597	-491.0	-396.0	-492	-397	1
2.7	2015_Jun_19_1011	s	s	23	5	Capacity	49	ABS	0	2	16RD 08RO	0	1	3.97779417038	None	None	None	None	1
2.7	2015_Jun_19_1011	s	s	23	5	Capacity	50	ABS	0	1	08RD 16RO	0	1	5.21367502213	None	None	None	None	1
2.7	2015_Jun_19_1011	s	s	23	5	Capacity	51	RC	0	1	08RD 15RO	1	0	0.913004159927	-179.0	173.0	-184	171	1
2.7	2015_Jun_19_1011	s	s	23	5	Capacity	52	RC	0	2	15RD 08RO	1	0	0.634951114655	-106.0	60.0	-113	60	1
2.7	2015_Jun_19_1011	s	s	23	5	Capacity	53	ABS	0	2	16RD 08RO	0	1	2.7889509201	None	None	None	None	1
2.7	2015_Jun_19_1011	s	s	23	5	Capacity	54	RC	0	1	08RD 15RO	1	0	2.05913496017	-410.0	-55.0	-407	-54	1
2.7	2015_Jun_19_1011	s	s	23	5	Capacity	55	RC	0	2	15RD 08RO	1	0	0.688170909882	-137.0	121.0	-141	127	1
2.7	2015_Jun_19_1011	s	s	23	5	Capacity	56	ABS	0	1	08RD 16RO	0	1	7.76794290543	None	None	None	None	1
2.7	2015_Jun_19_1011	s	s	23	5	Capacity	57	ABS	0	2	16RD 08RO	0	1	4.49079990387	None	None	None	None	1
2.7	2015_Jun_19_1011	s	s	23	5	Capacity	58	ABS	0	1	08RD 16RO	0	1	7.41483712196	None	None	None	None	1
2.7	2015_Jun_19_1011	s	s	23	5	Capacity	59	RC	0	2	15RD 08RO	1	0	2.23053097725	463.0	279.0	470	275	1
2.7	2015_Jun_19_1011	s	s	23	5	Capacity	60	RC	0	1	08RD 15RO	1	0	0.76432800293	71.0	241.0	68	241	1
2.7	2015_Jun_19_1011	s	s	23	5	Capacity	61	RC	0	1	08RD 15RO	1	0	1.21861195564	-482.0	279.0	-486	273	1
2.7	2015_Jun_19_1011	s	s	23	5	Capacity	62	RC	0	2	15RD 08RO	1	0	0.949495792389	-301.0	407.0	-297	408	1
2.7	2015_Jun_19_1011	s	s	23	5	Capacity	63	ABS	0	1	08RD 16RO	0	1	4.80560112	None	None	None	None	1
2.7	2015_Jun_19_1011	s	s	23	5	Capacity	64	ABS	0	2	16RD 08RO	0	1	6.30351495743	None	None	None	None	1
2.7	2015_Jun_19_1011	s	s	23	5	Capacity	1	RC	2	0	15VC 08MC	1	0	0.740875959396	-466.0	-407.0	-472	-405	1
2.7	2015_Jun_19_1011	s	s	23	5	Capacity	2	ABS	1	0	08VC 16MC	0	1	2.24262404442	None	None	None	None	1
2.7	2015_Jun_19_1011	s	s	23	5	Capacity	3	RC	1	0	08VC 15MC	1	0	0.862588882446	373.0	247.0	371	243	1
2.7	2015_Jun_19_1011	s	s	23	5	Capacity	4	ABS	2	0	16VC 08MC	0	1	1.97159910202	None	None	None	None	1
2.7	2015_Jun_19_1011	s	s	23	5	Capacity	5	ABS	1	0	08VC 16MC	0	1	2.07948517799	None	None	None	None	1
2.7	2015_Jun_19_1011	s	s	23	5	Capacity	6	ABS	2	0	16VC 08MC	0	1	1.47764897346	None	None	None	None	1
2.7	2015_Jun_19_1011	s	s	23	5	Capacity	7	RC	1	0	08VC 15MC	1	0	0.827143907547	-528.0	241.0	-531	240	1
2.7	2015_Jun_19_1011	s	s	23	5	Capacity	8	RC	2	0	15VC 08MC	1	0	0.912575960159	-458.0	401.0	-455	400	1
2.7	2015_Jun_19_1011	s	s	23	5	Capacity	9	RC	2	0	15VC 08MC	1	0	0.658421039581	97.0	-135.0	101	-138	1
2.7	2015_Jun_19_1011	s	s	23	5	Capacity	10	ABS	1	0	08VC 16MC	0	1	2.53644299507	None	None	None	None	1
2.7	2015_Jun_19_1011	s	s	23	5	Capacity	11	RC	1	0	08VC 15MC	1	0	1.19469690323	409.0	354.0	401	358	1
2.7	2015_Jun_19_1011	s	s	23	5	Capacity	12	ABS	2	0	16VC 08MC	0	1	2.28980708122	None	None	None	None	1
2.7	2015_Jun_19_1011	s	s	23	5	Capacity	13	ABS	1	0	08VC 16MC	0	1	2.07785892487	None	None	None	None	1
2.7	2015_Jun_19_1011	s	s	23	5	Capacity	14	ABS	2	0	16VC 08MC	0	1	1.96504712105	None	None	None	None	1
2.7	2015_Jun_19_1011	s	s	23	5	Capacity	15	RC	2	0	15VC 08MC	1	0	0.776182174683	-447.0	-86.0	-446	-89	1
2.7	2015_Jun_19_1011	s	s	23	5	Capacity	16	RC	1	0	08VC 15MC	1	0	0.791798114777	-249.0	-261.0	-243	-256	1
2.7	2015_Jun_19_1011	s	s	23	5	Capacity	17	ABS	2	0	16VC 08MC	0	1	3.04250478745	None	None	None	None	1
2.7	2015_Jun_19_1011	s	s	23	5	Capacity	18	ABS	1	0	08VC 16MC	0	1	3.40798807144	None	None	None	None	1
2.7	2015_Jun_19_1011	s	s	23	5	Capacity	19	RC	2	0	15VC 08MC	1	0	0.658377885818	37.0	334.0	42	325	1
2.7	2015_Jun_19_1011	s	s	23	5	Capacity	20	RC	1	0	08VC 15MC	1	0	0.759703159332	-477.0	21.0	-479	29	1
2.7	2015_Jun_19_1011	s	s	23	5	Capacity	21	RC	2	0	15VC 08MC	1	0	0.559360980988	-152.0	97.0	-158	101	1
2.7	2015_Jun_19_1011	s	s	23	5	Capacity	22	ABS	1	0	08VC 16MC	0	1	2.38895702362	None	None	None	None	1
2.7	2015_Jun_19_1011	s	s	23	5	Capacity	23	ABS	2	0	16VC 08MC	0	1	1.91781902313	None	None	None	None	1
2.7	2015_Jun_19_1011	s	s	23	5	Capacity	24	RC	1	0	08VC 15MC	1	0	1.23539710045	-528.0	326.0	-533	317	1
2.7	2015_Jun_19_1011	s	s	23	5	Capacity	25	ABS	1	0	08VC 16MC	0	1	1.82095599174	None	None	None	None	1
2.7	2015_Jun_19_1011	s	s	23	5	Capacity	26	RC	2	0	15VC 08MC	1	0	1.5647778511	460.0	128.0	455	125	1
2.7	2015_Jun_19_1011	s	s	23	5	Capacity	27	ABS	2	0	16VC 08MC	0	1	2.43969511986	None	None	None	None	1
2.7	2015_Jun_19_1011	s	s	23	5	Capacity	28	RC	1	0	08VC 15MC	1	0	1.41857504845	184.0	-310.0	184	-316	1
2.7	2015_Jun_19_1011	s	s	23	5	Capacity	29	ABS	2	0	16VC 08MC	0	1	2.42404007912	None	None	None	None	1
2.7	2015_Jun_19_1011	s	s	23	5	Capacity	30	ABS	1	0	08VC 16MC	0	1	2.4220430851	None	None	None	None	1
2.7	2015_Jun_19_1011	s	s	23	5	Capacity	31	RC	2	0	15VC 08MC	1	0	0.741250038147	-312.0	96.0	-311	95	1
2.7	2015_Jun_19_1011	s	s	23	5	Capacity	32	RC	1	0	08VC 15MC	1	0	0.54776096344	-193.0	71.0	-184	72	1
2.7	2015_Jun_19_1011	s	s	23	5	Capacity	33	ABS	2	0	16VC 08MC	0	1	2.04736304283	None	None	None	None	1
2.7	2015_Jun_19_1011	s	s	23	5	Capacity	34	ABS	1	0	08VC 16MC	0	1	1.92474293709	None	None	None	None	1
2.7	2015_Jun_19_1011	s	s	23	5	Capacity	35	RC	2	0	15VC 08MC	1	0	1.91228508949	534.0	83.0	534	83	1
2.7	2015_Jun_19_1011	s	s	23	5	Capacity	36	RC	1	0	08VC 15MC	1	0	1.55982303619	451.0	-332.0	445	-328	1
2.7	2015_Jun_19_1011	s	s	23	5	Capacity	37	ABS	1	0	08VC 16MC	0	1	1.68952798843	None	None	None	None	1
2.7	2015_Jun_19_1011	s	s	23	5	Capacity	38	RC	1	0	08VC 15MC	1	0	1.00691699982	534.0	204.0	526	202	1
2.7	2015_Jun_19_1011	s	s	23	5	Capacity	39	ABS	2	0	16VC 08MC	0	1	1.27887797356	None	None	None	None	1
2.7	2015_Jun_19_1011	s	s	23	5	Capacity	40	RC	2	0	15VC 08MC	1	0	1.12427711487	269.0	208.0	264	211	1
2.7	2015_Jun_19_1011	s	s	23	5	Capacity	41	ABS	1	0	08VC 16MC	0	1	1.66528511047	None	None	None	None	1
2.7	2015_Jun_19_1011	s	s	23	5	Capacity	42	RC	2	0	15VC 08MC	1	0	1.05417108536	-185.0	338.0	-186	338	1
2.7	2015_Jun_19_1011	s	s	23	5	Capacity	43	ABS	2	0	16VC 08MC	0	1	1.84448599815	None	None	None	None	1
2.7	2015_Jun_19_1011	s	s	23	5	Capacity	44	RC	1	0	08VC 15MC	1	0	1.58618187904	-120.0	-406.0	-123	-404	1
2.7	2015_Jun_19_1011	s	s	23	5	Capacity	45	RC	1	0	08VC 15MC	1	0	1.68942809105	530.0	-388.0	537	-391	1
2.7	2015_Jun_19_1011	s	s	23	5	Capacity	46	RC	2	0	15VC 08MC	1	0	0.747862815857	-145.0	262.0	-147	261	1
2.7	2015_Jun_19_1011	s	s	23	5	Capacity	47	ABS	1	0	08VC 16MC	0	1	2.04556202888	None	None	None	None	1
2.7	2015_Jun_19_1011	s	s	23	5	Capacity	48	ABS	2	0	16VC 08MC	0	1	2.89269185066	None	None	None	None	1
2.7	2015_Jun_19_1011	s	s	23	5	Capacity	49	RC	1	0	08VC 15MC	1	0	0.646703004837	-194.0	-53.0	-199	-52	1
2.7	2015_Jun_19_1011	s	s	23	5	Capacity	50	RC	2	0	15VC 08MC	1	0	0.529004096985	-54.0	-51.0	-60	-53	1
2.7	2015_Jun_19_1011	s	s	23	5	Capacity	51	ABS	2	0	16VC 08MC	0	1	1.26569080353	None	None	None	None	1
2.7	2015_Jun_19_1011	s	s	23	5	Capacity	52	ABS	1	0	08VC 16MC	0	1	1.69446396828	None	None	None	None	1
2.7	2015_Jun_19_1011	s	s	23	5	Capacity	53	RC	2	0	15VC 08MC	1	0	0.701194047928	-494.0	380.0	-498	378	1
2.7	2015_Jun_19_1011	s	s	23	5	Capacity	54	RC	1	0	08VC 15MC	1	0	0.806777000427	-459.0	-74.0	-460	-75	1
2.7	2015_Jun_19_1011	s	s	23	5	Capacity	55	ABS	2	0	16VC 08MC	0	1	1.9601662159	None	None	None	None	1
2.7	2015_Jun_19_1011	s	s	23	5	Capacity	56	ABS	1	0	08VC 16MC	0	1	1.98266601562	None	None	None	None	1
2.7	2015_Jun_19_1011	s	s	23	5	Capacity	57	RC	1	0	08VC 15MC	1	0	1.07042717934	119.0	-261.0	123	-265	1
2.7	2015_Jun_19_1011	s	s	23	5	Capacity	58	RC	2	0	15VC 08MC	1	0	0.502283096313	241.0	-22.0	236	-19	1
2.7	2015_Jun_19_1011	s	s	23	5	Capacity	59	ABS	1	0	08VC 16MC	0	1	1.4887471199	None	None	None	None	1
2.7	2015_Jun_19_1011	s	s	23	5	Capacity	60	ABS	2	0	16VC 08MC	0	1	1.69812488556	None	None	None	None	1
2.7	2015_Jun_19_1011	s	s	23	5	Capacity	61	RC	1	0	08VC 15MC	1	0	0.556397914886	-104.0	123.0	-112	123	1
2.7	2015_Jun_19_1011	s	s	23	5	Capacity	62	ABS	1	0	08VC 16MC	0	1	1.84770798683	None	None	None	None	1
2.7	2015_Jun_19_1011	s	s	23	5	Capacity	63	ABS	2	0	16VC 08MC	0	1	1.68296003342	None	None	None	None	1
2.7	2015_Jun_19_1011	s	s	23	5	Capacity	64	RC	2	0	15VC 08MC	1	0	1.64772319794	212.0	-400.0	211	-411	1
2.7	2015_Jun_19_1011	s	s	23	5	SIC	1	RC	1	1	02VD 02VO 02VC 02MD 09MO 02MC 02RD 02RO	1	0	2.23253703117	420.0	346.0	419	345	1
2.7	2015_Jun_19_1011	s	s	23	5	SIC	2	RC	1	0	02VD 02VO 02VC 02MD 02MO 09MC 02RD 02RO	1	0	1.42359089851	247.0	-238.0	243	-236	1
2.7	2015_Jun_19_1011	s	s	23	5	SIC	3	RC	2	0	02VD 02VO 09VC 02MD 02MO 02MC 02RD 02RO	1	0	0.870370864868	-13.0	-213.0	-9	-211	1
2.7	2015_Jun_19_1011	s	s	23	5	SIC	4	RC	0	2	02VD 02VO 02VC 02MD 02MO 02MC 09RD 02RO	1	0	0.702340126038	103.0	16.0	104	13	1
2.7	2015_Jun_19_1011	s	s	23	5	SIC	5	ABS	0	2	02VD 02VO 02VC 02MD 02MO 02MC 10RD 02RO	0	1	4.7138209343	None	None	None	None	1
2.7	2015_Jun_19_1011	s	s	23	5	SIC	6	ABS	1	1	02VD 02VO 02VC 02MD 10MO 02MC 02RD 02RO	0	1	4.82194018364	None	None	None	None	1
2.7	2015_Jun_19_1011	s	s	23	5	SIC	7	ABS	0	1	02VD 02VO 02VC 02MD 02MO 02MC 02RD 10RO	0	1	8.90473484993	None	None	None	None	1
2.7	2015_Jun_19_1011	s	s	23	5	SIC	8	RC	0	1	02VD 02VO 02VC 02MD 02MO 02MC 02RD 09RO	1	0	0.738486051559	-217.0	-28.0	-217	-26	1
2.7	2015_Jun_19_1011	s	s	23	5	SIC	9	ABS	2	1	02VD 10VO 02VC 02MD 02MO 02MC 02RD 02RO	0	1	3.51870107651	None	None	None	None	1
2.7	2015_Jun_19_1011	s	s	23	5	SIC	10	ABS	2	2	10VD 02VO 02VC 02MD 02MO 02MC 02RD 02RO	0	1	1.83325815201	None	None	None	None	1
2.7	2015_Jun_19_1011	s	s	23	5	SIC	11	ABS	1	2	02VD 02VO 02VC 10MD 02MO 02MC 02RD 02RO	0	1	2.01212787628	None	None	None	None	1
2.7	2015_Jun_19_1011	s	s	23	5	SIC	12	ABS	1	0	02VD 02VO 02VC 02MD 02MO 10MC 02RD 02RO	0	1	4.20828199387	None	None	None	None	1
2.7	2015_Jun_19_1011	s	s	23	5	SIC	13	RC	2	1	02VD 09VO 02VC 02MD 02MO 02MC 02RD 02RO	1	0	0.854182958603	-3.0	54.0	3	57	1
2.7	2015_Jun_19_1011	s	s	23	5	SIC	14	RC	2	2	09VD 02VO 02VC 02MD 02MO 02MC 02RD 02RO	1	0	0.86789894104	229.0	11.0	227	10	1
2.7	2015_Jun_19_1011	s	s	23	5	SIC	15	RC	1	2	02VD 02VO 02VC 09MD 02MO 02MC 02RD 02RO	1	0	2.10138988495	493.0	-278.0	493	-293	1
2.7	2015_Jun_19_1011	s	s	23	5	SIC	16	ABS	2	0	02VD 02VO 10VC 02MD 02MO 02MC 02RD 02RO	0	1	1.8426630497	None	None	None	None	1
2.7	2015_Jun_19_1011	s	s	23	5	SIC	17	ABS	2	0	02VD 02VO 10VC 02MD 02MO 02MC 02RD 02RO	0	1	2.18907403946	None	None	None	None	1
2.7	2015_Jun_19_1011	s	s	23	5	SIC	18	RC	2	2	09VD 02VO 02VC 02MD 02MO 02MC 02RD 02RO	1	0	1.45892000198	326.0	-411.0	332	-412	1
2.7	2015_Jun_19_1011	s	s	23	5	SIC	19	RC	0	2	02VD 02VO 02VC 02MD 02MO 02MC 09RD 02RO	1	0	0.816694021225	174.0	324.0	170	329	1
2.7	2015_Jun_19_1011	s	s	23	5	SIC	20	RC	1	0	02VD 02VO 02VC 02MD 02MO 09MC 02RD 02RO	1	0	1.73646998405	-49.0	-103.0	-55	-99	1
2.7	2015_Jun_19_1011	s	s	23	5	SIC	21	ABS	2	1	02VD 10VO 02VC 02MD 02MO 02MC 02RD 02RO	0	1	2.83111286163	None	None	None	None	1
2.7	2015_Jun_19_1011	s	s	23	5	SIC	22	ABS	0	2	02VD 02VO 02VC 02MD 02MO 02MC 10RD 02RO	0	1	3.30371403694	None	None	None	None	1
2.7	2015_Jun_19_1011	s	s	23	5	SIC	23	RC	2	1	02VD 09VO 02VC 02MD 02MO 02MC 02RD 02RO	1	0	1.40004110336	-502.0	283.0	-495	281	1
2.7	2015_Jun_19_1011	s	s	23	5	SIC	24	ABS	1	2	02VD 02VO 02VC 10MD 02MO 02MC 02RD 02RO	0	1	2.15334486961	None	None	None	None	1
2.7	2015_Jun_19_1011	s	s	23	5	SIC	25	RC	1	1	02VD 02VO 02VC 02MD 09MO 02MC 02RD 02RO	1	0	0.619961023331	-238.0	137.0	-240	136	1
2.7	2015_Jun_19_1011	s	s	23	5	SIC	26	RC	1	2	02VD 02VO 02VC 09MD 02MO 02MC 02RD 02RO	1	0	1.51278305054	369.0	170.0	368	165	1
2.7	2015_Jun_19_1011	s	s	23	5	SIC	27	RC	2	0	02VD 02VO 09VC 02MD 02MO 02MC 02RD 02RO	1	0	1.35069394112	352.0	-157.0	355	-160	1
2.7	2015_Jun_19_1011	s	s	23	5	SIC	28	ABS	1	0	02VD 02VO 02VC 02MD 02MO 10MC 02RD 02RO	0	1	2.78427696228	None	None	None	None	1
2.7	2015_Jun_19_1011	s	s	23	5	SIC	29	RC	0	1	02VD 02VO 02VC 02MD 02MO 02MC 02RD 09RO	1	0	1.08907914162	-104.0	295.0	-110	296	1
2.7	2015_Jun_19_1011	s	s	23	5	SIC	30	ABS	2	2	10VD 02VO 02VC 02MD 02MO 02MC 02RD 02RO	0	1	2.12984895706	None	None	None	None	1
2.7	2015_Jun_19_1011	s	s	23	5	SIC	31	ABS	1	1	02VD 02VO 02VC 02MD 10MO 02MC 02RD 02RO	0	1	3.23627281189	None	None	None	None	1
2.7	2015_Jun_19_1011	s	s	23	5	SIC	32	ABS	0	1	02VD 02VO 02VC 02MD 02MO 02MC 02RD 10RO	0	1	9.08623313904	None	None	None	None	1
2.7	2015_Jun_19_1011	s	s	23	5	SIC	33	RC	2	0	02VD 02VO 09VC 02MD 02MO 02MC 02RD 02RO	1	0	1.27088618279	-258.0	-257.0	-254	-251	1
2.7	2015_Jun_19_1011	s	s	23	5	SIC	34	ABS	1	2	02VD 02VO 02VC 10MD 02MO 02MC 02RD 02RO	0	1	2.14857506752	None	None	None	None	1
2.7	2015_Jun_19_1011	s	s	23	5	SIC	35	RC	1	0	02VD 02VO 02VC 02MD 02MO 09MC 02RD 02RO	1	0	0.560980081558	-84.0	125.0	-94	123	1
2.7	2015_Jun_19_1011	s	s	23	5	SIC	36	RC	0	1	02VD 02VO 02VC 02MD 02MO 02MC 02RD 09RO	1	0	2.43586993217	-248.0	346.0	-244	346	1
2.7	2015_Jun_19_1011	s	s	23	5	SIC	37	ABS	2	2	10VD 02VO 02VC 02MD 02MO 02MC 02RD 02RO	0	1	2.64269804955	None	None	None	None	1
2.7	2015_Jun_19_1011	s	s	23	5	SIC	38	ABS	2	1	02VD 10VO 02VC 02MD 02MO 02MC 02RD 02RO	0	1	1.87465691566	None	None	None	None	1
2.7	2015_Jun_19_1011	s	s	23	5	SIC	39	RC	0	2	02VD 02VO 02VC 02MD 02MO 02MC 09RD 02RO	1	0	0.834948062897	50.0	-202.0	52	-205	1
2.7	2015_Jun_19_1011	s	s	23	5	SIC	40	RC	2	1	02VD 09VO 02VC 02MD 02MO 02MC 02RD 02RO	1	0	1.33625507355	90.0	319.0	88	314	1
2.7	2015_Jun_19_1011	s	s	23	5	SIC	41	ABS	0	1	02VD 02VO 02VC 02MD 02MO 02MC 02RD 10RO	0	1	5.54324293137	None	None	None	None	1
2.7	2015_Jun_19_1011	s	s	23	5	SIC	42	RC	1	1	02VD 02VO 02VC 02MD 09MO 02MC 02RD 02RO	1	0	1.02963495255	-342.0	-260.0	-341	-262	1
2.7	2015_Jun_19_1011	s	s	23	5	SIC	43	ABS	0	2	02VD 02VO 02VC 02MD 02MO 02MC 10RD 02RO	0	1	3.39640903473	None	None	None	None	1
2.7	2015_Jun_19_1011	s	s	23	5	SIC	44	ABS	2	0	02VD 02VO 10VC 02MD 02MO 02MC 02RD 02RO	0	1	2.20039081573	None	None	None	None	1
2.7	2015_Jun_19_1011	s	s	23	5	SIC	45	RC	1	2	02VD 02VO 02VC 09MD 02MO 02MC 02RD 02RO	1	0	0.935951948166	-158.0	-387.0	-162	-384	1
2.7	2015_Jun_19_1011	s	s	23	5	SIC	46	ABS	1	0	02VD 02VO 02VC 02MD 02MO 10MC 02RD 02RO	0	1	2.54186296463	None	None	None	None	1
2.7	2015_Jun_19_1011	s	s	23	5	SIC	47	RC	2	2	09VD 02VO 02VC 02MD 02MO 02MC 02RD 02RO	1	0	1.57151317596	384.0	353.0	382	353	1
2.7	2015_Jun_19_1011	s	s	23	5	SIC	48	ABS	1	1	02VD 02VO 02VC 02MD 10MO 02MC 02RD 02RO	0	1	2.31813693047	None	None	None	None	1
2.7	2015_Jun_19_1011	s	s	23	5	SIC	49	RC	0	1	02VD 02VO 02VC 02MD 02MO 02MC 02RD 09RO	1	0	0.77622795105	36.0	177.0	36	177	1
2.7	2015_Jun_19_1011	s	s	23	5	SIC	50	RC	0	2	02VD 02VO 02VC 02MD 02MO 02MC 09RD 02RO	1	0	0.700625896454	23.0	-62.0	19	-65	1
2.7	2015_Jun_19_1011	s	s	23	5	SIC	51	ABS	2	1	02VD 10VO 02VC 02MD 02MO 02MC 02RD 02RO	0	1	3.38430094719	None	None	None	None	1
2.7	2015_Jun_19_1011	s	s	23	5	SIC	52	RC	2	2	09VD 02VO 02VC 02MD 02MO 02MC 02RD 02RO	1	0	0.646744966507	47.0	75.0	47	79	1
2.7	2015_Jun_19_1011	s	s	23	5	SIC	53	RC	2	1	02VD 09VO 02VC 02MD 02MO 02MC 02RD 02RO	1	0	1.5925590992	410.0	-227.0	413	-230	1
2.7	2015_Jun_19_1011	s	s	23	5	SIC	54	RC	1	0	02VD 02VO 02VC 02MD 02MO 09MC 02RD 02RO	1	0	0.665319919586	-444.0	-43.0	-449	-47	1
2.7	2015_Jun_19_1011	s	s	23	5	SIC	55	ABS	2	2	10VD 02VO 02VC 02MD 02MO 02MC 02RD 02RO	0	1	1.60015583038	None	None	None	None	1
2.7	2015_Jun_19_1011	s	s	23	5	SIC	56	ABS	1	0	02VD 02VO 02VC 02MD 02MO 10MC 02RD 02RO	0	1	2.98694682121	None	None	None	None	1
2.7	2015_Jun_19_1011	s	s	23	5	SIC	57	ABS	1	1	02VD 02VO 02VC 02MD 10MO 02MC 02RD 02RO	0	1	1.90620207787	None	None	None	None	1
2.7	2015_Jun_19_1011	s	s	23	5	SIC	58	ABS	2	0	02VD 02VO 10VC 02MD 02MO 02MC 02RD 02RO	0	1	2.04275393486	None	None	None	None	1
2.7	2015_Jun_19_1011	s	s	23	5	SIC	59	ABS	0	1	02VD 02VO 02VC 02MD 02MO 02MC 02RD 10RO	0	1	4.86441397667	None	None	None	None	1
2.7	2015_Jun_19_1011	s	s	23	5	SIC	60	RC	1	1	02VD 02VO 02VC 02MD 09MO 02MC 02RD 02RO	1	0	0.994317054749	59.0	321.0	56	324	1
2.7	2015_Jun_19_1011	s	s	23	5	SIC	61	RC	2	0	02VD 02VO 09VC 02MD 02MO 02MC 02RD 02RO	1	0	0.818372011185	189.0	269.0	194	265	1
2.7	2015_Jun_19_1011	s	s	23	5	SIC	62	RC	1	2	02VD 02VO 02VC 09MD 02MO 02MC 02RD 02RO	1	0	0.658554792404	309.0	155.0	302	154	1
2.7	2015_Jun_19_1011	s	s	23	5	SIC	63	ABS	1	2	02VD 02VO 02VC 10MD 02MO 02MC 02RD 02RO	0	1	1.84749007225	None	None	None	None	1
2.7	2015_Jun_19_1011	s	s	23	5	SIC	64	ABS	0	2	02VD 02VO 02VC 02MD 02MO 02MC 10RD 02RO	0	1	3.38492321968	None	None	None	None	1
2.7	2015_Jun_19_1011	s	s	23	5	SIC	65	ABS	2	0	02VD 02VO 10VC 02MD 02MO 02MC 02RD 02RO	0	1	1.72962594032	None	None	None	None	1
2.7	2015_Jun_19_1011	s	s	23	5	SIC	66	ABS	0	2	02VD 02VO 02VC 02MD 02MO 02MC 10RD 02RO	0	1	3.37292504311	None	None	None	None	1
2.7	2015_Jun_19_1011	s	s	23	5	SIC	67	RC	1	0	02VD 02VO 02VC 02MD 02MO 09MC 02RD 02RO	1	0	0.759510993958	259.0	255.0	258	259	1
2.7	2015_Jun_19_1011	s	s	23	5	SIC	68	ABS	1	1	02VD 02VO 02VC 02MD 10MO 02MC 02RD 02RO	0	1	2.77705097198	None	None	None	None	1
2.7	2015_Jun_19_1011	s	s	23	5	SIC	69	RC	1	1	02VD 02VO 02VC 02MD 09MO 02MC 02RD 02RO	1	0	2.42424893379	-495.0	-248.0	-493	-249	1
2.7	2015_Jun_19_1011	s	s	23	5	SIC	70	RC	1	2	02VD 02VO 02VC 09MD 02MO 02MC 02RD 02RO	1	0	0.688935041428	55.0	304.0	54	303	1
2.7	2015_Jun_19_1011	s	s	23	5	SIC	71	ABS	0	1	02VD 02VO 02VC 02MD 02MO 02MC 02RD 10RO	0	1	6.43787717819	None	None	None	None	1
2.7	2015_Jun_19_1011	s	s	23	5	SIC	72	RC	0	1	02VD 02VO 02VC 02MD 02MO 02MC 02RD 09RO	1	0	1.25082111359	-111.0	-157.0	-114	-149	1
2.7	2015_Jun_19_1011	s	s	23	5	SIC	73	RC	2	2	09VD 02VO 02VC 02MD 02MO 02MC 02RD 02RO	1	0	0.714376926422	37.0	75.0	42	76	1
2.7	2015_Jun_19_1011	s	s	23	5	SIC	74	RC	0	2	02VD 02VO 02VC 02MD 02MO 02MC 09RD 02RO	1	0	1.48292303085	93.0	-104.0	98	-102	1
2.7	2015_Jun_19_1011	s	s	23	5	SIC	75	ABS	1	0	02VD 02VO 02VC 02MD 02MO 10MC 02RD 02RO	0	1	4.31913995743	None	None	None	None	1
2.7	2015_Jun_19_1011	s	s	23	5	SIC	76	RC	2	0	02VD 02VO 09VC 02MD 02MO 02MC 02RD 02RO	1	0	1.49199795723	-163.0	322.0	-170	324	1
2.7	2015_Jun_19_1011	s	s	23	5	SIC	77	RC	2	1	02VD 09VO 02VC 02MD 02MO 02MC 02RD 02RO	1	0	0.653823852539	-162.0	216.0	-158	222	1
2.7	2015_Jun_19_1011	s	s	23	5	SIC	78	ABS	2	1	02VD 10VO 02VC 02MD 02MO 02MC 02RD 02RO	0	1	1.88947200775	None	None	None	None	1
2.7	2015_Jun_19_1011	s	s	23	5	SIC	79	ABS	1	2	02VD 02VO 02VC 10MD 02MO 02MC 02RD 02RO	0	1	2.38882899284	None	None	None	None	1
2.7	2015_Jun_19_1011	s	s	23	5	SIC	80	ABS	2	2	10VD 02VO 02VC 02MD 02MO 02MC 02RD 02RO	0	1	4.28386211395	None	None	None	None	1
2.7	2015_Jun_19_1011	s	s	23	5	SIC	81	ABS	0	2	02VD 02VO 02VC 02MD 02MO 02MC 10RD 02RO	0	1	4.18968701363	None	None	None	None	1
2.7	2015_Jun_19_1011	s	s	23	5	SIC	82	RC	2	0	02VD 02VO 09VC 02MD 02MO 02MC 02RD 02RO	1	0	1.38550305367	301.0	88.0	294	85	1
2.7	2015_Jun_19_1011	s	s	23	5	SIC	83	ABS	2	2	10VD 02VO 02VC 02MD 02MO 02MC 02RD 02RO	0	1	2.71836614609	None	None	None	None	1
2.7	2015_Jun_19_1011	s	s	23	5	SIC	84	RC	2	1	02VD 09VO 02VC 02MD 02MO 02MC 02RD 02RO	1	0	0.643591165543	-302.0	-66.0	-303	-67	1
2.7	2015_Jun_19_1011	s	s	23	5	SIC	85	ABS	1	0	02VD 02VO 02VC 02MD 02MO 10MC 02RD 02RO	0	1	3.49029278755	None	None	None	None	1
2.7	2015_Jun_19_1011	s	s	23	5	SIC	86	RC	2	2	09VD 02VO 02VC 02MD 02MO 02MC 02RD 02RO	1	0	0.576141834259	-110.0	10.0	-105	13	1
2.7	2015_Jun_19_1011	s	s	23	5	SIC	87	RC	1	2	02VD 02VO 02VC 09MD 02MO 02MC 02RD 02RO	1	0	1.9065618515	432.0	-85.0	441	-83	1
2.7	2015_Jun_19_1011	s	s	23	5	SIC	88	RC	1	1	02VD 02VO 02VC 02MD 09MO 02MC 02RD 02RO	1	0	1.71769595146	-521.0	-182.0	-523	-178	1
2.7	2015_Jun_19_1011	s	s	23	5	SIC	89	ABS	1	1	02VD 02VO 02VC 02MD 10MO 02MC 02RD 02RO	0	1	4.04353308678	None	None	None	None	1
2.7	2015_Jun_19_1011	s	s	23	5	SIC	90	RC	0	1	02VD 02VO 02VC 02MD 02MO 02MC 02RD 09RO	1	0	1.02337002754	-299.0	86.0	-305	87	1
2.7	2015_Jun_19_1011	s	s	23	5	SIC	91	ABS	2	0	02VD 02VO 10VC 02MD 02MO 02MC 02RD 02RO	0	1	2.69030714035	None	None	None	None	1
2.7	2015_Jun_19_1011	s	s	23	5	SIC	92	RC	0	2	02VD 02VO 02VC 02MD 02MO 02MC 09RD 02RO	1	0	1.05865907669	77.0	393.0	70	398	1
2.7	2015_Jun_19_1011	s	s	23	5	SIC	93	ABS	0	1	02VD 02VO 02VC 02MD 02MO 02MC 02RD 10RO	0	1	4.74019408226	None	None	None	None	1
2.7	2015_Jun_19_1011	s	s	23	5	SIC	94	ABS	2	1	02VD 10VO 02VC 02MD 02MO 02MC 02RD 02RO	0	1	2.89003300667	None	None	None	None	1
2.7	2015_Jun_19_1011	s	s	23	5	SIC	95	ABS	1	2	02VD 02VO 02VC 10MD 02MO 02MC 02RD 02RO	0	1	4.542771101	None	None	None	None	1
2.7	2015_Jun_19_1011	s	s	23	5	SIC	96	RC	1	0	02VD 02VO 02VC 02MD 02MO 09MC 02RD 02RO	1	0	1.74137187004	-260.0	-278.0	-265	-279	1
2.7	2015_Jun_19_1011	s	s	23	5	SIC	97	RC	0	1	02VD 02VO 02VC 02MD 02MO 02MC 02RD 09RO	1	0	1.2056350708	180.0	304.0	176	309	1
2.7	2015_Jun_19_1011	s	s	23	5	SIC	98	RC	1	0	02VD 02VO 02VC 02MD 02MO 09MC 02RD 02RO	1	0	2.74891114235	504.0	-232.0	508	-236	1
2.7	2015_Jun_19_1011	s	s	23	5	SIC	99	RC	2	2	09VD 02VO 02VC 02MD 02MO 02MC 02RD 02RO	1	0	0.808315038681	-235.0	266.0	-236	264	1
2.7	2015_Jun_19_1011	s	s	23	5	SIC	100	RC	1	1	02VD 02VO 02VC 02MD 09MO 02MC 02RD 02RO	1	0	1.70608401299	291.0	-174.0	290	-176	1
2.7	2015_Jun_19_1011	s	s	23	5	SIC	101	ABS	2	0	02VD 02VO 10VC 02MD 02MO 02MC 02RD 02RO	0	1	3.8432970047	None	None	None	None	1
2.7	2015_Jun_19_1011	s	s	23	5	SIC	102	ABS	2	2	10VD 02VO 02VC 02MD 02MO 02MC 02RD 02RO	0	1	2.81276488304	None	None	None	None	1
2.7	2015_Jun_19_1011	s	s	23	5	SIC	103	ABS	0	1	02VD 02VO 02VC 02MD 02MO 02MC 02RD 10RO	0	1	3.90205001831	None	None	None	None	1
2.7	2015_Jun_19_1011	s	s	23	5	SIC	104	RC	1	2	02VD 02VO 02VC 09MD 02MO 02MC 02RD 02RO	1	0	1.40686798096	288.0	362.0	282	362	1
2.7	2015_Jun_19_1011	s	s	23	5	SIC	105	ABS	2	1	02VD 10VO 02VC 02MD 02MO 02MC 02RD 02RO	0	1	1.86593294144	None	None	None	None	1
2.7	2015_Jun_19_1011	s	s	23	5	SIC	106	ABS	1	2	02VD 02VO 02VC 10MD 02MO 02MC 02RD 02RO	0	1	2.74876999855	None	None	None	None	1
2.7	2015_Jun_19_1011	s	s	23	5	SIC	107	ABS	1	0	02VD 02VO 02VC 02MD 02MO 10MC 02RD 02RO	0	1	2.91279387474	None	None	None	None	1
2.7	2015_Jun_19_1011	s	s	23	5	SIC	108	ABS	0	2	02VD 02VO 02VC 02MD 02MO 02MC 10RD 02RO	0	1	3.25178098679	None	None	None	None	1
2.7	2015_Jun_19_1011	s	s	23	5	SIC	109	ABS	1	1	02VD 02VO 02VC 02MD 10MO 02MC 02RD 02RO	0	1	3.4951748848	None	None	None	None	1
2.7	2015_Jun_19_1011	s	s	23	5	SIC	110	RC	2	0	02VD 02VO 09VC 02MD 02MO 02MC 02RD 02RO	1	0	0.988017082214	311.0	-94.0	314	-95	1
2.7	2015_Jun_19_1011	s	s	23	5	SIC	111	RC	2	1	02VD 09VO 02VC 02MD 02MO 02MC 02RD 02RO	1	0	1.48009800911	293.0	-375.0	288	-375	1
2.7	2015_Jun_19_1011	s	s	23	5	SIC	112	RC	0	2	02VD 02VO 02VC 02MD 02MO 02MC 09RD 02RO	1	0	0.721160888672	-65.0	-177.0	-66	-178	1
2.7	2015_Jun_19_1011	s	s	23	5	SIC	113	RC	1	1	02VD 02VO 02VC 02MD 09MO 02MC 02RD 02RO	1	0	0.52910900116	-89.0	147.0	-90	147	1
2.7	2015_Jun_19_1011	s	s	23	5	SIC	114	ABS	2	1	02VD 10VO 02VC 02MD 02MO 02MC 02RD 02RO	0	1	1.58838295937	None	None	None	None	1
2.7	2015_Jun_19_1011	s	s	23	5	SIC	115	RC	1	2	02VD 02VO 02VC 09MD 02MO 02MC 02RD 02RO	1	0	0.642050027847	198.0	232.0	205	237	1
2.7	2015_Jun_19_1011	s	s	23	5	SIC	116	ABS	1	0	02VD 02VO 02VC 02MD 02MO 10MC 02RD 02RO	0	1	3.27157402039	None	None	None	None	1
2.7	2015_Jun_19_1011	s	s	23	5	SIC	117	RC	2	1	02VD 09VO 02VC 02MD 02MO 02MC 02RD 02RO	1	0	1.12932395935	164.0	-123.0	163	-124	1
2.7	2015_Jun_19_1011	s	s	23	5	SIC	118	RC	0	1	02VD 02VO 02VC 02MD 02MO 02MC 02RD 09RO	1	0	0.552575111389	-256.0	-167.0	-252	-169	1
2.7	2015_Jun_19_1011	s	s	23	5	SIC	119	RC	2	2	09VD 02VO 02VC 02MD 02MO 02MC 02RD 02RO	1	0	0.564329862595	-180.0	141.0	-189	143	1
2.7	2015_Jun_19_1011	s	s	23	5	SIC	120	ABS	0	1	02VD 02VO 02VC 02MD 02MO 02MC 02RD 10RO	0	1	7.26176810265	None	None	None	None	1
2.7	2015_Jun_19_1011	s	s	23	5	SIC	121	RC	0	2	02VD 02VO 02VC 02MD 02MO 02MC 09RD 02RO	1	0	1.01845598221	352.0	289.0	351	288	1
2.7	2015_Jun_19_1011	s	s	23	5	SIC	122	ABS	1	2	02VD 02VO 02VC 10MD 02MO 02MC 02RD 02RO	0	1	2.42405319214	None	None	None	None	1
2.7	2015_Jun_19_1011	s	s	23	5	SIC	123	RC	1	0	02VD 02VO 02VC 02MD 02MO 09MC 02RD 02RO	1	0	1.30098295212	-92.0	-214.0	-83	-213	1
2.7	2015_Jun_19_1011	s	s	23	5	SIC	124	ABS	2	2	10VD 02VO 02VC 02MD 02MO 02MC 02RD 02RO	0	1	2.54179191589	None	None	None	None	1
2.7	2015_Jun_19_1011	s	s	23	5	SIC	125	ABS	1	1	02VD 02VO 02VC 02MD 10MO 02MC 02RD 02RO	0	1	3.14210605621	None	None	None	None	1
2.7	2015_Jun_19_1011	s	s	23	5	SIC	126	ABS	2	0	02VD 02VO 10VC 02MD 02MO 02MC 02RD 02RO	0	1	4.0483789444	None	None	None	None	1
2.7	2015_Jun_19_1011	s	s	23	5	SIC	127	ABS	0	2	02VD 02VO 02VC 02MD 02MO 02MC 10RD 02RO	0	1	3.25974202156	None	None	None	None	1
2.7	2015_Jun_19_1011	s	s	23	5	SIC	128	RC	2	0	02VD 02VO 09VC 02MD 02MO 02MC 02RD 02RO	1	0	0.61828994751	-81.0	-36.0	-74	-36	1
2.7	2015_Jun_19_1011	s	s	23	5	SIC	129	RC	0	2	02VD 02VO 02VC 02MD 02MO 02MC 09RD 02RO	1	0	0.670198202133	-369.0	15.0	-361	9	1
2.7	2015_Jun_19_1011	s	s	23	5	SIC	130	RC	2	0	02VD 02VO 09VC 02MD 02MO 02MC 02RD 02RO	1	0	1.1714990139	303.0	186.0	300	181	1
2.7	2015_Jun_19_1011	s	s	23	5	SIC	131	ABS	0	1	02VD 02VO 02VC 02MD 02MO 02MC 02RD 10RO	0	1	5.23481011391	None	None	None	None	1
2.7	2015_Jun_19_1011	s	s	23	5	SIC	132	ABS	2	2	10VD 02VO 02VC 02MD 02MO 02MC 02RD 02RO	0	1	2.63973999023	None	None	None	None	1
2.7	2015_Jun_19_1011	s	s	23	5	SIC	133	ABS	1	1	02VD 02VO 02VC 02MD 10MO 02MC 02RD 02RO	0	1	5.23723602295	None	None	None	None	1
2.7	2015_Jun_19_1011	s	s	23	5	SIC	134	ABS	1	2	02VD 02VO 02VC 10MD 02MO 02MC 02RD 02RO	0	1	2.13615608215	None	None	None	None	1
2.7	2015_Jun_19_1011	s	s	23	5	SIC	135	RC	1	1	02VD 02VO 02VC 02MD 09MO 02MC 02RD 02RO	1	0	1.25500607491	254.0	372.0	250	363	1
2.7	2015_Jun_19_1011	s	s	23	5	SIC	136	ABS	1	0	02VD 02VO 02VC 02MD 02MO 10MC 02RD 02RO	0	1	3.24802303314	None	None	None	None	1
2.7	2015_Jun_19_1011	s	s	23	5	SIC	137	ABS	2	0	02VD 02VO 10VC 02MD 02MO 02MC 02RD 02RO	0	1	3.17413020134	None	None	None	None	1
2.7	2015_Jun_19_1011	s	s	23	5	SIC	138	ABS	0	2	02VD 02VO 02VC 02MD 02MO 02MC 10RD 02RO	0	1	3.29033994675	None	None	None	None	1
2.7	2015_Jun_19_1011	s	s	23	5	SIC	139	RC	1	2	02VD 02VO 02VC 09MD 02MO 02MC 02RD 02RO	1	0	2.43260002136	-445.0	299.0	-450	303	1
2.7	2015_Jun_19_1011	s	s	23	5	SIC	140	RC	1	0	02VD 02VO 02VC 02MD 02MO 09MC 02RD 02RO	1	0	0.759728908539	-382.0	41.0	-374	46	1
2.7	2015_Jun_19_1011	s	s	23	5	SIC	141	RC	2	1	02VD 09VO 02VC 02MD 02MO 02MC 02RD 02RO	1	0	1.61955690384	-448.0	-12.0	-453	-9	1
2.7	2015_Jun_19_1011	s	s	23	5	SIC	142	RC	0	1	02VD 02VO 02VC 02MD 02MO 02MC 02RD 09RO	1	0	1.03195810318	-56.0	246.0	-56	247	1
2.7	2015_Jun_19_1011	s	s	23	5	SIC	143	RC	2	2	09VD 02VO 02VC 02MD 02MO 02MC 02RD 02RO	1	0	1.1719288826	208.0	394.0	204	399	1
2.7	2015_Jun_19_1011	s	s	23	5	SIC	144	ABS	2	1	02VD 10VO 02VC 02MD 02MO 02MC 02RD 02RO	0	1	1.95344495773	None	None	None	None	1
2.7	2015_Jun_19_1011	s	s	23	5	SIC	145	ABS	0	1	02VD 02VO 02VC 02MD 02MO 02MC 02RD 10RO	0	1	5.36192417145	None	None	None	None	1
2.7	2015_Jun_19_1011	s	s	23	5	SIC	146	ABS	0	2	02VD 02VO 02VC 02MD 02MO 02MC 10RD 02RO	0	1	4.8021709919	None	None	None	None	1
2.7	2015_Jun_19_1011	s	s	23	5	SIC	147	RC	2	1	02VD 09VO 02VC 02MD 02MO 02MC 02RD 02RO	1	0	1.52460598946	335.0	-274.0	330	-271	1
2.7	2015_Jun_19_1011	s	s	23	5	SIC	148	RC	0	1	02VD 02VO 02VC 02MD 02MO 02MC 02RD 09RO	1	0	1.34116196632	-225.0	182.0	-234	183	1
2.7	2015_Jun_19_1011	s	s	23	5	SIC	149	RC	0	2	02VD 02VO 02VC 02MD 02MO 02MC 09RD 02RO	1	0	1.09387016296	380.0	285.0	379	274	1
2.7	2015_Jun_19_1011	s	s	23	5	SIC	150	RC	1	0	02VD 02VO 02VC 02MD 02MO 09MC 02RD 02RO	1	0	2.04469418526	480.0	98.0	481	101	1
2.7	2015_Jun_19_1011	s	s	23	5	SIC	151	ABS	2	1	02VD 10VO 02VC 02MD 02MO 02MC 02RD 02RO	0	1	3.05456089973	None	None	None	None	1
2.7	2015_Jun_19_1011	s	s	23	5	SIC	152	RC	1	2	02VD 02VO 02VC 09MD 02MO 02MC 02RD 02RO	1	0	0.926267147064	-51.0	52.0	-47	57	1
2.7	2015_Jun_19_1011	s	s	23	5	SIC	153	ABS	1	0	02VD 02VO 02VC 02MD 02MO 10MC 02RD 02RO	0	1	3.29525208473	None	None	None	None	1
2.7	2015_Jun_19_1011	s	s	23	5	SIC	154	ABS	1	2	02VD 02VO 02VC 10MD 02MO 02MC 02RD 02RO	0	1	3.09027600288	None	None	None	None	1
2.7	2015_Jun_19_1011	s	s	23	5	SIC	155	RC	2	2	09VD 02VO 02VC 02MD 02MO 02MC 02RD 02RO	1	0	1.38825798035	408.0	-320.0	410	-321	1
2.7	2015_Jun_19_1011	s	s	23	5	SIC	156	ABS	1	1	02VD 02VO 02VC 02MD 10MO 02MC 02RD 02RO	0	1	3.40475702286	None	None	None	None	1
2.7	2015_Jun_19_1011	s	s	23	5	SIC	157	RC	2	0	02VD 02VO 09VC 02MD 02MO 02MC 02RD 02RO	1	0	1.57705402374	487.0	271.0	491	268	1
2.7	2015_Jun_19_1011	s	s	23	5	SIC	158	RC	1	1	02VD 02VO 02VC 02MD 09MO 02MC 02RD 02RO	1	0	0.658447980881	-302.0	231.0	-302	236	1
2.7	2015_Jun_19_1011	s	s	23	5	SIC	159	ABS	2	0	02VD 02VO 10VC 02MD 02MO 02MC 02RD 02RO	0	1	2.54179501534	None	None	None	None	1
2.7	2015_Jun_19_1011	s	s	23	5	SIC	160	ABS	2	2	10VD 02VO 02VC 02MD 02MO 02MC 02RD 02RO	0	1	3.90219783783	None	None	None	None	1
2.7	2015_Jun_19_1011	s	s	23	5	SIC	161	ABS	1	0	02VD 02VO 02VC 02MD 02MO 10MC 02RD 02RO	0	1	3.18381595612	None	None	None	None	1
2.7	2015_Jun_19_1011	s	s	23	5	SIC	162	ABS	2	1	02VD 10VO 02VC 02MD 02MO 02MC 02RD 02RO	0	1	2.17216491699	None	None	None	None	1
2.7	2015_Jun_19_1011	s	s	23	5	SIC	163	ABS	1	1	02VD 02VO 02VC 02MD 10MO 02MC 02RD 02RO	0	1	3.77265501022	None	None	None	None	1
2.7	2015_Jun_19_1011	s	s	23	5	SIC	164	RC	0	2	02VD 02VO 02VC 02MD 02MO 02MC 09RD 02RO	1	0	1.16125202179	-11.0	-364.0	-8	-370	1
2.7	2015_Jun_19_1011	s	s	23	5	SIC	165	ABS	1	2	02VD 02VO 02VC 10MD 02MO 02MC 02RD 02RO	0	1	2.36033010483	None	None	None	None	1
2.7	2015_Jun_19_1011	s	s	23	5	SIC	166	RC	2	2	09VD 02VO 02VC 02MD 02MO 02MC 02RD 02RO	1	0	0.976270914078	274.0	-113.0	269	-118	1
2.7	2015_Jun_19_1011	s	s	23	5	SIC	167	ABS	0	2	02VD 02VO 02VC 02MD 02MO 02MC 10RD 02RO	0	1	2.74183988571	None	None	None	None	1
2.7	2015_Jun_19_1011	s	s	23	5	SIC	168	RC	1	0	02VD 02VO 02VC 02MD 02MO 09MC 02RD 02RO	1	0	0.582922935486	18.0	25.0	13	27	1
2.7	2015_Jun_19_1011	s	s	23	5	SIC	169	RC	2	1	02VD 09VO 02VC 02MD 02MO 02MC 02RD 02RO	1	0	0.51127910614	-200.0	187.0	-201	185	1
2.7	2015_Jun_19_1011	s	s	23	5	SIC	170	RC	1	2	02VD 02VO 02VC 09MD 02MO 02MC 02RD 02RO	1	0	1.52953886986	464.0	256.0	465	265	1
2.7	2015_Jun_19_1011	s	s	23	5	SIC	171	RC	0	1	02VD 02VO 02VC 02MD 02MO 02MC 02RD 09RO	1	0	1.9061460495	137.0	-358.0	135	-353	1
2.7	2015_Jun_19_1011	s	s	23	5	SIC	172	ABS	2	2	10VD 02VO 02VC 02MD 02MO 02MC 02RD 02RO	0	1	3.71887779236	None	None	None	None	1
2.7	2015_Jun_19_1011	s	s	23	5	SIC	173	RC	1	1	02VD 02VO 02VC 02MD 09MO 02MC 02RD 02RO	1	0	1.19487595558	-538.0	-54.0	-540	-47	1
2.7	2015_Jun_19_1011	s	s	23	5	SIC	174	ABS	2	0	02VD 02VO 10VC 02MD 02MO 02MC 02RD 02RO	0	1	1.91789102554	None	None	None	None	1
2.7	2015_Jun_19_1011	s	s	23	5	SIC	175	ABS	0	1	02VD 02VO 02VC 02MD 02MO 02MC 02RD 10RO	0	1	3.25978016853	None	None	None	None	1
2.7	2015_Jun_19_1011	s	s	23	5	SIC	176	RC	2	0	02VD 02VO 09VC 02MD 02MO 02MC 02RD 02RO	1	0	0.901182889938	33.0	289.0	35	289	1
2.7	2015_Jun_19_1011	s	s	23	5	SIC	177	RC	1	0	02VD 02VO 02VC 02MD 02MO 09MC 02RD 02RO	0	1	1.79508304596	-440.0	-31.0	None	None	0
2.7	2015_Jun_19_1011	s	s	23	5	SIC	178	ABS	2	2	10VD 02VO 02VC 02MD 02MO 02MC 02RD 02RO	0	1	1.88263392448	None	None	None	None	1
2.7	2015_Jun_19_1011	s	s	23	5	SIC	179	ABS	0	2	02VD 02VO 02VC 02MD 02MO 02MC 10RD 02RO	0	1	2.65455102921	None	None	None	None	1
2.7	2015_Jun_19_1011	s	s	23	5	SIC	180	ABS	2	1	02VD 10VO 02VC 02MD 02MO 02MC 02RD 02RO	0	1	2.71498608589	None	None	None	None	1
2.7	2015_Jun_19_1011	s	s	23	5	SIC	181	ABS	1	2	02VD 02VO 02VC 10MD 02MO 02MC 02RD 02RO	0	1	3.31314301491	None	None	None	None	1
2.7	2015_Jun_19_1011	s	s	23	5	SIC	182	ABS	1	0	02VD 02VO 02VC 02MD 02MO 10MC 02RD 02RO	0	1	3.46035790443	None	None	None	None	1
2.7	2015_Jun_19_1011	s	s	23	5	SIC	183	RC	2	1	02VD 09VO 02VC 02MD 02MO 02MC 02RD 02RO	1	0	1.34814095497	382.0	305.0	381	303	1
2.7	2015_Jun_19_1011	s	s	23	5	SIC	184	RC	1	1	02VD 02VO 02VC 02MD 09MO 02MC 02RD 02RO	1	0	0.877062082291	-532.0	-211.0	-535	-215	1
2.7	2015_Jun_19_1011	s	s	23	5	SIC	185	ABS	2	0	02VD 02VO 10VC 02MD 02MO 02MC 02RD 02RO	0	1	2.32989597321	None	None	None	None	1
2.7	2015_Jun_19_1011	s	s	23	5	SIC	186	RC	1	2	02VD 02VO 02VC 09MD 02MO 02MC 02RD 02RO	1	0	0.70320391655	34.0	152.0	26	153	1
2.7	2015_Jun_19_1011	s	s	23	5	SIC	187	RC	2	2	09VD 02VO 02VC 02MD 02MO 02MC 02RD 02RO	1	0	0.68888092041	216.0	291.0	212	288	1
2.7	2015_Jun_19_1011	s	s	23	5	SIC	188	ABS	1	1	02VD 02VO 02VC 02MD 10MO 02MC 02RD 02RO	0	1	2.5250711441	None	None	None	None	1
2.7	2015_Jun_19_1011	s	s	23	5	SIC	189	RC	0	2	02VD 02VO 02VC 02MD 02MO 02MC 09RD 02RO	1	0	1.52950191498	-97.0	-250.0	-94	-250	1
2.7	2015_Jun_19_1011	s	s	23	5	SIC	190	RC	0	1	02VD 02VO 02VC 02MD 02MO 02MC 02RD 09RO	1	0	1.10577893257	-373.0	-57.0	-376	-55	1
2.7	2015_Jun_19_1011	s	s	23	5	SIC	191	RC	2	0	02VD 02VO 09VC 02MD 02MO 02MC 02RD 02RO	1	0	0.597352027893	-23.0	27.0	-26	32	1
2.7	2015_Jun_19_1011	s	s	23	5	SIC	192	ABS	0	1	02VD 02VO 02VC 02MD 02MO 02MC 02RD 10RO	0	1	5.09394884109	None	None	None	None	1
2.7	2015_Jun_19_1011	s	s	23	5	SIC	193	RC	0	2	02VD 02VO 02VC 02MD 02MO 02MC 09RD 02RO	1	0	0.670150995255	-464.0	186.0	-461	184	1
2.7	2015_Jun_19_1011	s	s	23	5	SIC	194	RC	1	1	02VD 02VO 02VC 02MD 09MO 02MC 02RD 02RO	1	0	0.770348072052	-162.0	-179.0	-159	-172	1
2.7	2015_Jun_19_1011	s	s	23	5	SIC	195	RC	1	0	02VD 02VO 02VC 02MD 02MO 09MC 02RD 02RO	1	0	0.936095952988	-192.0	296.0	-186	295	1
2.7	2015_Jun_19_1011	s	s	23	5	SIC	196	RC	2	2	09VD 02VO 02VC 02MD 02MO 02MC 02RD 02RO	1	0	1.49425911903	-506.0	-305.0	-506	-308	1
2.7	2015_Jun_19_1011	s	s	23	5	SIC	197	ABS	1	0	02VD 02VO 02VC 02MD 02MO 10MC 02RD 02RO	0	1	2.6571290493	None	None	None	None	1
2.7	2015_Jun_19_1011	s	s	23	5	SIC	198	ABS	2	1	02VD 10VO 02VC 02MD 02MO 02MC 02RD 02RO	0	1	2.05602407455	None	None	None	None	1
2.7	2015_Jun_19_1011	s	s	23	5	SIC	199	ABS	2	2	10VD 02VO 02VC 02MD 02MO 02MC 02RD 02RO	0	1	2.61234402657	None	None	None	None	1
2.7	2015_Jun_19_1011	s	s	23	5	SIC	200	ABS	0	2	02VD 02VO 02VC 02MD 02MO 02MC 10RD 02RO	0	1	2.88320088387	None	None	None	None	1
2.7	2015_Jun_19_1011	s	s	23	5	SIC	201	ABS	1	2	02VD 02VO 02VC 10MD 02MO 02MC 02RD 02RO	0	1	2.38413596153	None	None	None	None	1
2.7	2015_Jun_19_1011	s	s	23	5	SIC	202	RC	0	1	02VD 02VO 02VC 02MD 02MO 02MC 02RD 09RO	1	0	0.693686008453	161.0	19.0	163	19	1
2.7	2015_Jun_19_1011	s	s	23	5	SIC	203	ABS	0	1	02VD 02VO 02VC 02MD 02MO 02MC 02RD 10RO	0	1	4.33093690872	None	None	None	None	1
2.7	2015_Jun_19_1011	s	s	23	5	SIC	204	ABS	2	0	02VD 02VO 10VC 02MD 02MO 02MC 02RD 02RO	0	1	2.71519494057	None	None	None	None	1
2.7	2015_Jun_19_1011	s	s	23	5	SIC	205	ABS	1	1	02VD 02VO 02VC 02MD 10MO 02MC 02RD 02RO	0	1	2.38377404213	None	None	None	None	1
2.7	2015_Jun_19_1011	s	s	23	5	SIC	206	RC	1	2	02VD 02VO 02VC 09MD 02MO 02MC 02RD 02RO	1	0	1.50595378876	537.0	37.0	538	40	1
2.7	2015_Jun_19_1011	s	s	23	5	SIC	207	RC	2	0	02VD 02VO 09VC 02MD 02MO 02MC 02RD 02RO	1	0	0.994483947754	-294.0	250.0	-292	247	1
2.7	2015_Jun_19_1011	s	s	23	5	SIC	208	RC	2	1	02VD 09VO 02VC 02MD 02MO 02MC 02RD 02RO	1	0	1.52941989899	-47.0	-372.0	-46	-376	1
2.7	2015_Jun_19_1011	s	s	23	5	SIC	209	RC	2	0	02VD 02VO 09VC 02MD 02MO 02MC 02RD 02RO	1	0	0.917395114899	-158.0	-193.0	-153	-194	1
2.7	2015_Jun_19_1011	s	s	23	5	SIC	210	ABS	1	2	02VD 02VO 02VC 10MD 02MO 02MC 02RD 02RO	0	1	3.71390104294	None	None	None	None	1
2.7	2015_Jun_19_1011	s	s	23	5	SIC	211	RC	2	2	09VD 02VO 02VC 02MD 02MO 02MC 02RD 02RO	1	0	1.02146410942	-233.0	407.0	-228	407	1
2.7	2015_Jun_19_1011	s	s	23	5	SIC	212	RC	0	2	02VD 02VO 02VC 02MD 02MO 02MC 09RD 02RO	1	0	1.97185182571	384.0	-377.0	383	-376	1
2.7	2015_Jun_19_1011	s	s	23	5	SIC	213	ABS	2	1	02VD 10VO 02VC 02MD 02MO 02MC 02RD 02RO	0	1	3.17726993561	None	None	None	None	1
2.7	2015_Jun_19_1011	s	s	23	5	SIC	214	ABS	0	2	02VD 02VO 02VC 02MD 02MO 02MC 10RD 02RO	0	1	2.64753913879	None	None	None	None	1
2.7	2015_Jun_19_1011	s	s	23	5	SIC	215	ABS	1	0	02VD 02VO 02VC 02MD 02MO 10MC 02RD 02RO	0	1	4.61342191696	None	None	None	None	1
2.7	2015_Jun_19_1011	s	s	23	5	SIC	216	RC	1	1	02VD 02VO 02VC 02MD 09MO 02MC 02RD 02RO	1	0	2.03073000908	92.0	-263.0	89	-266	1
2.7	2015_Jun_19_1011	s	s	23	5	SIC	217	ABS	2	2	10VD 02VO 02VC 02MD 02MO 02MC 02RD 02RO	0	1	2.47957992554	None	None	None	None	1
2.7	2015_Jun_19_1011	s	s	23	5	SIC	218	ABS	2	0	02VD 02VO 10VC 02MD 02MO 02MC 02RD 02RO	0	1	3.20094418526	None	None	None	None	1
2.7	2015_Jun_19_1011	s	s	23	5	SIC	219	RC	1	0	02VD 02VO 02VC 02MD 02MO 09MC 02RD 02RO	1	0	1.54745101929	276.0	197.0	271	193	1
2.7	2015_Jun_19_1011	s	s	23	5	SIC	220	RC	0	1	02VD 02VO 02VC 02MD 02MO 02MC 02RD 09RO	1	0	0.685826063156	-302.0	198.0	-304	200	1
2.7	2015_Jun_19_1011	s	s	23	5	SIC	221	RC	1	2	02VD 02VO 02VC 09MD 02MO 02MC 02RD 02RO	1	0	0.841989040375	120.0	-226.0	121	-228	1
2.7	2015_Jun_19_1011	s	s	23	5	SIC	222	ABS	0	1	02VD 02VO 02VC 02MD 02MO 02MC 02RD 10RO	0	1	6.70638513565	None	None	None	None	1
2.7	2015_Jun_19_1011	s	s	23	5	SIC	223	RC	2	1	02VD 09VO 02VC 02MD 02MO 02MC 02RD 02RO	1	0	0.776651859283	128.0	9.0	133	12	1
2.7	2015_Jun_19_1011	s	s	23	5	SIC	224	ABS	1	1	02VD 02VO 02VC 02MD 10MO 02MC 02RD 02RO	0	1	3.00899910927	None	None	None	None	1
2.7	2015_Jun_19_1011	s	s	23	5	SIC	225	RC	2	2	09VD 02VO 02VC 02MD 02MO 02MC 02RD 02RO	1	0	0.535833120346	-47.0	212.0	-37	217	1
2.7	2015_Jun_19_1011	s	s	23	5	SIC	226	ABS	0	1	02VD 02VO 02VC 02MD 02MO 02MC 02RD 10RO	0	1	4.02057600021	None	None	None	None	1
2.7	2015_Jun_19_1011	s	s	23	5	SIC	227	RC	1	2	02VD 02VO 02VC 09MD 02MO 02MC 02RD 02RO	1	0	0.996448993683	-459.0	192.0	-457	198	1
2.7	2015_Jun_19_1011	s	s	23	5	SIC	228	ABS	1	0	02VD 02VO 02VC 02MD 02MO 10MC 02RD 02RO	0	1	5.16210198402	None	None	None	None	1
2.7	2015_Jun_19_1011	s	s	23	5	SIC	229	ABS	0	2	02VD 02VO 02VC 02MD 02MO 02MC 10RD 02RO	0	1	4.55483984947	None	None	None	None	1
2.7	2015_Jun_19_1011	s	s	23	5	SIC	230	ABS	2	2	10VD 02VO 02VC 02MD 02MO 02MC 02RD 02RO	0	1	2.58356618881	None	None	None	None	1
2.7	2015_Jun_19_1011	s	s	23	5	SIC	231	RC	1	1	02VD 02VO 02VC 02MD 09MO 02MC 02RD 02RO	1	0	0.658406019211	-61.0	261.0	-67	260	1
2.7	2015_Jun_19_1011	s	s	23	5	SIC	232	ABS	2	1	02VD 10VO 02VC 02MD 02MO 02MC 02RD 02RO	0	1	1.82383298874	None	None	None	None	1
2.7	2015_Jun_19_1011	s	s	23	5	SIC	233	ABS	1	1	02VD 02VO 02VC 02MD 10MO 02MC 02RD 02RO	0	1	2.98910021782	None	None	None	None	1
2.7	2015_Jun_19_1011	s	s	23	5	SIC	234	ABS	2	0	02VD 02VO 10VC 02MD 02MO 02MC 02RD 02RO	0	1	2.51331710815	None	None	None	None	1
2.7	2015_Jun_19_1011	s	s	23	5	SIC	235	RC	2	1	02VD 09VO 02VC 02MD 02MO 02MC 02RD 02RO	1	0	0.804116010666	-69.0	-239.0	-66	-242	1
2.7	2015_Jun_19_1011	s	s	23	5	SIC	236	RC	2	0	02VD 02VO 09VC 02MD 02MO 02MC 02RD 02RO	1	0	1.33585000038	-371.0	-403.0	-369	-407	1
2.7	2015_Jun_19_1011	s	s	23	5	SIC	237	RC	0	2	02VD 02VO 02VC 02MD 02MO 02MC 09RD 02RO	1	0	0.846838951111	-313.0	-120.0	-307	-124	1
2.7	2015_Jun_19_1011	s	s	23	5	SIC	238	ABS	1	2	02VD 02VO 02VC 10MD 02MO 02MC 02RD 02RO	0	1	2.72544193268	None	None	None	None	1
2.7	2015_Jun_19_1011	s	s	23	5	SIC	239	RC	0	1	02VD 02VO 02VC 02MD 02MO 02MC 02RD 09RO	1	0	4.22062802315	-491.0	-266.0	-492	-269	1
2.7	2015_Jun_19_1011	s	s	23	5	SIC	240	RC	1	0	02VD 02VO 02VC 02MD 02MO 09MC 02RD 02RO	1	0	7.99855208397	-444.0	-295.0	-448	-294	1
2.7	2015_Jun_19_1011	s	s	23	5	SIC	241	ABS	2	0	02VD 02VO 10VC 02MD 02MO 02MC 02RD 02RO	0	1	3.01963400841	None	None	None	None	1
2.7	2015_Jun_19_1011	s	s	23	5	SIC	242	ABS	1	2	02VD 02VO 02VC 10MD 02MO 02MC 02RD 02RO	0	1	5.10301017761	None	None	None	None	1
2.7	2015_Jun_19_1011	s	s	23	5	SIC	243	RC	0	2	02VD 02VO 02VC 02MD 02MO 02MC 09RD 02RO	1	0	1.25880599022	-414.0	-258.0	-412	-265	1
2.7	2015_Jun_19_1011	s	s	23	5	SIC	244	RC	1	0	02VD 02VO 02VC 02MD 02MO 09MC 02RD 02RO	1	0	0.599657058716	-214.0	222.0	-210	220	1
2.7	2015_Jun_19_1011	s	s	23	5	SIC	245	ABS	1	0	02VD 02VO 02VC 02MD 02MO 10MC 02RD 02RO	0	1	6.39078903198	None	None	None	None	1
2.7	2015_Jun_19_1011	s	s	23	5	SIC	246	ABS	2	1	02VD 10VO 02VC 02MD 02MO 02MC 02RD 02RO	0	1	2.2080180645	None	None	None	None	1
2.7	2015_Jun_19_1011	s	s	23	5	SIC	247	RC	2	0	02VD 02VO 09VC 02MD 02MO 02MC 02RD 02RO	1	0	1.39210796356	-371.0	-291.0	-370	-297	1
2.7	2015_Jun_19_1011	s	s	23	5	SIC	248	ABS	0	2	02VD 02VO 02VC 02MD 02MO 02MC 10RD 02RO	0	1	2.95380592346	None	None	None	None	1
2.7	2015_Jun_19_1011	s	s	23	5	SIC	249	RC	2	1	02VD 09VO 02VC 02MD 02MO 02MC 02RD 02RO	1	0	0.584527015686	-365.0	93.0	-371	90	1
2.7	2015_Jun_19_1011	s	s	23	5	SIC	250	RC	2	2	09VD 02VO 02VC 02MD 02MO 02MC 02RD 02RO	1	0	1.56167292595	-181.0	-356.0	-175	-350	1
2.7	2015_Jun_19_1011	s	s	23	5	SIC	251	ABS	2	2	10VD 02VO 02VC 02MD 02MO 02MC 02RD 02RO	0	1	3.04794692993	None	None	None	None	1
2.7	2015_Jun_19_1011	s	s	23	5	SIC	252	RC	0	1	02VD 02VO 02VC 02MD 02MO 02MC 02RD 09RO	1	0	2.07144904137	-162.0	-382.0	-169	-382	1
2.7	2015_Jun_19_1011	s	s	23	5	SIC	253	RC	1	1	02VD 02VO 02VC 02MD 09MO 02MC 02RD 02RO	1	0	1.57659816742	-393.0	-348.0	-391	-345	1
2.7	2015_Jun_19_1011	s	s	23	5	SIC	254	ABS	0	1	02VD 02VO 02VC 02MD 02MO 02MC 02RD 10RO	0	1	4.1140768528	None	None	None	None	1
2.7	2015_Jun_19_1011	s	s	23	5	SIC	255	ABS	1	1	02VD 02VO 02VC 02MD 10MO 02MC 02RD 02RO	0	1	3.4481511116	None	None	None	None	1
2.7	2015_Jun_19_1011	s	s	23	5	SIC	256	RC	1	2	02VD 02VO 02VC 09MD 02MO 02MC 02RD 02RO	1	0	0.929955005646	63.0	251.0	54	258	1
2.7	2015_Jun_19_1011	s	s	23	5	SIC	257	ABS	2	2	10VD 02VO 02VC 02MD 02MO 02MC 02RD 02RO	0	1	2.61913990974	None	None	None	None	1
2.7	2015_Jun_19_1011	s	s	23	5	SIC	258	RC	1	0	02VD 02VO 02VC 02MD 02MO 09MC 02RD 02RO	1	0	1.30271601677	-466.0	-108.0	-463	-109	1
2.7	2015_Jun_19_1011	s	s	23	5	SIC	259	ABS	1	2	02VD 02VO 02VC 10MD 02MO 02MC 02RD 02RO	0	1	1.8911948204	None	None	None	None	1
2.7	2015_Jun_19_1011	s	s	23	5	SIC	260	ABS	2	1	02VD 10VO 02VC 02MD 02MO 02MC 02RD 02RO	0	1	1.82920193672	None	None	None	None	1
2.7	2015_Jun_19_1011	s	s	23	5	SIC	261	ABS	1	0	02VD 02VO 02VC 02MD 02MO 10MC 02RD 02RO	0	1	4.41375398636	None	None	None	None	1
2.7	2015_Jun_19_1011	s	s	23	5	SIC	262	RC	2	2	09VD 02VO 02VC 02MD 02MO 02MC 02RD 02RO	1	0	0.738955020905	-260.0	332.0	-264	341	1
2.7	2015_Jun_19_1011	s	s	23	5	SIC	263	RC	1	2	02VD 02VO 02VC 09MD 02MO 02MC 02RD 02RO	1	0	1.05866312981	391.0	259.0	391	264	1
2.7	2015_Jun_19_1011	s	s	23	5	SIC	264	RC	2	1	02VD 09VO 02VC 02MD 02MO 02MC 02RD 02RO	1	0	0.752662181854	130.0	113.0	125	112	1
2.7	2015_Jun_19_1011	s	s	23	5	SIC	265	RC	0	2	02VD 02VO 02VC 02MD 02MO 02MC 09RD 02RO	1	0	3.21950101852	402.0	-265.0	408	-266	1
2.7	2015_Jun_19_1011	s	s	23	5	SIC	266	ABS	0	2	02VD 02VO 02VC 02MD 02MO 02MC 10RD 02RO	0	1	2.67107701302	None	None	None	None	1
2.7	2015_Jun_19_1011	s	s	23	5	SIC	267	ABS	1	1	02VD 02VO 02VC 02MD 10MO 02MC 02RD 02RO	0	1	2.18368506432	None	None	None	None	1
2.7	2015_Jun_19_1011	s	s	23	5	SIC	268	RC	2	0	02VD 02VO 09VC 02MD 02MO 02MC 02RD 02RO	1	0	1.54814291	-425.0	-352.0	-425	-354	1
2.7	2015_Jun_19_1011	s	s	23	5	SIC	269	ABS	0	1	02VD 02VO 02VC 02MD 02MO 02MC 02RD 10RO	0	1	7.96807694435	None	None	None	None	1
2.7	2015_Jun_19_1011	s	s	23	5	SIC	270	ABS	2	0	02VD 02VO 10VC 02MD 02MO 02MC 02RD 02RO	0	1	3.13698601723	None	None	None	None	1
2.7	2015_Jun_19_1011	s	s	23	5	SIC	271	RC	0	1	02VD 02VO 02VC 02MD 02MO 02MC 02RD 09RO	1	0	1.55308413506	66.0	389.0	68	388	1
2.7	2015_Jun_19_1011	s	s	23	5	SIC	272	RC	1	1	02VD 02VO 02VC 02MD 09MO 02MC 02RD 02RO	1	0	0.784645080566	-3.0	262.0	-6	267	1
2.7	2015_Jun_19_1011	s	s	23	5	SIC	273	ABS	1	2	02VD 02VO 02VC 10MD 02MO 02MC 02RD 02RO	0	1	2.58890318871	None	None	None	None	1
2.7	2015_Jun_19_1011	s	s	23	5	SIC	274	RC	0	2	02VD 02VO 02VC 02MD 02MO 02MC 09RD 02RO	1	0	1.3647339344	374.0	159.0	377	158	1
2.7	2015_Jun_19_1011	s	s	23	5	SIC	275	ABS	0	2	02VD 02VO 02VC 02MD 02MO 02MC 10RD 02RO	0	1	4.06956791878	None	None	None	None	1
2.7	2015_Jun_19_1011	s	s	23	5	SIC	276	ABS	1	1	02VD 02VO 02VC 02MD 10MO 02MC 02RD 02RO	0	1	3.44315385818	None	None	None	None	1
2.7	2015_Jun_19_1011	s	s	23	5	SIC	277	RC	2	0	02VD 02VO 09VC 02MD 02MO 02MC 02RD 02RO	1	0	0.866485834122	294.0	374.0	301	378	1
2.7	2015_Jun_19_1011	s	s	23	5	SIC	278	ABS	2	0	02VD 02VO 10VC 02MD 02MO 02MC 02RD 02RO	0	1	2.183396101	None	None	None	None	1
2.7	2015_Jun_19_1011	s	s	23	5	SIC	279	RC	1	2	02VD 02VO 02VC 09MD 02MO 02MC 02RD 02RO	1	0	1.23030996323	163.0	-88.0	166	-93	1
2.7	2015_Jun_19_1011	s	s	23	5	SIC	280	RC	2	1	02VD 09VO 02VC 02MD 02MO 02MC 02RD 02RO	1	0	1.14786601067	453.0	15.0	457	19	1
2.7	2015_Jun_19_1011	s	s	23	5	SIC	281	ABS	2	2	10VD 02VO 02VC 02MD 02MO 02MC 02RD 02RO	0	1	1.74142789841	None	None	None	None	1
2.7	2015_Jun_19_1011	s	s	23	5	SIC	282	ABS	0	1	02VD 02VO 02VC 02MD 02MO 02MC 02RD 10RO	0	1	4.74055290222	None	None	None	None	1
2.7	2015_Jun_19_1011	s	s	23	5	SIC	283	ABS	2	1	02VD 10VO 02VC 02MD 02MO 02MC 02RD 02RO	0	1	2.25422596931	None	None	None	None	1
2.7	2015_Jun_19_1011	s	s	23	5	SIC	284	RC	2	2	09VD 02VO 02VC 02MD 02MO 02MC 02RD 02RO	1	0	0.753114938736	-166.0	-72.0	-165	-72	1
2.7	2015_Jun_19_1011	s	s	23	5	SIC	285	RC	0	1	02VD 02VO 02VC 02MD 02MO 02MC 02RD 09RO	1	0	2.13674998283	-411.0	-336.0	-413	-335	1
2.7	2015_Jun_19_1011	s	s	23	5	SIC	286	RC	1	1	02VD 02VO 02VC 02MD 09MO 02MC 02RD 02RO	1	0	0.596498012543	-160.0	-129.0	-165	-128	1
2.7	2015_Jun_19_1011	s	s	23	5	SIC	287	RC	1	0	02VD 02VO 02VC 02MD 02MO 09MC 02RD 02RO	1	0	1.18309807777	377.0	271.0	374	267	1
2.7	2015_Jun_19_1011	s	s	23	5	SIC	288	ABS	1	0	02VD 02VO 02VC 02MD 02MO 10MC 02RD 02RO	0	1	4.57320713997	None	None	None	None	1
2.7	2015_Jun_19_1011	s	s	23	5	SIC	289	ABS	0	1	02VD 02VO 02VC 02MD 02MO 02MC 02RD 10RO	0	1	6.23823595047	None	None	None	None	1
2.7	2015_Jun_19_1011	s	s	23	5	SIC	290	RC	1	1	02VD 02VO 02VC 02MD 09MO 02MC 02RD 02RO	1	0	1.44715714455	132.0	-146.0	128	-147	1
2.7	2015_Jun_19_1011	s	s	23	5	SIC	291	ABS	0	2	02VD 02VO 02VC 02MD 02MO 02MC 10RD 02RO	0	1	3.53052997589	None	None	None	None	1
2.7	2015_Jun_19_1011	s	s	23	5	SIC	292	ABS	1	0	02VD 02VO 02VC 02MD 02MO 10MC 02RD 02RO	0	1	4.99713110924	None	None	None	None	1
2.7	2015_Jun_19_1011	s	s	23	5	SIC	293	RC	2	1	02VD 09VO 02VC 02MD 02MO 02MC 02RD 02RO	1	0	1.20679688454	13.0	-179.0	17	-174	1
2.7	2015_Jun_19_1011	s	s	23	5	SIC	294	ABS	2	1	02VD 10VO 02VC 02MD 02MO 02MC 02RD 02RO	0	1	2.79650998116	None	None	None	None	1
2.7	2015_Jun_19_1011	s	s	23	5	SIC	295	ABS	1	2	02VD 02VO 02VC 10MD 02MO 02MC 02RD 02RO	0	1	2.40756082535	None	None	None	None	1
2.7	2015_Jun_19_1011	s	s	23	5	SIC	296	RC	1	0	02VD 02VO 02VC 02MD 02MO 09MC 02RD 02RO	1	0	0.599592924118	-254.0	134.0	-259	131	1
2.7	2015_Jun_19_1011	s	s	23	5	SIC	297	ABS	1	1	02VD 02VO 02VC 02MD 10MO 02MC 02RD 02RO	0	1	2.44762802124	None	None	None	None	1
2.7	2015_Jun_19_1011	s	s	23	5	SIC	298	RC	1	2	02VD 02VO 02VC 09MD 02MO 02MC 02RD 02RO	1	0	1.21854901314	473.0	129.0	475	126	1
2.7	2015_Jun_19_1011	s	s	23	5	SIC	299	RC	2	2	09VD 02VO 02VC 02MD 02MO 02MC 02RD 02RO	1	0	1.24192094803	-528.0	408.0	-528	404	1
2.7	2015_Jun_19_1011	s	s	23	5	SIC	300	RC	0	1	02VD 02VO 02VC 02MD 02MO 02MC 02RD 09RO	1	0	2.40056395531	324.0	-243.0	318	-248	1
2.7	2015_Jun_19_1011	s	s	23	5	SIC	301	ABS	2	0	02VD 02VO 10VC 02MD 02MO 02MC 02RD 02RO	0	1	2.88977193832	None	None	None	None	1
2.7	2015_Jun_19_1011	s	s	23	5	SIC	302	RC	0	2	02VD 02VO 02VC 02MD 02MO 02MC 09RD 02RO	1	0	1.58515310287	530.0	211.0	529	205	1
2.7	2015_Jun_19_1011	s	s	23	5	SIC	303	RC	2	0	02VD 02VO 09VC 02MD 02MO 02MC 02RD 02RO	1	0	0.735967874527	-49.0	-83.0	-56	-75	1
2.7	2015_Jun_19_1011	s	s	23	5	SIC	304	ABS	2	2	10VD 02VO 02VC 02MD 02MO 02MC 02RD 02RO	0	1	3.18917012215	None	None	None	None	1
2.7	2015_Jun_19_1011	s	s	23	5	SIC	305	ABS	2	1	02VD 10VO 02VC 02MD 02MO 02MC 02RD 02RO	0	1	3.13029003143	None	None	None	None	1
2.7	2015_Jun_19_1011	s	s	23	5	SIC	306	ABS	1	1	02VD 02VO 02VC 02MD 10MO 02MC 02RD 02RO	0	1	1.92420601845	None	None	None	None	1
2.7	2015_Jun_19_1011	s	s	23	5	SIC	307	RC	0	2	02VD 02VO 02VC 02MD 02MO 02MC 09RD 02RO	1	0	1.36474204063	-433.0	-52.0	-430	-45	1
2.7	2015_Jun_19_1011	s	s	23	5	SIC	308	RC	1	0	02VD 02VO 02VC 02MD 02MO 09MC 02RD 02RO	1	0	0.619652986526	-169.0	-53.0	-169	-60	1
2.7	2015_Jun_19_1011	s	s	23	5	SIC	309	RC	0	1	02VD 02VO 02VC 02MD 02MO 02MC 02RD 09RO	1	0	0.606615066528	29.0	70.0	26	63	1
2.7	2015_Jun_19_1011	s	s	23	5	SIC	310	RC	1	2	02VD 02VO 02VC 09MD 02MO 02MC 02RD 02RO	1	0	0.69379901886	-251.0	180.0	-251	174	1
2.7	2015_Jun_19_1011	s	s	23	5	SIC	311	RC	1	1	02VD 02VO 02VC 02MD 09MO 02MC 02RD 02RO	1	0	1.77354311943	421.0	-234.0	428	-231	1
2.7	2015_Jun_19_1011	s	s	23	5	SIC	312	RC	2	2	09VD 02VO 02VC 02MD 02MO 02MC 02RD 02RO	1	0	1.64392495155	-12.0	-403.0	-13	-407	1
2.7	2015_Jun_19_1011	s	s	23	5	SIC	313	ABS	2	2	10VD 02VO 02VC 02MD 02MO 02MC 02RD 02RO	0	1	2.17213201523	None	None	None	None	1
2.7	2015_Jun_19_1011	s	s	23	5	SIC	314	ABS	0	2	02VD 02VO 02VC 02MD 02MO 02MC 10RD 02RO	0	1	3.49022507668	None	None	None	None	1
2.7	2015_Jun_19_1011	s	s	23	5	SIC	315	RC	2	0	02VD 02VO 09VC 02MD 02MO 02MC 02RD 02RO	1	0	2.53000283241	534.0	-185.0	536	-190	1
2.7	2015_Jun_19_1011	s	s	23	5	SIC	316	ABS	1	2	02VD 02VO 02VC 10MD 02MO 02MC 02RD 02RO	0	1	3.48962283134	None	None	None	None	1
2.7	2015_Jun_19_1011	s	s	23	5	SIC	317	ABS	0	1	02VD 02VO 02VC 02MD 02MO 02MC 02RD 10RO	0	1	4.91494703293	None	None	None	None	1
2.7	2015_Jun_19_1011	s	s	23	5	SIC	318	ABS	1	0	02VD 02VO 02VC 02MD 02MO 10MC 02RD 02RO	0	1	9.63947105408	None	None	None	None	1
2.7	2015_Jun_19_1011	s	s	23	5	SIC	319	RC	2	1	02VD 09VO 02VC 02MD 02MO 02MC 02RD 02RO	1	0	1.11532521248	256.0	-182.0	252	-182	1
2.7	2015_Jun_19_1011	s	s	23	5	SIC	320	ABS	2	0	02VD 02VO 10VC 02MD 02MO 02MC 02RD 02RO	0	1	2.28971886635	None	None	None	None	1
2.7	2015_Jun_19_1011	s	s	23	5	SIC	321	ABS	1	1	02VD 02VO 02VC 02MD 10MO 02MC 02RD 02RO	0	1	15.3988797665	None	None	None	None	1
2.7	2015_Jun_19_1011	s	s	23	5	SIC	322	RC	1	2	02VD 02VO 02VC 09MD 02MO 02MC 02RD 02RO	1	0	0.747707843781	58.0	311.0	65	316	1
2.7	2015_Jun_19_1011	s	s	23	5	SIC	323	RC	0	2	02VD 02VO 02VC 02MD 02MO 02MC 09RD 02RO	1	0	0.66531586647	-214.0	52.0	-214	56	1
2.7	2015_Jun_19_1011	s	s	23	5	SIC	324	ABS	0	2	02VD 02VO 02VC 02MD 02MO 02MC 10RD 02RO	0	1	2.95379114151	None	None	None	None	1
2.7	2015_Jun_19_1011	s	s	23	5	SIC	325	ABS	0	1	02VD 02VO 02VC 02MD 02MO 02MC 02RD 10RO	0	1	5.102435112	None	None	None	None	1
2.7	2015_Jun_19_1011	s	s	23	5	SIC	326	RC	2	1	02VD 09VO 02VC 02MD 02MO 02MC 02RD 02RO	1	0	1.79383516312	442.0	-91.0	445	-87	1
2.7	2015_Jun_19_1011	s	s	23	5	SIC	327	RC	2	2	09VD 02VO 02VC 02MD 02MO 02MC 02RD 02RO	1	0	0.773082017899	-156.0	278.0	-157	278	1
2.7	2015_Jun_19_1011	s	s	23	5	SIC	328	ABS	1	2	02VD 02VO 02VC 10MD 02MO 02MC 02RD 02RO	0	1	2.54880213737	None	None	None	None	1
2.7	2015_Jun_19_1011	s	s	23	5	SIC	329	RC	1	0	02VD 02VO 02VC 02MD 02MO 09MC 02RD 02RO	1	0	0.917358160019	-106.0	-119.0	-106	-112	1
2.7	2015_Jun_19_1011	s	s	23	5	SIC	330	ABS	2	1	02VD 10VO 02VC 02MD 02MO 02MC 02RD 02RO	0	1	2.04741096497	None	None	None	None	1
2.7	2015_Jun_19_1011	s	s	23	5	SIC	331	ABS	1	0	02VD 02VO 02VC 02MD 02MO 10MC 02RD 02RO	0	1	4.29052805901	None	None	None	None	1
2.7	2015_Jun_19_1011	s	s	23	5	SIC	332	RC	1	1	02VD 02VO 02VC 02MD 09MO 02MC 02RD 02RO	1	0	1.37161684036	268.0	5.0	268	6	1
2.7	2015_Jun_19_1011	s	s	23	5	SIC	333	RC	0	1	02VD 02VO 02VC 02MD 02MO 02MC 02RD 09RO	1	0	1.05376195908	-247.0	11.0	-250	9	1
2.7	2015_Jun_19_1011	s	s	23	5	SIC	334	ABS	2	2	10VD 02VO 02VC 02MD 02MO 02MC 02RD 02RO	0	1	3.10679197311	None	None	None	None	1
2.7	2015_Jun_19_1011	s	s	23	5	SIC	335	ABS	2	0	02VD 02VO 10VC 02MD 02MO 02MC 02RD 02RO	0	1	3.68351721764	None	None	None	None	1
2.7	2015_Jun_19_1011	s	s	23	5	SIC	336	RC	2	0	02VD 02VO 09VC 02MD 02MO 02MC 02RD 02RO	1	0	0.796862125397	215.0	165.0	219	166	1
2.7	2015_Jun_19_1011	s	s	23	5	SIC	337	ABS	0	2	02VD 02VO 02VC 02MD 02MO 02MC 10RD 02RO	0	1	2.6831600666	None	None	None	None	1
2.7	2015_Jun_19_1011	s	s	23	5	SIC	338	ABS	1	1	02VD 02VO 02VC 02MD 10MO 02MC 02RD 02RO	0	1	3.71650314331	None	None	None	None	1
2.7	2015_Jun_19_1011	s	s	23	5	SIC	339	RC	0	1	02VD 02VO 02VC 02MD 02MO 02MC 02RD 09RO	1	0	0.606467962265	-107.0	44.0	-111	41	1
2.7	2015_Jun_19_1011	s	s	23	5	SIC	340	ABS	2	1	02VD 10VO 02VC 02MD 02MO 02MC 02RD 02RO	0	1	2.84269809723	None	None	None	None	1
2.7	2015_Jun_19_1011	s	s	23	5	SIC	341	RC	1	0	02VD 02VO 02VC 02MD 02MO 09MC 02RD 02RO	1	0	1.3487238884	185.0	-242.0	185	-243	1
2.7	2015_Jun_19_1011	s	s	23	5	SIC	342	RC	2	1	02VD 09VO 02VC 02MD 02MO 02MC 02RD 02RO	1	0	1.04689192772	-448.0	-165.0	-448	-167	1
2.7	2015_Jun_19_1011	s	s	23	5	SIC	343	RC	1	1	02VD 02VO 02VC 02MD 09MO 02MC 02RD 02RO	1	0	0.641789913177	132.0	171.0	131	176	1
2.7	2015_Jun_19_1011	s	s	23	5	SIC	344	RC	1	2	02VD 02VO 02VC 09MD 02MO 02MC 02RD 02RO	1	0	0.606482982635	138.0	244.0	133	243	1
2.7	2015_Jun_19_1011	s	s	23	5	SIC	345	ABS	1	0	02VD 02VO 02VC 02MD 02MO 10MC 02RD 02RO	0	1	2.91832494736	None	None	None	None	1
2.7	2015_Jun_19_1011	s	s	23	5	SIC	346	RC	2	0	02VD 02VO 09VC 02MD 02MO 02MC 02RD 02RO	1	0	1.34779596329	417.0	87.0	418	90	1
2.7	2015_Jun_19_1011	s	s	23	5	SIC	347	ABS	0	1	02VD 02VO 02VC 02MD 02MO 02MC 02RD 10RO	0	1	3.26670598984	None	None	None	None	1
2.7	2015_Jun_19_1011	s	s	23	5	SIC	348	ABS	1	2	02VD 02VO 02VC 10MD 02MO 02MC 02RD 02RO	0	1	2.01203799248	None	None	None	None	1
2.7	2015_Jun_19_1011	s	s	23	5	SIC	349	ABS	2	2	10VD 02VO 02VC 02MD 02MO 02MC 02RD 02RO	0	1	1.97203683853	None	None	None	None	1
2.7	2015_Jun_19_1011	s	s	23	5	SIC	350	RC	0	2	02VD 02VO 02VC 02MD 02MO 02MC 09RD 02RO	1	0	0.958870172501	201.0	114.0	202	115	1
2.7	2015_Jun_19_1011	s	s	23	5	SIC	351	ABS	2	0	02VD 02VO 10VC 02MD 02MO 02MC 02RD 02RO	0	1	2.38879489899	None	None	None	None	1
2.7	2015_Jun_19_1011	s	s	23	5	SIC	352	RC	2	2	09VD 02VO 02VC 02MD 02MO 02MC 02RD 02RO	1	0	0.568099021912	-150.0	39.0	-149	45	1
2.7	2015_Jun_19_1011	s	s	23	5	SIC	353	RC	1	1	02VD 02VO 02VC 02MD 09MO 02MC 02RD 02RO	1	0	1.66602897644	-245.0	-126.0	-247	-123	1
2.7	2015_Jun_19_1011	s	s	23	5	SIC	354	RC	1	0	02VD 02VO 02VC 02MD 02MO 09MC 02RD 02RO	1	0	2.71835613251	462.0	132.0	454	137	1
2.7	2015_Jun_19_1011	s	s	23	5	SIC	355	ABS	0	2	02VD 02VO 02VC 02MD 02MO 02MC 10RD 02RO	0	1	3.69530200958	None	None	None	None	1
2.7	2015_Jun_19_1011	s	s	23	5	SIC	356	RC	2	1	02VD 09VO 02VC 02MD 02MO 02MC 02RD 02RO	1	0	0.737723827362	-466.0	311.0	-467	310	1
2.7	2015_Jun_19_1011	s	s	23	5	SIC	357	ABS	1	0	02VD 02VO 02VC 02MD 02MO 10MC 02RD 02RO	0	1	3.68354296684	None	None	None	None	1
2.7	2015_Jun_19_1011	s	s	23	5	SIC	358	ABS	1	1	02VD 02VO 02VC 02MD 10MO 02MC 02RD 02RO	0	1	4.48440599442	None	None	None	None	1
2.7	2015_Jun_19_1011	s	s	23	5	SIC	359	ABS	0	1	02VD 02VO 02VC 02MD 02MO 02MC 02RD 10RO	0	1	5.59083509445	None	None	None	None	1
2.7	2015_Jun_19_1011	s	s	23	5	SIC	360	RC	0	1	02VD 02VO 02VC 02MD 02MO 02MC 02RD 09RO	1	0	0.924230098724	-198.0	383.0	-200	388	1
2.7	2015_Jun_19_1011	s	s	23	5	SIC	361	RC	2	0	02VD 02VO 09VC 02MD 02MO 02MC 02RD 02RO	1	0	0.889518976212	-219.0	-368.0	-225	-375	1
2.7	2015_Jun_19_1011	s	s	23	5	SIC	362	ABS	2	0	02VD 02VO 10VC 02MD 02MO 02MC 02RD 02RO	0	1	1.7835688591	None	None	None	None	1
2.7	2015_Jun_19_1011	s	s	23	5	SIC	363	RC	0	2	02VD 02VO 02VC 02MD 02MO 02MC 09RD 02RO	1	0	0.61994099617	97.0	-123.0	98	-135	1
2.7	2015_Jun_19_1011	s	s	23	5	SIC	364	RC	2	2	09VD 02VO 02VC 02MD 02MO 02MC 02RD 02RO	1	0	1.2186999321	-92.0	-388.0	-90	-392	1
2.7	2015_Jun_19_1011	s	s	23	5	SIC	365	ABS	2	1	02VD 10VO 02VC 02MD 02MO 02MC 02RD 02RO	0	1	2.16506409645	None	None	None	None	1
2.7	2015_Jun_19_1011	s	s	23	5	SIC	366	ABS	1	2	02VD 02VO 02VC 10MD 02MO 02MC 02RD 02RO	0	1	2.15333294868	None	None	None	None	1
2.7	2015_Jun_19_1011	s	s	23	5	SIC	367	ABS	2	2	10VD 02VO 02VC 02MD 02MO 02MC 02RD 02RO	0	1	2.38450098038	None	None	None	None	1
2.7	2015_Jun_19_1011	s	s	23	5	SIC	368	RC	1	2	02VD 02VO 02VC 09MD 02MO 02MC 02RD 02RO	1	0	1.18322515488	480.0	194.0	482	196	1
2.7	2015_Jun_19_1011	s	s	23	5	SIC	369	RC	1	0	02VD 02VO 02VC 02MD 02MO 09MC 02RD 02RO	1	0	1.99521493912	-484.0	-6.0	-484	-6	1
2.7	2015_Jun_19_1011	s	s	23	5	SIC	370	RC	1	2	02VD 02VO 02VC 09MD 02MO 02MC 02RD 02RO	1	0	1.45343208313	402.0	-106.0	399	-109	1
2.7	2015_Jun_19_1011	s	s	23	5	SIC	371	RC	1	1	02VD 02VO 02VC 02MD 09MO 02MC 02RD 02RO	1	0	0.771286010742	117.0	258.0	118	264	1
2.7	2015_Jun_19_1011	s	s	23	5	SIC	372	ABS	0	2	02VD 02VO 02VC 02MD 02MO 02MC 10RD 02RO	0	1	2.88994288445	None	None	None	None	1
2.7	2015_Jun_19_1011	s	s	23	5	SIC	373	RC	2	2	09VD 02VO 02VC 02MD 02MO 02MC 02RD 02RO	1	0	1.65899801254	501.0	-30.0	508	-27	1
2.7	2015_Jun_19_1011	s	s	23	5	SIC	374	RC	0	1	02VD 02VO 02VC 02MD 02MO 02MC 02RD 09RO	1	0	1.74768185616	34.0	-209.0	30	-210	1
2.7	2015_Jun_19_1011	s	s	23	5	SIC	375	ABS	2	0	02VD 02VO 10VC 02MD 02MO 02MC 02RD 02RO	0	1	2.11805105209	None	None	None	None	1
2.7	2015_Jun_19_1011	s	s	23	5	SIC	376	ABS	2	2	10VD 02VO 02VC 02MD 02MO 02MC 02RD 02RO	0	1	2.5068128109	None	None	None	None	1
2.7	2015_Jun_19_1011	s	s	23	5	SIC	377	RC	2	1	02VD 09VO 02VC 02MD 02MO 02MC 02RD 02RO	1	0	0.893892049789	-175.0	149.0	-178	146	1
2.7	2015_Jun_19_1011	s	s	23	5	SIC	378	ABS	1	0	02VD 02VO 02VC 02MD 02MO 10MC 02RD 02RO	0	1	2.15881896019	None	None	None	None	1
2.7	2015_Jun_19_1011	s	s	23	5	SIC	379	RC	0	2	02VD 02VO 02VC 02MD 02MO 02MC 09RD 02RO	1	0	0.912501811981	335.0	-41.0	341	-39	1
2.7	2015_Jun_19_1011	s	s	23	5	SIC	380	RC	2	0	02VD 02VO 09VC 02MD 02MO 02MC 02RD 02RO	1	0	1.50600194931	-196.0	-345.0	-196	-339	1
2.7	2015_Jun_19_1011	s	s	23	5	SIC	381	ABS	1	2	02VD 02VO 02VC 10MD 02MO 02MC 02RD 02RO	0	1	2.18909597397	None	None	None	None	1
2.7	2015_Jun_19_1011	s	s	23	5	SIC	382	ABS	0	1	02VD 02VO 02VC 02MD 02MO 02MC 02RD 10RO	0	1	8.05664682388	None	None	None	None	1
2.7	2015_Jun_19_1011	s	s	23	5	SIC	383	ABS	2	1	02VD 10VO 02VC 02MD 02MO 02MC 02RD 02RO	0	1	2.13691711426	None	None	None	None	1
2.7	2015_Jun_19_1011	s	s	23	5	SIC	384	ABS	1	1	02VD 02VO 02VC 02MD 10MO 02MC 02RD 02RO	0	1	5.3431661129	None	None	None	None	1
2.7	2015_Jun_19_1011	s	s	23	5	SIC	385	RC	0	2	02VD 02VO 02VC 02MD 02MO 02MC 09RD 02RO	1	0	1.23202681541	452.0	-144.0	450	-143	1
2.7	2015_Jun_19_1011	s	s	23	5	SIC	386	ABS	2	0	02VD 02VO 10VC 02MD 02MO 02MC 02RD 02RO	0	1	2.20042300224	None	None	None	None	1
2.7	2015_Jun_19_1011	s	s	23	5	SIC	387	ABS	1	2	02VD 02VO 02VC 10MD 02MO 02MC 02RD 02RO	0	1	2.706594944	None	None	None	None	1
2.7	2015_Jun_19_1011	s	s	23	5	SIC	388	RC	0	1	02VD 02VO 02VC 02MD 02MO 02MC 02RD 09RO	1	0	0.715277194977	-238.0	73.0	-239	60	1
2.7	2015_Jun_19_1011	s	s	23	5	SIC	389	ABS	2	1	02VD 10VO 02VC 02MD 02MO 02MC 02RD 02RO	0	1	2.22392106056	None	None	None	None	1
2.7	2015_Jun_19_1011	s	s	23	5	SIC	390	RC	2	1	02VD 09VO 02VC 02MD 02MO 02MC 02RD 02RO	1	0	0.764447927475	-465.0	153.0	-464	157	1
2.7	2015_Jun_19_1011	s	s	23	5	SIC	391	ABS	1	0	02VD 02VO 02VC 02MD 02MO 10MC 02RD 02RO	0	1	2.8125128746	None	None	None	None	1
2.7	2015_Jun_19_1011	s	s	23	5	SIC	392	ABS	2	2	10VD 02VO 02VC 02MD 02MO 02MC 02RD 02RO	0	1	1.97677707672	None	None	None	None	1
2.7	2015_Jun_19_1011	s	s	23	5	SIC	393	RC	1	0	02VD 02VO 02VC 02MD 02MO 09MC 02RD 02RO	1	0	2.00715899467	-44.0	385.0	-38	392	1
2.7	2015_Jun_19_1011	s	s	23	5	SIC	394	ABS	0	1	02VD 02VO 02VC 02MD 02MO 02MC 02RD 10RO	0	1	4.2249519825	None	None	None	None	1
2.7	2015_Jun_19_1011	s	s	23	5	SIC	395	RC	1	1	02VD 02VO 02VC 02MD 09MO 02MC 02RD 02RO	1	0	1.75348997116	353.0	-390.0	353	-392	1
2.7	2015_Jun_19_1011	s	s	23	5	SIC	396	RC	2	0	02VD 02VO 09VC 02MD 02MO 02MC 02RD 02RO	1	0	0.688883066177	-411.0	-98.0	-401	-94	1
2.7	2015_Jun_19_1011	s	s	23	5	SIC	397	RC	2	2	09VD 02VO 02VC 02MD 02MO 02MC 02RD 02RO	1	0	0.517264127731	-89.0	57.0	-82	64	1
2.7	2015_Jun_19_1011	s	s	23	5	SIC	398	RC	1	2	02VD 02VO 02VC 09MD 02MO 02MC 02RD 02RO	1	0	0.634803056717	-164.0	314.0	-160	310	1
2.7	2015_Jun_19_1011	s	s	23	5	SIC	399	ABS	0	2	02VD 02VO 02VC 02MD 02MO 02MC 10RD 02RO	0	1	4.17290496826	None	None	None	None	1
2.7	2015_Jun_19_1011	s	s	23	5	SIC	400	ABS	1	1	02VD 02VO 02VC 02MD 10MO 02MC 02RD 02RO	0	1	2.59571313858	None	None	None	None	1
2.7	2015_Jun_19_1011	s	s	23	5	SIC	401	RC	1	0	02VD 02VO 02VC 02MD 02MO 09MC 02RD 02RO	1	0	1.21207404137	-112.0	-390.0	-112	-388	1
2.7	2015_Jun_19_1011	s	s	23	5	SIC	402	ABS	0	1	02VD 02VO 02VC 02MD 02MO 02MC 02RD 10RO	0	1	3.59766602516	None	None	None	None	1
2.7	2015_Jun_19_1011	s	s	23	5	SIC	403	RC	0	1	02VD 02VO 02VC 02MD 02MO 02MC 02RD 09RO	1	0	1.56483101845	406.0	110.0	405	114	1
2.7	2015_Jun_19_1011	s	s	23	5	SIC	404	ABS	1	0	02VD 02VO 02VC 02MD 02MO 10MC 02RD 02RO	0	1	3.31403589249	None	None	None	None	1
2.7	2015_Jun_19_1011	s	s	23	5	SIC	405	RC	2	2	09VD 02VO 02VC 02MD 02MO 02MC 02RD 02RO	1	0	0.970782995224	231.0	398.0	225	395	1
2.7	2015_Jun_19_1011	s	s	23	5	SIC	406	ABS	1	1	02VD 02VO 02VC 02MD 10MO 02MC 02RD 02RO	0	1	3.38923287392	None	None	None	None	1
2.7	2015_Jun_19_1011	s	s	23	5	SIC	407	RC	2	1	02VD 09VO 02VC 02MD 02MO 02MC 02RD 02RO	1	0	1.95982217789	160.0	249.0	158	252	1
2.7	2015_Jun_19_1011	s	s	23	5	SIC	408	ABS	2	1	02VD 10VO 02VC 02MD 02MO 02MC 02RD 02RO	0	1	1.85903716087	None	None	None	None	1
2.7	2015_Jun_19_1011	s	s	23	5	SIC	409	ABS	2	0	02VD 02VO 10VC 02MD 02MO 02MC 02RD 02RO	0	1	2.23337721825	None	None	None	None	1
2.7	2015_Jun_19_1011	s	s	23	5	SIC	410	ABS	2	2	10VD 02VO 02VC 02MD 02MO 02MC 02RD 02RO	0	1	1.90611886978	None	None	None	None	1
2.7	2015_Jun_19_1011	s	s	23	5	SIC	411	ABS	0	2	02VD 02VO 02VC 02MD 02MO 02MC 10RD 02RO	0	1	2.94688487053	None	None	None	None	1
2.7	2015_Jun_19_1011	s	s	23	5	SIC	412	RC	1	1	02VD 02VO 02VC 02MD 09MO 02MC 02RD 02RO	1	0	2.28288292885	408.0	79.0	409	79	1
2.7	2015_Jun_19_1011	s	s	23	5	SIC	413	RC	0	2	02VD 02VO 02VC 02MD 02MO 02MC 09RD 02RO	1	0	0.976213216782	-203.0	411.0	-207	413	1
2.7	2015_Jun_19_1011	s	s	23	5	SIC	414	RC	2	0	02VD 02VO 09VC 02MD 02MO 02MC 02RD 02RO	1	0	1.01544380188	51.0	-109.0	51	-106	1
2.7	2015_Jun_19_1011	s	s	23	5	SIC	415	RC	1	2	02VD 02VO 02VC 09MD 02MO 02MC 02RD 02RO	1	0	2.60060882568	527.0	-387.0	531	-385	1
2.7	2015_Jun_19_1011	s	s	23	5	SIC	416	ABS	1	2	02VD 02VO 02VC 10MD 02MO 02MC 02RD 02RO	0	1	2.28035402298	None	None	None	None	1
2.7	2015_Jun_19_1011	s	s	23	5	SIC	417	RC	2	1	02VD 09VO 02VC 02MD 02MO 02MC 02RD 02RO	1	0	0.93607211113	54.0	-234.0	60	-236	1
2.7	2015_Jun_19_1011	s	s	23	5	SIC	418	ABS	2	1	02VD 10VO 02VC 02MD 02MO 02MC 02RD 02RO	0	1	1.63583803177	None	None	None	None	1
2.7	2015_Jun_19_1011	s	s	23	5	SIC	419	ABS	2	0	02VD 02VO 10VC 02MD 02MO 02MC 02RD 02RO	0	1	1.94895386696	None	None	None	None	1
2.7	2015_Jun_19_1011	s	s	23	5	SIC	420	ABS	1	2	02VD 02VO 02VC 10MD 02MO 02MC 02RD 02RO	0	1	1.36017799377	None	None	None	None	1
2.7	2015_Jun_19_1011	s	s	23	5	SIC	421	ABS	1	0	02VD 02VO 02VC 02MD 02MO 10MC 02RD 02RO	0	1	2.30678796768	None	None	None	None	1
2.7	2015_Jun_19_1011	s	s	23	5	SIC	422	RC	2	2	09VD 02VO 02VC 02MD 02MO 02MC 02RD 02RO	1	0	0.606943130493	-162.0	61.0	-153	69	1
2.7	2015_Jun_19_1011	s	s	23	5	SIC	423	RC	2	0	02VD 02VO 09VC 02MD 02MO 02MC 02RD 02RO	1	0	1.0389559269	137.0	254.0	135	257	1
2.7	2015_Jun_19_1011	s	s	23	5	SIC	424	RC	0	2	02VD 02VO 02VC 02MD 02MO 02MC 09RD 02RO	1	0	0.78501701355	-208.0	310.0	-206	315	1
2.7	2015_Jun_19_1011	s	s	23	5	SIC	425	ABS	0	2	02VD 02VO 02VC 02MD 02MO 02MC 10RD 02RO	0	1	2.83607506752	None	None	None	None	1
2.7	2015_Jun_19_1011	s	s	23	5	SIC	426	ABS	2	2	10VD 02VO 02VC 02MD 02MO 02MC 02RD 02RO	0	1	1.98416686058	None	None	None	None	1
2.7	2015_Jun_19_1011	s	s	23	5	SIC	427	ABS	0	1	02VD 02VO 02VC 02MD 02MO 02MC 02RD 10RO	0	1	4.35486388206	None	None	None	None	1
2.7	2015_Jun_19_1011	s	s	23	5	SIC	428	RC	1	2	02VD 02VO 02VC 09MD 02MO 02MC 02RD 02RO	1	0	2.38923311234	459.0	74.0	449	75	1
2.7	2015_Jun_19_1011	s	s	23	5	SIC	429	RC	1	1	02VD 02VO 02VC 02MD 09MO 02MC 02RD 02RO	1	0	1.58837103844	-440.0	131.0	-444	126	1
2.7	2015_Jun_19_1011	s	s	23	5	SIC	430	RC	0	1	02VD 02VO 02VC 02MD 02MO 02MC 02RD 09RO	1	0	2.46669316292	123.0	-407.0	129	-411	1
2.7	2015_Jun_19_1011	s	s	23	5	SIC	431	ABS	1	1	02VD 02VO 02VC 02MD 10MO 02MC 02RD 02RO	0	1	2.54936218262	None	None	None	None	1
2.7	2015_Jun_19_1011	s	s	23	5	SIC	432	RC	1	0	02VD 02VO 02VC 02MD 02MO 09MC 02RD 02RO	1	0	0.924551963806	13.0	-195.0	13	-190	1
2.7	2015_Jun_19_1011	s	s	23	5	SIC	433	RC	1	2	02VD 02VO 02VC 09MD 02MO 02MC 02RD 02RO	1	0	0.988080024719	-486.0	369.0	-491	371	1
2.7	2015_Jun_19_1011	s	s	23	5	SIC	434	RC	1	0	02VD 02VO 02VC 02MD 02MO 09MC 02RD 02RO	1	0	0.65284705162	-42.0	-66.0	-38	-63	1
2.7	2015_Jun_19_1011	s	s	23	5	SIC	435	ABS	0	2	02VD 02VO 02VC 02MD 02MO 02MC 10RD 02RO	0	1	2.99889302254	None	None	None	None	1
2.7	2015_Jun_19_1011	s	s	23	5	SIC	436	ABS	2	1	02VD 10VO 02VC 02MD 02MO 02MC 02RD 02RO	0	1	2.57214903831	None	None	None	None	1
2.7	2015_Jun_19_1011	s	s	23	5	SIC	437	ABS	0	1	02VD 02VO 02VC 02MD 02MO 02MC 02RD 10RO	0	1	4.09151387215	None	None	None	None	1
2.7	2015_Jun_19_1011	s	s	23	5	SIC	438	RC	0	1	02VD 02VO 02VC 02MD 02MO 02MC 02RD 09RO	1	0	1.4589471817	-435.0	-380.0	-436	-377	1
2.7	2015_Jun_19_1011	s	s	23	5	SIC	439	ABS	1	0	02VD 02VO 02VC 02MD 02MO 10MC 02RD 02RO	0	1	3.930727005	None	None	None	None	1
2.7	2015_Jun_19_1011	s	s	23	5	SIC	440	RC	2	2	09VD 02VO 02VC 02MD 02MO 02MC 02RD 02RO	1	0	1.35971593857	-244.0	-365.0	-238	-364	1
2.7	2015_Jun_19_1011	s	s	23	5	SIC	441	RC	0	2	02VD 02VO 02VC 02MD 02MO 02MC 09RD 02RO	1	0	0.797528982162	95.0	-108.0	97	-110	1
2.7	2015_Jun_19_1011	s	s	23	5	SIC	442	ABS	1	1	02VD 02VO 02VC 02MD 10MO 02MC 02RD 02RO	0	1	2.93733692169	None	None	None	None	1
2.7	2015_Jun_19_1011	s	s	23	5	SIC	443	ABS	1	2	02VD 02VO 02VC 10MD 02MO 02MC 02RD 02RO	0	1	3.15171003342	None	None	None	None	1
2.7	2015_Jun_19_1011	s	s	23	5	SIC	444	ABS	2	0	02VD 02VO 10VC 02MD 02MO 02MC 02RD 02RO	0	1	2.05922484398	None	None	None	None	1
2.7	2015_Jun_19_1011	s	s	23	5	SIC	445	RC	1	1	02VD 02VO 02VC 02MD 09MO 02MC 02RD 02RO	1	0	0.747731924057	18.0	275.0	8	273	1
2.7	2015_Jun_19_1011	s	s	23	5	SIC	446	RC	2	1	02VD 09VO 02VC 02MD 02MO 02MC 02RD 02RO	1	0	0.576069116592	-155.0	167.0	-158	167	1
2.7	2015_Jun_19_1011	s	s	23	5	SIC	447	ABS	2	2	10VD 02VO 02VC 02MD 02MO 02MC 02RD 02RO	0	1	1.23229598999	None	None	None	None	1
2.7	2015_Jun_19_1011	s	s	23	5	SIC	448	RC	2	0	02VD 02VO 09VC 02MD 02MO 02MC 02RD 02RO	1	0	0.749248027802	-278.0	-52.0	-277	-54	1
2.7	2015_Jun_19_1011	s	s	23	5	SIC	449	ABS	2	2	10VD 02VO 02VC 02MD 02MO 02MC 02RD 02RO	0	1	2.38877010345	None	None	None	None	1
2.7	2015_Jun_19_1011	s	s	23	5	SIC	450	RC	0	2	02VD 02VO 02VC 02MD 02MO 02MC 09RD 02RO	1	0	1.48230981827	366.0	-326.0	368	-330	1
2.7	2015_Jun_19_1011	s	s	23	5	SIC	451	RC	1	1	02VD 02VO 02VC 02MD 09MO 02MC 02RD 02RO	1	0	1.95322918892	515.0	-79.0	508	-80	1
2.7	2015_Jun_19_1011	s	s	23	5	SIC	452	RC	1	0	02VD 02VO 02VC 02MD 02MO 09MC 02RD 02RO	1	0	1.19344997406	279.0	360.0	278	360	1
2.7	2015_Jun_19_1011	s	s	23	5	SIC	453	ABS	1	0	02VD 02VO 02VC 02MD 02MO 10MC 02RD 02RO	0	1	5.55502796173	None	None	None	None	1
2.7	2015_Jun_19_1011	s	s	23	5	SIC	454	ABS	2	0	02VD 02VO 10VC 02MD 02MO 02MC 02RD 02RO	0	1	1.64714097977	None	None	None	None	1
2.7	2015_Jun_19_1011	s	s	23	5	SIC	455	ABS	1	2	02VD 02VO 02VC 10MD 02MO 02MC 02RD 02RO	0	1	2.2325861454	None	None	None	None	1
2.7	2015_Jun_19_1011	s	s	23	5	SIC	456	ABS	0	2	02VD 02VO 02VC 02MD 02MO 02MC 10RD 02RO	0	1	2.52493405342	None	None	None	None	1
2.7	2015_Jun_19_1011	s	s	23	5	SIC	457	RC	0	1	02VD 02VO 02VC 02MD 02MO 02MC 02RD 09RO	1	0	0.973320960999	88.0	328.0	86	333	1
2.7	2015_Jun_19_1011	s	s	23	5	SIC	458	ABS	2	1	02VD 10VO 02VC 02MD 02MO 02MC 02RD 02RO	0	1	2.90695905685	None	None	None	None	1
2.7	2015_Jun_19_1011	s	s	23	5	SIC	459	RC	2	0	02VD 02VO 09VC 02MD 02MO 02MC 02RD 02RO	1	0	1.51282191277	498.0	396.0	494	400	1
2.7	2015_Jun_19_1011	s	s	23	5	SIC	460	ABS	1	1	02VD 02VO 02VC 02MD 10MO 02MC 02RD 02RO	0	1	2.71282196045	None	None	None	None	1
2.7	2015_Jun_19_1011	s	s	23	5	SIC	461	RC	2	1	02VD 09VO 02VC 02MD 02MO 02MC 02RD 02RO	1	0	1.08947610855	488.0	-87.0	490	-93	1
2.7	2015_Jun_19_1011	s	s	23	5	SIC	462	RC	2	2	09VD 02VO 02VC 02MD 02MO 02MC 02RD 02RO	1	0	0.564321994781	29.0	95.0	34	94	1
2.7	2015_Jun_19_1011	s	s	23	5	SIC	463	ABS	0	1	02VD 02VO 02VC 02MD 02MO 02MC 02RD 10RO	0	1	3.5304338932	None	None	None	None	1
2.7	2015_Jun_19_1011	s	s	23	5	SIC	464	RC	1	2	02VD 02VO 02VC 09MD 02MO 02MC 02RD 02RO	1	0	1.73639392853	395.0	-361.0	389	-370	1
2.7	2015_Jun_19_1011	s	s	23	5	SIC	465	ABS	0	2	02VD 02VO 02VC 02MD 02MO 02MC 10RD 02RO	0	1	2.5385620594	None	None	None	None	1
2.7	2015_Jun_19_1011	s	s	23	5	SIC	466	RC	2	0	02VD 02VO 09VC 02MD 02MO 02MC 02RD 02RO	1	0	1.35296201706	-429.0	-196.0	-425	-196	1
2.7	2015_Jun_19_1011	s	s	23	5	SIC	467	RC	0	1	02VD 02VO 02VC 02MD 02MO 02MC 02RD 09RO	1	0	0.61822104454	-425.0	163.0	-421	171	1
2.7	2015_Jun_19_1011	s	s	23	5	SIC	468	RC	0	2	02VD 02VO 02VC 02MD 02MO 02MC 09RD 02RO	1	0	1.52635717392	386.0	23.0	382	26	1
2.7	2015_Jun_19_1011	s	s	23	5	SIC	469	ABS	1	1	02VD 02VO 02VC 02MD 10MO 02MC 02RD 02RO	0	1	3.83008408546	None	None	None	None	1
2.7	2015_Jun_19_1011	s	s	23	5	SIC	470	RC	1	2	02VD 02VO 02VC 09MD 02MO 02MC 02RD 02RO	1	0	1.31295919418	253.0	-274.0	253	-278	1
2.7	2015_Jun_19_1011	s	s	23	5	SIC	471	RC	1	1	02VD 02VO 02VC 02MD 09MO 02MC 02RD 02RO	1	0	1.27752280235	-464.0	82.0	-466	80	1
2.7	2015_Jun_19_1011	s	s	23	5	SIC	472	ABS	2	0	02VD 02VO 10VC 02MD 02MO 02MC 02RD 02RO	0	1	2.471159935	None	None	None	None	1
2.7	2015_Jun_19_1011	s	s	23	5	SIC	473	ABS	1	0	02VD 02VO 02VC 02MD 02MO 10MC 02RD 02RO	0	1	1.98860383034	None	None	None	None	1
2.7	2015_Jun_19_1011	s	s	23	5	SIC	474	RC	2	1	02VD 09VO 02VC 02MD 02MO 02MC 02RD 02RO	1	0	1.10594296455	-33.0	-231.0	-37	-236	1
2.7	2015_Jun_19_1011	s	s	23	5	SIC	475	ABS	2	2	10VD 02VO 02VC 02MD 02MO 02MC 02RD 02RO	0	1	3.21930909157	None	None	None	None	1
2.7	2015_Jun_19_1011	s	s	23	5	SIC	476	ABS	0	1	02VD 02VO 02VC 02MD 02MO 02MC 02RD 10RO	0	1	6.13788604736	None	None	None	None	1
2.7	2015_Jun_19_1011	s	s	23	5	SIC	477	RC	2	2	09VD 02VO 02VC 02MD 02MO 02MC 02RD 02RO	1	0	0.750290870667	66.0	209.0	65	208	1
2.7	2015_Jun_19_1011	s	s	23	5	SIC	478	RC	1	0	02VD 02VO 02VC 02MD 02MO 09MC 02RD 02RO	1	0	2.1534011364	-501.0	-180.0	-496	-178	1
2.7	2015_Jun_19_1011	s	s	23	5	SIC	479	ABS	2	1	02VD 10VO 02VC 02MD 02MO 02MC 02RD 02RO	0	1	1.62370705605	None	None	None	None	1
2.7	2015_Jun_19_1011	s	s	23	5	SIC	480	ABS	1	2	02VD 02VO 02VC 10MD 02MO 02MC 02RD 02RO	0	1	1.89430689812	None	None	None	None	1
