Version	Date	Stimuli	Method	Subject	Session	Condition	Trial	Target	Channel1	Channel2	Distractors	LMouseButton	RMouseButton	RT	TargetX	TargetY	ResponseX	ResponseY	Correct
2.7	2015_Jun_15_1401	s	s	23	1	Capacity	1	RC	0	2	15RD 08RO	0	1	3.27153706551	333.0	-22.0	None	None	0
2.7	2015_Jun_15_1401	s	s	23	1	Capacity	2	ABS	0	1	08RD 16RO	0	1	4.19897890091	None	None	None	None	1
2.7	2015_Jun_15_1401	s	s	23	1	Capacity	3	ABS	0	2	16RD 08RO	0	1	3.94255399704	None	None	None	None	1
2.7	2015_Jun_15_1401	s	s	23	1	Capacity	4	RC	0	1	08RD 15RO	0	1	4.55067801476	491.0	300.0	None	None	0
2.7	2015_Jun_15_1401	s	s	23	1	Capacity	5	RC	0	2	15RD 08RO	0	1	4.56634712219	-145.0	-125.0	None	None	0
2.7	2015_Jun_15_1401	s	s	23	1	Capacity	6	RC	0	1	08RD 15RO	0	1	3.82188487053	344.0	-198.0	None	None	0
2.7	2015_Jun_15_1401	s	s	23	1	Capacity	7	ABS	0	1	08RD 16RO	0	1	4.04348611832	None	None	None	None	1
2.7	2015_Jun_15_1401	s	s	23	1	Capacity	8	ABS	0	2	16RD 08RO	0	1	4.2250289917	None	None	None	None	1
2.7	2015_Jun_15_1401	s	s	23	1	Capacity	9	ABS	0	1	08RD 16RO	0	1	4.36618304253	None	None	None	None	1
2.7	2015_Jun_15_1401	s	s	23	1	Capacity	10	RC	0	1	08RD 15RO	0	1	7.28537988663	-304.0	134.0	None	None	0
2.7	2015_Jun_15_1401	s	s	23	1	Capacity	11	RC	0	2	15RD 08RO	1	0	3.69009494781	464.0	-96.0	461	-99	1
2.7	2015_Jun_15_1401	s	s	23	1	Capacity	12	ABS	0	2	16RD 08RO	0	1	4.43682193756	None	None	None	None	1
2.7	2015_Jun_15_1401	s	s	23	1	Capacity	13	ABS	0	2	16RD 08RO	0	1	4.99693202972	None	None	None	None	1
2.7	2015_Jun_15_1401	s	s	23	1	Capacity	14	RC	0	2	15RD 08RO	1	0	2.32542204857	497.0	-293.0	500	-292	1
2.7	2015_Jun_15_1401	s	s	23	1	Capacity	15	RC	0	1	08RD 15RO	1	0	2.76206684113	64.0	5.0	65	5	1
2.7	2015_Jun_15_1401	s	s	23	1	Capacity	16	ABS	0	1	08RD 16RO	0	1	6.66147112846	None	None	None	None	1
2.7	2015_Jun_15_1401	s	s	23	1	Capacity	17	ABS	0	1	08RD 16RO	0	1	6.343708992	None	None	None	None	1
2.7	2015_Jun_15_1401	s	s	23	1	Capacity	18	RC	0	2	15RD 08RO	1	0	2.74189805984	-90.0	-188.0	-93	-193	1
2.7	2015_Jun_15_1401	s	s	23	1	Capacity	19	RC	0	1	08RD 15RO	0	1	7.37949705124	-229.0	-273.0	None	None	0
2.7	2015_Jun_15_1401	s	s	23	1	Capacity	20	ABS	0	2	16RD 08RO	0	1	4.18458199501	None	None	None	None	1
2.7	2015_Jun_15_1401	s	s	23	1	Capacity	21	RC	0	2	15RD 08RO	1	0	5.18574309349	171.0	74.0	162	72	1
2.7	2015_Jun_15_1401	s	s	23	1	Capacity	22	ABS	0	2	16RD 08RO	0	1	4.67229104042	None	None	None	None	1
2.7	2015_Jun_15_1401	s	s	23	1	Capacity	23	ABS	0	1	08RD 16RO	0	1	5.10413479805	None	None	None	None	1
2.7	2015_Jun_15_1401	s	s	23	1	Capacity	24	RC	0	1	08RD 15RO	1	0	3.06650400162	172.0	-48.0	180	-39	1
2.7	2015_Jun_15_1401	s	s	23	1	Capacity	25	ABS	0	2	16RD 08RO	0	1	2.82425308228	None	None	None	None	1
2.7	2015_Jun_15_1401	s	s	23	1	Capacity	26	RC	0	2	15RD 08RO	1	0	3.82208204269	509.0	-389.0	512	-389	1
2.7	2015_Jun_15_1401	s	s	23	1	Capacity	27	ABS	0	1	08RD 16RO	0	1	6.99732398987	None	None	None	None	1
2.7	2015_Jun_15_1401	s	s	23	1	Capacity	28	RC	0	1	08RD 15RO	0	1	4.89160609245	-45.0	54.0	None	None	0
2.7	2015_Jun_15_1401	s	s	23	1	Capacity	29	ABS	0	2	16RD 08RO	0	1	3.07150506973	None	None	None	None	1
2.7	2015_Jun_15_1401	s	s	23	1	Capacity	30	RC	0	1	08RD 15RO	1	0	2.90672588348	326.0	167.0	331	166	1
2.7	2015_Jun_15_1401	s	s	23	1	Capacity	31	ABS	0	1	08RD 16RO	0	1	4.27210187912	None	None	None	None	1
2.7	2015_Jun_15_1401	s	s	23	1	Capacity	32	RC	0	2	15RD 08RO	1	0	2.78935289383	257.0	-125.0	264	-123	1
2.7	2015_Jun_15_1401	s	s	23	1	Capacity	33	RC	0	1	08RD 15RO	1	0	3.60115194321	438.0	-368.0	440	-371	1
2.7	2015_Jun_15_1401	s	s	23	1	Capacity	34	ABS	0	1	08RD 16RO	0	1	5.64919400215	None	None	None	None	1
2.7	2015_Jun_15_1401	s	s	23	1	Capacity	35	RC	0	2	15RD 08RO	0	1	4.31952404976	92.0	-294.0	None	None	0
2.7	2015_Jun_15_1401	s	s	23	1	Capacity	36	ABS	0	2	16RD 08RO	0	1	4.26029682159	None	None	None	None	1
2.7	2015_Jun_15_1401	s	s	23	1	Capacity	37	ABS	0	2	16RD 08RO	0	1	6.1385819912	None	None	None	None	1
2.7	2015_Jun_15_1401	s	s	23	1	Capacity	38	ABS	0	1	08RD 16RO	0	1	4.48434901237	None	None	None	None	1
2.7	2015_Jun_15_1401	s	s	23	1	Capacity	39	RC	0	1	08RD 15RO	1	0	4.82165908813	422.0	-129.0	427	-138	1
2.7	2015_Jun_15_1401	s	s	23	1	Capacity	40	RC	0	2	15RD 08RO	0	1	3.64314603806	-346.0	-295.0	None	None	0
2.7	2015_Jun_15_1401	s	s	23	1	Capacity	41	RC	0	2	15RD 08RO	0	1	3.94294500351	485.0	-93.0	None	None	0
2.7	2015_Jun_15_1401	s	s	23	1	Capacity	42	ABS	0	1	08RD 16RO	0	1	5.04891681671	None	None	None	None	1
2.7	2015_Jun_15_1401	s	s	23	1	Capacity	43	RC	0	1	08RD 15RO	1	0	4.95479297638	474.0	118.0	468	123	1
2.7	2015_Jun_15_1401	s	s	23	1	Capacity	44	ABS	0	2	16RD 08RO	0	1	4.82016301155	None	None	None	None	1
2.7	2015_Jun_15_1401	s	s	23	1	Capacity	45	RC	0	1	08RD 15RO	1	0	5.14025807381	116.0	330.0	117	326	1
2.7	2015_Jun_15_1401	s	s	23	1	Capacity	46	ABS	0	1	08RD 16RO	0	1	6.07935404778	None	None	None	None	1
2.7	2015_Jun_15_1401	s	s	23	1	Capacity	47	RC	0	2	15RD 08RO	1	0	4.38995194435	-44.0	-213.0	-41	-213	1
2.7	2015_Jun_15_1401	s	s	23	1	Capacity	48	ABS	0	2	16RD 08RO	0	1	4.3027908802	None	None	None	None	1
2.7	2015_Jun_15_1401	s	s	23	1	Capacity	49	ABS	0	1	08RD 16RO	0	1	4.91607999802	None	None	None	None	1
2.7	2015_Jun_15_1401	s	s	23	1	Capacity	50	RC	0	2	15RD 08RO	1	0	2.4536459446	-146.0	-340.0	-141	-339	1
2.7	2015_Jun_15_1401	s	s	23	1	Capacity	51	ABS	0	2	16RD 08RO	0	1	3.57764697075	None	None	None	None	1
2.7	2015_Jun_15_1401	s	s	23	1	Capacity	52	RC	0	1	08RD 15RO	1	0	4.23680186272	99.0	307.0	103	303	1
2.7	2015_Jun_15_1401	s	s	23	1	Capacity	53	ABS	0	2	16RD 08RO	0	1	3.28998398781	None	None	None	None	1
2.7	2015_Jun_15_1401	s	s	23	1	Capacity	54	ABS	0	1	08RD 16RO	0	1	5.29610395432	None	None	None	None	1
2.7	2015_Jun_15_1401	s	s	23	1	Capacity	55	RC	0	2	15RD 08RO	1	0	3.29512906075	310.0	-52.0	313	-46	1
2.7	2015_Jun_15_1401	s	s	23	1	Capacity	56	RC	0	1	08RD 15RO	0	1	4.21987915039	-17.0	-388.0	None	None	0
2.7	2015_Jun_15_1401	s	s	23	1	Capacity	57	RC	0	1	08RD 15RO	1	0	3.58440804482	-56.0	-125.0	-63	-124	1
2.7	2015_Jun_15_1401	s	s	23	1	Capacity	58	ABS	0	2	16RD 08RO	0	1	3.63651704788	None	None	None	None	1
2.7	2015_Jun_15_1401	s	s	23	1	Capacity	59	ABS	0	1	08RD 16RO	0	1	3.45657801628	None	None	None	None	1
2.7	2015_Jun_15_1401	s	s	23	1	Capacity	60	RC	0	2	15RD 08RO	1	0	2.29195785522	-487.0	367.0	-482	365	1
2.7	2015_Jun_15_1401	s	s	23	1	Capacity	61	ABS	0	1	08RD 16RO	0	1	3.53061199188	None	None	None	None	1
2.7	2015_Jun_15_1401	s	s	23	1	Capacity	62	ABS	0	2	16RD 08RO	0	1	3.5018260479	None	None	None	None	1
2.7	2015_Jun_15_1401	s	s	23	1	Capacity	63	RC	0	1	08RD 15RO	1	0	3.60784101486	-255.0	280.0	-252	279	1
2.7	2015_Jun_15_1401	s	s	23	1	Capacity	64	RC	0	2	15RD 08RO	1	0	1.63248205185	-69.0	230.0	-74	224	1
2.7	2015_Jun_15_1401	s	s	23	1	Capacity	1	ABS	1	0	08VC 16MC	0	0	-1	None	None	None	None	-1
2.7	2015_Jun_15_1401	s	s	23	1	Capacity	2	RC	1	0	08VC 15MC	1	0	2.42943501472	-367.0	-250.0	-366	-250	1
2.7	2015_Jun_15_1401	s	s	23	1	Capacity	3	RC	2	0	15VC 08MC	0	1	2.50686907768	245.0	-200.0	None	None	0
2.7	2015_Jun_15_1401	s	s	23	1	Capacity	4	ABS	2	0	16VC 08MC	0	1	5.60888695717	None	None	None	None	1
2.7	2015_Jun_15_1401	s	s	23	1	Capacity	5	RC	1	0	08VC 15MC	1	0	1.89109110832	-206.0	-300.0	-209	-300	1
2.7	2015_Jun_15_1401	s	s	23	1	Capacity	6	ABS	2	0	16VC 08MC	0	1	3.90703010559	None	None	None	None	1
2.7	2015_Jun_15_1401	s	s	23	1	Capacity	7	RC	2	0	15VC 08MC	1	0	1.87765192986	451.0	110.0	451	113	1
2.7	2015_Jun_15_1401	s	s	23	1	Capacity	8	ABS	1	0	08VC 16MC	0	1	3.89539194107	None	None	None	None	1
2.7	2015_Jun_15_1401	s	s	23	1	Capacity	9	ABS	2	0	16VC 08MC	0	1	3.330493927	None	None	None	None	1
2.7	2015_Jun_15_1401	s	s	23	1	Capacity	10	RC	2	0	15VC 08MC	1	0	2.92208814621	430.0	60.0	424	60	1
2.7	2015_Jun_15_1401	s	s	23	1	Capacity	11	RC	1	0	08VC 15MC	1	0	7.75611209869	470.0	-142.0	469	-144	1
2.7	2015_Jun_15_1401	s	s	23	1	Capacity	12	ABS	1	0	08VC 16MC	0	1	3.66010308266	None	None	None	None	1
2.7	2015_Jun_15_1401	s	s	23	1	Capacity	13	ABS	1	0	08VC 16MC	0	1	4.50216794014	None	None	None	None	1
2.7	2015_Jun_15_1401	s	s	23	1	Capacity	14	RC	1	0	08VC 15MC	1	0	1.98581790924	-530.0	-21.0	-524	-16	1
2.7	2015_Jun_15_1401	s	s	23	1	Capacity	15	RC	2	0	15VC 08MC	1	0	1.50344800949	41.0	-40.0	29	-37	1
2.7	2015_Jun_15_1401	s	s	23	1	Capacity	16	ABS	2	0	16VC 08MC	0	1	2.70663309097	None	None	None	None	1
2.7	2015_Jun_15_1401	s	s	23	1	Capacity	17	RC	2	0	15VC 08MC	1	0	1.67839503288	21.0	342.0	9	350	1
2.7	2015_Jun_15_1401	s	s	23	1	Capacity	18	RC	1	0	08VC 15MC	1	0	2.11224508286	527.0	-5.0	527	-4	1
2.7	2015_Jun_15_1401	s	s	23	1	Capacity	19	ABS	2	0	16VC 08MC	0	1	3.10673689842	None	None	None	None	1
2.7	2015_Jun_15_1401	s	s	23	1	Capacity	20	ABS	1	0	08VC 16MC	0	1	1.52952504158	None	None	None	None	1
2.7	2015_Jun_15_1401	s	s	23	1	Capacity	21	ABS	2	0	16VC 08MC	0	1	2.83609390259	None	None	None	None	1
2.7	2015_Jun_15_1401	s	s	23	1	Capacity	22	ABS	1	0	08VC 16MC	0	1	6.08133006096	None	None	None	None	1
2.7	2015_Jun_15_1401	s	s	23	1	Capacity	23	RC	1	0	08VC 15MC	1	0	2.23193287849	-357.0	276.0	-356	273	1
2.7	2015_Jun_15_1401	s	s	23	1	Capacity	24	RC	2	0	15VC 08MC	1	0	0.999879837036	-395.0	344.0	-392	333	1
2.7	2015_Jun_15_1401	s	s	23	1	Capacity	25	RC	2	0	15VC 08MC	1	0	1.7832429409	26.0	-391.0	23	-404	1
2.7	2015_Jun_15_1401	s	s	23	1	Capacity	26	ABS	1	0	08VC 16MC	0	1	3.95017385483	None	None	None	None	1
2.7	2015_Jun_15_1401	s	s	23	1	Capacity	27	ABS	2	0	16VC 08MC	0	1	3.31376194954	None	None	None	None	1
2.7	2015_Jun_15_1401	s	s	23	1	Capacity	28	RC	1	0	08VC 15MC	1	0	1.42364192009	-419.0	70.0	-415	64	1
2.7	2015_Jun_15_1401	s	s	23	1	Capacity	29	RC	2	0	15VC 08MC	1	0	1.44732904434	-448.0	300.0	-447	300	1
2.7	2015_Jun_15_1401	s	s	23	1	Capacity	30	RC	1	0	08VC 15MC	1	0	2.79503893852	-266.0	-298.0	-266	-302	1
2.7	2015_Jun_15_1401	s	s	23	1	Capacity	31	ABS	1	0	08VC 16MC	0	1	2.99747800827	None	None	None	None	1
2.7	2015_Jun_15_1401	s	s	23	1	Capacity	32	ABS	2	0	16VC 08MC	0	1	3.86016201973	None	None	None	None	1
2.7	2015_Jun_15_1401	s	s	23	1	Capacity	33	RC	2	0	15VC 08MC	1	0	2.01884794235	-80.0	-244.0	-91	-235	1
2.7	2015_Jun_15_1401	s	s	23	1	Capacity	34	ABS	2	0	16VC 08MC	0	1	2.54178881645	None	None	None	None	1
2.7	2015_Jun_15_1401	s	s	23	1	Capacity	35	ABS	1	0	08VC 16MC	0	1	5.13924193382	None	None	None	None	1
2.7	2015_Jun_15_1401	s	s	23	1	Capacity	36	RC	1	0	08VC 15MC	1	0	3.542304039	490.0	-329.0	487	-329	1
2.7	2015_Jun_15_1401	s	s	23	1	Capacity	37	ABS	1	0	08VC 16MC	0	1	2.64411711693	None	None	None	None	1
2.7	2015_Jun_15_1401	s	s	23	1	Capacity	38	RC	2	0	15VC 08MC	1	0	2.45945692062	-306.0	-316.0	-307	-310	1
2.7	2015_Jun_15_1401	s	s	23	1	Capacity	39	ABS	2	0	16VC 08MC	0	1	3.27159810066	None	None	None	None	1
2.7	2015_Jun_15_1401	s	s	23	1	Capacity	40	RC	1	0	08VC 15MC	1	0	2.64501810074	-42.0	-227.0	-33	-219	1
2.7	2015_Jun_15_1401	s	s	23	1	Capacity	41	ABS	2	0	16VC 08MC	0	1	1.7567949295	None	None	None	None	1
2.7	2015_Jun_15_1401	s	s	23	1	Capacity	42	RC	2	0	15VC 08MC	1	0	2.01935386658	346.0	-241.0	340	-239	1
2.7	2015_Jun_15_1401	s	s	23	1	Capacity	43	RC	1	0	08VC 15MC	1	0	5.92941212654	-72.0	-140.0	-66	-138	1
2.7	2015_Jun_15_1401	s	s	23	1	Capacity	44	ABS	1	0	08VC 16MC	0	1	2.77378296852	None	None	None	None	1
2.7	2015_Jun_15_1401	s	s	23	1	Capacity	45	ABS	1	0	08VC 16MC	0	1	2.94888520241	None	None	None	None	1
2.7	2015_Jun_15_1401	s	s	23	1	Capacity	46	RC	1	0	08VC 15MC	1	0	2.01822185516	-292.0	-206.0	-298	-198	1
2.7	2015_Jun_15_1401	s	s	23	1	Capacity	47	ABS	2	0	16VC 08MC	0	1	3.84843802452	None	None	None	None	1
2.7	2015_Jun_15_1401	s	s	23	1	Capacity	48	RC	2	0	15VC 08MC	1	0	2.8129029274	329.0	71.0	330	70	1
2.7	2015_Jun_15_1401	s	s	23	1	Capacity	49	ABS	2	0	16VC 08MC	0	1	3.25471901894	None	None	None	None	1
2.7	2015_Jun_15_1401	s	s	23	1	Capacity	50	RC	1	0	08VC 15MC	1	0	2.05405497551	454.0	57.0	444	58	1
2.7	2015_Jun_15_1401	s	s	23	1	Capacity	51	ABS	1	0	08VC 16MC	0	1	3.86061120033	None	None	None	None	1
2.7	2015_Jun_15_1401	s	s	23	1	Capacity	52	RC	2	0	15VC 08MC	1	0	1.52408289909	-495.0	357.0	-499	357	1
2.7	2015_Jun_15_1401	s	s	23	1	Capacity	53	ABS	2	0	16VC 08MC	0	1	4.09553003311	None	None	None	None	1
2.7	2015_Jun_15_1401	s	s	23	1	Capacity	54	RC	2	0	15VC 08MC	1	0	1.84240794182	-154.0	-366.0	-156	-363	1
2.7	2015_Jun_15_1401	s	s	23	1	Capacity	55	RC	1	0	08VC 15MC	0	1	2.55083107948	182.0	-273.0	None	None	0
2.7	2015_Jun_15_1401	s	s	23	1	Capacity	56	ABS	1	0	08VC 16MC	0	1	3.51378893852	None	None	None	None	1
2.7	2015_Jun_15_1401	s	s	23	1	Capacity	57	ABS	1	0	08VC 16MC	0	1	5.63413095474	None	None	None	None	1
2.7	2015_Jun_15_1401	s	s	23	1	Capacity	58	ABS	2	0	16VC 08MC	0	1	4.45534110069	None	None	None	None	1
2.7	2015_Jun_15_1401	s	s	23	1	Capacity	59	RC	2	0	15VC 08MC	1	0	8.55660009384	-99.0	-287.0	-108	-289	1
2.7	2015_Jun_15_1401	s	s	23	1	Capacity	60	RC	1	0	08VC 15MC	1	0	1.56114506721	-258.0	-271.0	-258	-276	1
2.7	2015_Jun_15_1401	s	s	23	1	Capacity	61	ABS	1	0	08VC 16MC	0	1	4.69586086273	None	None	None	None	1
2.7	2015_Jun_15_1401	s	s	23	1	Capacity	62	RC	1	0	08VC 15MC	1	0	13.6179289818	65.0	-353.0	57	-354	1
2.7	2015_Jun_15_1401	s	s	23	1	Capacity	63	RC	2	0	15VC 08MC	1	0	2.7626709938	539.0	72.0	541	73	1
2.7	2015_Jun_15_1401	s	s	23	1	Capacity	64	ABS	2	0	16VC 08MC	0	1	3.43631696701	None	None	None	None	1
2.7	2015_Jun_15_1401	s	s	23	1	SIC	1	ABS	2	2	10VD 02VO 02VC 02MD 02MO 02MC 02RD 02RO	0	1	3.97272396088	None	None	None	None	1
2.7	2015_Jun_15_1401	s	s	23	1	SIC	2	RC	0	1	02VD 02VO 02VC 02MD 02MO 02MC 02RD 09RO	0	1	6.85005402565	-247.0	-15.0	None	None	0
2.7	2015_Jun_15_1401	s	s	23	1	SIC	3	RC	2	2	09VD 02VO 02VC 02MD 02MO 02MC 02RD 02RO	1	0	2.30999612808	68.0	82.0	64	80	1
2.7	2015_Jun_15_1401	s	s	23	1	SIC	4	RC	1	2	02VD 02VO 02VC 09MD 02MO 02MC 02RD 02RO	1	0	1.34788298607	18.0	-135.0	20	-134	1
2.7	2015_Jun_15_1401	s	s	23	1	SIC	5	ABS	1	1	02VD 02VO 02VC 02MD 10MO 02MC 02RD 02RO	0	1	5.23235607147	None	None	None	None	1
2.7	2015_Jun_15_1401	s	s	23	1	SIC	6	RC	2	1	02VD 09VO 02VC 02MD 02MO 02MC 02RD 02RO	1	0	1.61852693558	-149.0	-273.0	-151	-273	1
2.7	2015_Jun_15_1401	s	s	23	1	SIC	7	RC	0	2	02VD 02VO 02VC 02MD 02MO 02MC 09RD 02RO	1	0	1.1410241127	5.0	38.0	14	39	1
2.7	2015_Jun_15_1401	s	s	23	1	SIC	8	ABS	1	0	02VD 02VO 02VC 02MD 02MO 10MC 02RD 02RO	0	1	5.99896597862	None	None	None	None	1
2.7	2015_Jun_15_1401	s	s	23	1	SIC	9	ABS	2	0	02VD 02VO 10VC 02MD 02MO 02MC 02RD 02RO	0	1	4.20144200325	None	None	None	None	1
2.7	2015_Jun_15_1401	s	s	23	1	SIC	10	RC	1	1	02VD 02VO 02VC 02MD 09MO 02MC 02RD 02RO	1	0	1.94841790199	423.0	246.0	417	245	1
2.7	2015_Jun_15_1401	s	s	23	1	SIC	11	RC	1	0	02VD 02VO 02VC 02MD 02MO 09MC 02RD 02RO	1	0	1.22955989838	-339.0	316.0	-346	320	1
2.7	2015_Jun_15_1401	s	s	23	1	SIC	12	RC	2	0	02VD 02VO 09VC 02MD 02MO 02MC 02RD 02RO	1	0	2.89495801926	314.0	-31.0	315	-32	1
2.7	2015_Jun_15_1401	s	s	23	1	SIC	13	ABS	1	2	02VD 02VO 02VC 10MD 02MO 02MC 02RD 02RO	0	1	3.757791996	None	None	None	None	1
2.7	2015_Jun_15_1401	s	s	23	1	SIC	14	ABS	0	2	02VD 02VO 02VC 02MD 02MO 02MC 10RD 02RO	0	1	4.63693404198	None	None	None	None	1
2.7	2015_Jun_15_1401	s	s	23	1	SIC	15	ABS	0	1	02VD 02VO 02VC 02MD 02MO 02MC 02RD 10RO	0	1	3.83663105965	None	None	None	None	1
2.7	2015_Jun_15_1401	s	s	23	1	SIC	16	ABS	2	1	02VD 10VO 02VC 02MD 02MO 02MC 02RD 02RO	0	1	3.1701130867	None	None	None	None	1
2.7	2015_Jun_15_1401	s	s	23	1	SIC	17	RC	1	2	02VD 02VO 02VC 09MD 02MO 02MC 02RD 02RO	1	0	0.835062980652	3.0	5.0	10	7	1
2.7	2015_Jun_15_1401	s	s	23	1	SIC	18	RC	0	1	02VD 02VO 02VC 02MD 02MO 02MC 02RD 09RO	1	0	15.6390089989	-190.0	-15.0	-180	-15	1
2.7	2015_Jun_15_1401	s	s	23	1	SIC	19	RC	1	1	02VD 02VO 02VC 02MD 09MO 02MC 02RD 02RO	1	0	5.96707105637	523.0	232.0	534	236	1
2.7	2015_Jun_15_1401	s	s	23	1	SIC	20	ABS	1	1	02VD 02VO 02VC 02MD 10MO 02MC 02RD 02RO	0	1	5.48445487022	None	None	None	None	1
2.7	2015_Jun_15_1401	s	s	23	1	SIC	21	ABS	2	0	02VD 02VO 10VC 02MD 02MO 02MC 02RD 02RO	0	1	3.17202401161	None	None	None	None	1
2.7	2015_Jun_15_1401	s	s	23	1	SIC	22	RC	2	2	09VD 02VO 02VC 02MD 02MO 02MC 02RD 02RO	1	0	3.11430811882	-383.0	-385.0	-382	-388	1
2.7	2015_Jun_15_1401	s	s	23	1	SIC	23	ABS	1	2	02VD 02VO 02VC 10MD 02MO 02MC 02RD 02RO	0	1	3.26594114304	None	None	None	None	1
2.7	2015_Jun_15_1401	s	s	23	1	SIC	24	RC	2	0	02VD 02VO 09VC 02MD 02MO 02MC 02RD 02RO	1	0	1.04184007645	-264.0	253.0	-266	248	1
2.7	2015_Jun_15_1401	s	s	23	1	SIC	25	ABS	0	2	02VD 02VO 02VC 02MD 02MO 02MC 10RD 02RO	0	1	3.97787690163	None	None	None	None	1
2.7	2015_Jun_15_1401	s	s	23	1	SIC	26	ABS	2	2	10VD 02VO 02VC 02MD 02MO 02MC 02RD 02RO	0	1	3.72542500496	None	None	None	None	1
2.7	2015_Jun_15_1401	s	s	23	1	SIC	27	RC	0	2	02VD 02VO 02VC 02MD 02MO 02MC 09RD 02RO	1	0	1.51775884628	-27.0	316.0	-18	319	1
2.7	2015_Jun_15_1401	s	s	23	1	SIC	28	ABS	2	1	02VD 10VO 02VC 02MD 02MO 02MC 02RD 02RO	0	1	6.27308797836	None	None	None	None	1
2.7	2015_Jun_15_1401	s	s	23	1	SIC	29	ABS	1	0	02VD 02VO 02VC 02MD 02MO 10MC 02RD 02RO	0	1	6.131772995	None	None	None	None	1
2.7	2015_Jun_15_1401	s	s	23	1	SIC	30	RC	1	0	02VD 02VO 02VC 02MD 02MO 09MC 02RD 02RO	1	0	2.74549388885	412.0	118.0	421	123	1
2.7	2015_Jun_15_1401	s	s	23	1	SIC	31	ABS	0	1	02VD 02VO 02VC 02MD 02MO 02MC 02RD 10RO	0	1	9.6349978447	None	None	None	None	1
2.7	2015_Jun_15_1401	s	s	23	1	SIC	32	RC	2	1	02VD 09VO 02VC 02MD 02MO 02MC 02RD 02RO	1	0	1.61881685257	-119.0	-35.0	-117	-31	1
2.7	2015_Jun_15_1401	s	s	23	1	SIC	33	ABS	1	0	02VD 02VO 02VC 02MD 02MO 10MC 02RD 02RO	0	1	7.55612707138	None	None	None	None	1
2.7	2015_Jun_15_1401	s	s	23	1	SIC	34	RC	2	2	09VD 02VO 02VC 02MD 02MO 02MC 02RD 02RO	1	0	2.23573803902	509.0	262.0	511	258	1
2.7	2015_Jun_15_1401	s	s	23	1	SIC	35	ABS	1	1	02VD 02VO 02VC 02MD 10MO 02MC 02RD 02RO	0	1	5.59040594101	None	None	None	None	1
2.7	2015_Jun_15_1401	s	s	23	1	SIC	36	RC	2	1	02VD 09VO 02VC 02MD 02MO 02MC 02RD 02RO	1	0	2.19533991814	371.0	66.0	381	69	1
2.7	2015_Jun_15_1401	s	s	23	1	SIC	37	RC	0	1	02VD 02VO 02VC 02MD 02MO 02MC 02RD 09RO	1	0	3.00703501701	38.0	-246.0	30	-248	1
2.7	2015_Jun_15_1401	s	s	23	1	SIC	38	RC	2	0	02VD 02VO 09VC 02MD 02MO 02MC 02RD 02RO	1	0	1.21768903732	-340.0	150.0	-334	151	1
2.7	2015_Jun_15_1401	s	s	23	1	SIC	39	ABS	0	2	02VD 02VO 02VC 02MD 02MO 02MC 10RD 02RO	0	1	3.98467421532	None	None	None	None	1
2.7	2015_Jun_15_1401	s	s	23	1	SIC	40	RC	1	0	02VD 02VO 02VC 02MD 02MO 09MC 02RD 02RO	1	0	12.7182371616	-333.0	-132.0	-317	-124	1
2.7	2015_Jun_15_1401	s	s	23	1	SIC	41	RC	0	2	02VD 02VO 02VC 02MD 02MO 02MC 09RD 02RO	1	0	2.41257381439	367.0	313.0	380	317	1
2.7	2015_Jun_15_1401	s	s	23	1	SIC	42	ABS	2	1	02VD 10VO 02VC 02MD 02MO 02MC 02RD 02RO	0	1	9.95228815079	None	None	None	None	1
2.7	2015_Jun_15_1401	s	s	23	1	SIC	43	RC	1	1	02VD 02VO 02VC 02MD 09MO 02MC 02RD 02RO	1	0	6.06115198135	-160.0	-189.0	-162	-190	1
2.7	2015_Jun_15_1401	s	s	23	1	SIC	44	ABS	2	0	02VD 02VO 10VC 02MD 02MO 02MC 02RD 02RO	0	1	2.87127280235	None	None	None	None	1
2.7	2015_Jun_15_1401	s	s	23	1	SIC	45	ABS	1	2	02VD 02VO 02VC 10MD 02MO 02MC 02RD 02RO	0	1	6.39073204994	None	None	None	None	1
2.7	2015_Jun_15_1401	s	s	23	1	SIC	46	ABS	2	2	10VD 02VO 02VC 02MD 02MO 02MC 02RD 02RO	0	1	5.69202399254	None	None	None	None	1
2.7	2015_Jun_15_1401	s	s	23	1	SIC	47	RC	1	2	02VD 02VO 02VC 09MD 02MO 02MC 02RD 02RO	1	0	4.37286281586	-383.0	228.0	-389	233	1
2.7	2015_Jun_15_1401	s	s	23	1	SIC	48	ABS	0	1	02VD 02VO 02VC 02MD 02MO 02MC 02RD 10RO	0	1	8.05045294762	None	None	None	None	1
2.7	2015_Jun_15_1401	s	s	23	1	SIC	49	RC	1	2	02VD 02VO 02VC 09MD 02MO 02MC 02RD 02RO	1	0	3.27141404152	-84.0	-391.0	-81	-399	1
2.7	2015_Jun_15_1401	s	s	23	1	SIC	50	RC	0	1	02VD 02VO 02VC 02MD 02MO 02MC 02RD 09RO	1	0	4.71931815147	251.0	-226.0	252	-231	1
2.7	2015_Jun_15_1401	s	s	23	1	SIC	51	ABS	1	1	02VD 02VO 02VC 02MD 10MO 02MC 02RD 02RO	0	1	5.33142614365	None	None	None	None	1
2.7	2015_Jun_15_1401	s	s	23	1	SIC	52	RC	2	0	02VD 02VO 09VC 02MD 02MO 02MC 02RD 02RO	1	0	1.27662611008	-272.0	97.0	-269	105	1
2.7	2015_Jun_15_1401	s	s	23	1	SIC	53	ABS	0	2	02VD 02VO 02VC 02MD 02MO 02MC 10RD 02RO	0	1	5.70811200142	None	None	None	None	1
2.7	2015_Jun_15_1401	s	s	23	1	SIC	54	RC	0	2	02VD 02VO 02VC 02MD 02MO 02MC 09RD 02RO	1	0	1.53821396828	-425.0	134.0	-424	131	1
2.7	2015_Jun_15_1401	s	s	23	1	SIC	55	ABS	1	2	02VD 02VO 02VC 10MD 02MO 02MC 02RD 02RO	0	1	6.68099808693	None	None	None	None	1
2.7	2015_Jun_15_1401	s	s	23	1	SIC	56	RC	1	0	02VD 02VO 02VC 02MD 02MO 09MC 02RD 02RO	1	0	10.6231069565	444.0	234.0	448	233	1
2.7	2015_Jun_15_1401	s	s	23	1	SIC	57	ABS	2	0	02VD 02VO 10VC 02MD 02MO 02MC 02RD 02RO	0	1	4.53782486916	None	None	None	None	1
2.7	2015_Jun_15_1401	s	s	23	1	SIC	58	RC	2	2	09VD 02VO 02VC 02MD 02MO 02MC 02RD 02RO	1	0	3.66683506966	-383.0	-331.0	-383	-333	1
2.7	2015_Jun_15_1401	s	s	23	1	SIC	59	ABS	1	0	02VD 02VO 02VC 02MD 02MO 10MC 02RD 02RO	0	1	6.08465504646	None	None	None	None	1
2.7	2015_Jun_15_1401	s	s	23	1	SIC	60	ABS	0	1	02VD 02VO 02VC 02MD 02MO 02MC 02RD 10RO	0	1	7.06989407539	None	None	None	None	1
2.7	2015_Jun_15_1401	s	s	23	1	SIC	61	ABS	2	1	02VD 10VO 02VC 02MD 02MO 02MC 02RD 02RO	0	1	5.3784840107	None	None	None	None	1
2.7	2015_Jun_15_1401	s	s	23	1	SIC	62	RC	1	1	02VD 02VO 02VC 02MD 09MO 02MC 02RD 02RO	1	0	3.87866806984	-6.0	10.0	1	12	1
2.7	2015_Jun_15_1401	s	s	23	1	SIC	63	RC	2	1	02VD 09VO 02VC 02MD 02MO 02MC 02RD 02RO	1	0	2.10632681847	-67.0	-91.0	-68	-97	1
2.7	2015_Jun_15_1401	s	s	23	1	SIC	64	ABS	2	2	10VD 02VO 02VC 02MD 02MO 02MC 02RD 02RO	0	1	3.30197095871	None	None	None	None	1
2.7	2015_Jun_15_1401	s	s	23	1	SIC	65	ABS	2	0	02VD 02VO 10VC 02MD 02MO 02MC 02RD 02RO	0	1	3.80659580231	None	None	None	None	1
2.7	2015_Jun_15_1401	s	s	23	1	SIC	66	RC	0	2	02VD 02VO 02VC 02MD 02MO 02MC 09RD 02RO	1	0	12.445130825	-207.0	-362.0	-215	-364	1
2.7	2015_Jun_15_1401	s	s	23	1	SIC	67	ABS	1	2	02VD 02VO 02VC 10MD 02MO 02MC 02RD 02RO	0	1	5.2490131855	None	None	None	None	1
2.7	2015_Jun_15_1401	s	s	23	1	SIC	68	ABS	0	2	02VD 02VO 02VC 02MD 02MO 02MC 10RD 02RO	0	1	5.99944591522	None	None	None	None	1
2.7	2015_Jun_15_1401	s	s	23	1	SIC	69	RC	1	0	02VD 02VO 02VC 02MD 02MO 09MC 02RD 02RO	1	0	6.00221300125	153.0	-370.0	157	-372	1
2.7	2015_Jun_15_1401	s	s	23	1	SIC	70	RC	1	2	02VD 02VO 02VC 09MD 02MO 02MC 02RD 02RO	1	0	6.93256282806	-164.0	91.0	-162	94	1
2.7	2015_Jun_15_1401	s	s	23	1	SIC	71	RC	0	1	02VD 02VO 02VC 02MD 02MO 02MC 02RD 09RO	1	0	4.88409209251	38.0	-98.0	40	-99	1
2.7	2015_Jun_15_1401	s	s	23	1	SIC	72	RC	1	1	02VD 02VO 02VC 02MD 09MO 02MC 02RD 02RO	1	0	2.76035308838	19.0	265.0	22	264	1
2.7	2015_Jun_15_1401	s	s	23	1	SIC	73	RC	2	2	09VD 02VO 02VC 02MD 02MO 02MC 02RD 02RO	1	0	3.38933992386	151.0	405.0	154	403	1
2.7	2015_Jun_15_1401	s	s	23	1	SIC	74	ABS	1	1	02VD 02VO 02VC 02MD 10MO 02MC 02RD 02RO	0	1	4.2906961441	None	None	None	None	1
2.7	2015_Jun_15_1401	s	s	23	1	SIC	75	ABS	0	1	02VD 02VO 02VC 02MD 02MO 02MC 02RD 10RO	0	1	7.60358309746	None	None	None	None	1
2.7	2015_Jun_15_1401	s	s	23	1	SIC	76	ABS	2	1	02VD 10VO 02VC 02MD 02MO 02MC 02RD 02RO	0	1	3.86047101021	None	None	None	None	1
2.7	2015_Jun_15_1401	s	s	23	1	SIC	77	RC	2	1	02VD 09VO 02VC 02MD 02MO 02MC 02RD 02RO	1	0	7.72971796989	43.0	-99.0	46	-96	1
2.7	2015_Jun_15_1401	s	s	23	1	SIC	78	RC	2	0	02VD 02VO 09VC 02MD 02MO 02MC 02RD 02RO	1	0	2.0945379734	112.0	-2.0	119	1	1
2.7	2015_Jun_15_1401	s	s	23	1	SIC	79	ABS	2	2	10VD 02VO 02VC 02MD 02MO 02MC 02RD 02RO	0	1	3.59607100487	None	None	None	None	1
2.7	2015_Jun_15_1401	s	s	23	1	SIC	80	ABS	1	0	02VD 02VO 02VC 02MD 02MO 10MC 02RD 02RO	0	1	6.82215809822	None	None	None	None	1
2.7	2015_Jun_15_1401	s	s	23	1	SIC	81	ABS	2	1	02VD 10VO 02VC 02MD 02MO 02MC 02RD 02RO	0	1	3.03236508369	None	None	None	None	1
2.7	2015_Jun_15_1401	s	s	23	1	SIC	82	ABS	0	2	02VD 02VO 02VC 02MD 02MO 02MC 10RD 02RO	0	1	4.46038794518	None	None	None	None	1
2.7	2015_Jun_15_1401	s	s	23	1	SIC	83	ABS	1	2	02VD 02VO 02VC 10MD 02MO 02MC 02RD 02RO	0	1	4.30215406418	None	None	None	None	1
2.7	2015_Jun_15_1401	s	s	23	1	SIC	84	RC	0	2	02VD 02VO 02VC 02MD 02MO 02MC 09RD 02RO	1	0	2.53905701637	5.0	-355.0	7	-363	1
2.7	2015_Jun_15_1401	s	s	23	1	SIC	85	ABS	1	1	02VD 02VO 02VC 02MD 10MO 02MC 02RD 02RO	0	1	5.1523308754	None	None	None	None	1
2.7	2015_Jun_15_1401	s	s	23	1	SIC	86	RC	1	0	02VD 02VO 02VC 02MD 02MO 09MC 02RD 02RO	1	0	2.65700101852	-222.0	-316.0	-218	-315	1
2.7	2015_Jun_15_1401	s	s	23	1	SIC	87	RC	1	1	02VD 02VO 02VC 02MD 09MO 02MC 02RD 02RO	1	0	5.65613293648	-70.0	205.0	-60	213	1
2.7	2015_Jun_15_1401	s	s	23	1	SIC	88	RC	0	1	02VD 02VO 02VC 02MD 02MO 02MC 02RD 09RO	1	0	3.73064517975	490.0	-332.0	499	-328	1
2.7	2015_Jun_15_1401	s	s	23	1	SIC	89	ABS	0	1	02VD 02VO 02VC 02MD 02MO 02MC 02RD 10RO	0	1	4.9627931118	None	None	None	None	1
2.7	2015_Jun_15_1401	s	s	23	1	SIC	90	ABS	2	2	10VD 02VO 02VC 02MD 02MO 02MC 02RD 02RO	0	1	3.11851000786	None	None	None	None	1
2.7	2015_Jun_15_1401	s	s	23	1	SIC	91	RC	2	1	02VD 09VO 02VC 02MD 02MO 02MC 02RD 02RO	1	0	1.10075807571	-243.0	-175.0	-242	-184	1
2.7	2015_Jun_15_1401	s	s	23	1	SIC	92	RC	2	0	02VD 02VO 09VC 02MD 02MO 02MC 02RD 02RO	1	0	3.05146408081	238.0	-353.0	233	-353	1
2.7	2015_Jun_15_1401	s	s	23	1	SIC	93	ABS	1	0	02VD 02VO 02VC 02MD 02MO 10MC 02RD 02RO	0	1	6.09656715393	None	None	None	None	1
2.7	2015_Jun_15_1401	s	s	23	1	SIC	94	ABS	2	0	02VD 02VO 10VC 02MD 02MO 02MC 02RD 02RO	0	1	5.30253911018	None	None	None	None	1
2.7	2015_Jun_15_1401	s	s	23	1	SIC	95	RC	2	2	09VD 02VO 02VC 02MD 02MO 02MC 02RD 02RO	1	0	0.879302978516	-159.0	259.0	-158	266	1
2.7	2015_Jun_15_1401	s	s	23	1	SIC	96	RC	1	2	02VD 02VO 02VC 09MD 02MO 02MC 02RD 02RO	1	0	2.22133302689	488.0	321.0	490	316	1
2.7	2015_Jun_15_1401	s	s	23	1	SIC	97	RC	1	1	02VD 02VO 02VC 02MD 09MO 02MC 02RD 02RO	1	0	1.78388881683	483.0	-316.0	488	-314	1
2.7	2015_Jun_15_1401	s	s	23	1	SIC	98	ABS	2	0	02VD 02VO 10VC 02MD 02MO 02MC 02RD 02RO	0	1	3.3068959713	None	None	None	None	1
2.7	2015_Jun_15_1401	s	s	23	1	SIC	99	ABS	0	1	02VD 02VO 02VC 02MD 02MO 02MC 02RD 10RO	0	1	4.77829194069	None	None	None	None	1
2.7	2015_Jun_15_1401	s	s	23	1	SIC	100	RC	1	2	02VD 02VO 02VC 09MD 02MO 02MC 02RD 02RO	1	0	1.46576213837	-386.0	-275.0	-385	-275	1
2.7	2015_Jun_15_1401	s	s	23	1	SIC	101	RC	0	1	02VD 02VO 02VC 02MD 02MO 02MC 02RD 09RO	1	0	4.22501182556	120.0	318.0	124	317	1
2.7	2015_Jun_15_1401	s	s	23	1	SIC	102	RC	2	1	02VD 09VO 02VC 02MD 02MO 02MC 02RD 02RO	1	0	1.12940192223	-494.0	245.0	-503	254	1
2.7	2015_Jun_15_1401	s	s	23	1	SIC	103	ABS	1	0	02VD 02VO 02VC 02MD 02MO 10MC 02RD 02RO	0	1	3.1183860302	None	None	None	None	1
2.7	2015_Jun_15_1401	s	s	23	1	SIC	104	RC	2	2	09VD 02VO 02VC 02MD 02MO 02MC 02RD 02RO	1	0	1.88937997818	434.0	111.0	437	108	1
2.7	2015_Jun_15_1401	s	s	23	1	SIC	105	RC	2	0	02VD 02VO 09VC 02MD 02MO 02MC 02RD 02RO	1	0	1.28922891617	234.0	268.0	242	272	1
2.7	2015_Jun_15_1401	s	s	23	1	SIC	106	RC	1	0	02VD 02VO 02VC 02MD 02MO 09MC 02RD 02RO	0	1	7.2937810421	449.0	365.0	None	None	0
2.7	2015_Jun_15_1401	s	s	23	1	SIC	107	ABS	1	2	02VD 02VO 02VC 10MD 02MO 02MC 02RD 02RO	0	1	4.02482390404	None	None	None	None	1
2.7	2015_Jun_15_1401	s	s	23	1	SIC	108	ABS	2	2	10VD 02VO 02VC 02MD 02MO 02MC 02RD 02RO	0	1	5.10783004761	None	None	None	None	1
2.7	2015_Jun_15_1401	s	s	23	1	SIC	109	ABS	0	2	02VD 02VO 02VC 02MD 02MO 02MC 10RD 02RO	0	1	7.20979690552	None	None	None	None	1
2.7	2015_Jun_15_1401	s	s	23	1	SIC	110	RC	0	2	02VD 02VO 02VC 02MD 02MO 02MC 09RD 02RO	1	0	3.78952121735	272.0	396.0	266	395	1
2.7	2015_Jun_15_1401	s	s	23	1	SIC	111	ABS	2	1	02VD 10VO 02VC 02MD 02MO 02MC 02RD 02RO	0	1	3.71890711784	None	None	None	None	1
2.7	2015_Jun_15_1401	s	s	23	1	SIC	112	ABS	1	1	02VD 02VO 02VC 02MD 10MO 02MC 02RD 02RO	0	1	4.94932293892	None	None	None	None	1
2.7	2015_Jun_15_1401	s	s	23	1	SIC	113	ABS	1	1	02VD 02VO 02VC 02MD 10MO 02MC 02RD 02RO	0	1	4.97873592377	None	None	None	None	1
2.7	2015_Jun_15_1401	s	s	23	1	SIC	114	ABS	0	1	02VD 02VO 02VC 02MD 02MO 02MC 02RD 10RO	0	1	7.59178590775	None	None	None	None	1
2.7	2015_Jun_15_1401	s	s	23	1	SIC	115	ABS	2	0	02VD 02VO 10VC 02MD 02MO 02MC 02RD 02RO	0	1	4.60815000534	None	None	None	None	1
2.7	2015_Jun_15_1401	s	s	23	1	SIC	116	RC	1	1	02VD 02VO 02VC 02MD 09MO 02MC 02RD 02RO	1	0	2.29457092285	389.0	-104.0	384	-100	1
2.7	2015_Jun_15_1401	s	s	23	1	SIC	117	RC	1	2	02VD 02VO 02VC 09MD 02MO 02MC 02RD 02RO	1	0	1.83554792404	-368.0	-64.0	-360	-65	1
2.7	2015_Jun_15_1401	s	s	23	1	SIC	118	RC	1	0	02VD 02VO 02VC 02MD 02MO 09MC 02RD 02RO	1	0	2.09455609322	-368.0	-11.0	-375	-10	1
2.7	2015_Jun_15_1401	s	s	23	1	SIC	119	RC	0	1	02VD 02VO 02VC 02MD 02MO 02MC 02RD 09RO	1	0	3.50699090958	254.0	-155.0	266	-152	1
2.7	2015_Jun_15_1401	s	s	23	1	SIC	120	RC	2	2	09VD 02VO 02VC 02MD 02MO 02MC 02RD 02RO	1	0	1.51273989677	-238.0	-33.0	-243	-41	1
2.7	2015_Jun_15_1401	s	s	23	1	SIC	121	RC	2	0	02VD 02VO 09VC 02MD 02MO 02MC 02RD 02RO	1	0	3.8717880249	382.0	-198.0	378	-202	1
2.7	2015_Jun_15_1401	s	s	23	1	SIC	122	ABS	0	2	02VD 02VO 02VC 02MD 02MO 02MC 10RD 02RO	0	1	4.76666903496	None	None	None	None	1
2.7	2015_Jun_15_1401	s	s	23	1	SIC	123	ABS	1	0	02VD 02VO 02VC 02MD 02MO 10MC 02RD 02RO	0	1	5.74010586739	None	None	None	None	1
2.7	2015_Jun_15_1401	s	s	23	1	SIC	124	ABS	2	1	02VD 10VO 02VC 02MD 02MO 02MC 02RD 02RO	0	1	4.29576611519	None	None	None	None	1
2.7	2015_Jun_15_1401	s	s	23	1	SIC	125	RC	0	2	02VD 02VO 02VC 02MD 02MO 02MC 09RD 02RO	1	0	1.83560299873	80.0	387.0	78	393	1
2.7	2015_Jun_15_1401	s	s	23	1	SIC	126	ABS	1	2	02VD 02VO 02VC 10MD 02MO 02MC 02RD 02RO	0	1	3.7838909626	None	None	None	None	1
2.7	2015_Jun_15_1401	s	s	23	1	SIC	127	ABS	2	2	10VD 02VO 02VC 02MD 02MO 02MC 02RD 02RO	0	1	3.55400395393	None	None	None	None	1
2.7	2015_Jun_15_1401	s	s	23	1	SIC	128	RC	2	1	02VD 09VO 02VC 02MD 02MO 02MC 02RD 02RO	1	0	4.40164589882	-451.0	-379.0	-450	-377	1
2.7	2015_Jun_15_1401	s	s	23	1	SIC	129	ABS	0	2	02VD 02VO 02VC 02MD 02MO 02MC 10RD 02RO	0	1	4.71940588951	None	None	None	None	1
2.7	2015_Jun_15_1401	s	s	23	1	SIC	130	RC	0	1	02VD 02VO 02VC 02MD 02MO 02MC 02RD 09RO	1	0	2.7535738945	43.0	349.0	41	354	1
2.7	2015_Jun_15_1401	s	s	23	1	SIC	131	RC	1	2	02VD 02VO 02VC 09MD 02MO 02MC 02RD 02RO	1	0	2.60063910484	291.0	354.0	296	350	1
2.7	2015_Jun_15_1401	s	s	23	1	SIC	132	ABS	1	0	02VD 02VO 02VC 02MD 02MO 10MC 02RD 02RO	0	1	7.92756581306	None	None	None	None	1
2.7	2015_Jun_15_1401	s	s	23	1	SIC	133	ABS	1	1	02VD 02VO 02VC 02MD 10MO 02MC 02RD 02RO	0	1	3.53418207169	None	None	None	None	1
2.7	2015_Jun_15_1401	s	s	23	1	SIC	134	RC	1	1	02VD 02VO 02VC 02MD 09MO 02MC 02RD 02RO	1	0	1.17641782761	-293.0	326.0	-292	326	1
2.7	2015_Jun_15_1401	s	s	23	1	SIC	135	ABS	0	1	02VD 02VO 02VC 02MD 02MO 02MC 02RD 10RO	0	1	5.25628304482	None	None	None	None	1
2.7	2015_Jun_15_1401	s	s	23	1	SIC	136	RC	2	2	09VD 02VO 02VC 02MD 02MO 02MC 02RD 02RO	1	0	1.3832218647	-380.0	138.0	-370	140	1
2.7	2015_Jun_15_1401	s	s	23	1	SIC	137	ABS	2	0	02VD 02VO 10VC 02MD 02MO 02MC 02RD 02RO	0	1	6.23787689209	None	None	None	None	1
2.7	2015_Jun_15_1401	s	s	23	1	SIC	138	RC	2	1	02VD 09VO 02VC 02MD 02MO 02MC 02RD 02RO	1	0	1.90341114998	-35.0	395.0	-42	398	1
2.7	2015_Jun_15_1401	s	s	23	1	SIC	139	RC	0	2	02VD 02VO 02VC 02MD 02MO 02MC 09RD 02RO	1	0	4.84371399879	-184.0	367.0	-175	370	1
2.7	2015_Jun_15_1401	s	s	23	1	SIC	140	RC	1	0	02VD 02VO 02VC 02MD 02MO 09MC 02RD 02RO	1	0	2.6529109478	469.0	-153.0	474	-153	1
2.7	2015_Jun_15_1401	s	s	23	1	SIC	141	ABS	1	2	02VD 02VO 02VC 10MD 02MO 02MC 02RD 02RO	0	1	7.10482287407	None	None	None	None	1
2.7	2015_Jun_15_1401	s	s	23	1	SIC	142	RC	2	0	02VD 02VO 09VC 02MD 02MO 02MC 02RD 02RO	1	0	2.27635598183	528.0	-249.0	534	-250	1
2.7	2015_Jun_15_1401	s	s	23	1	SIC	143	ABS	2	1	02VD 10VO 02VC 02MD 02MO 02MC 02RD 02RO	0	1	5.75501799583	None	None	None	None	1
2.7	2015_Jun_15_1401	s	s	23	1	SIC	144	ABS	2	2	10VD 02VO 02VC 02MD 02MO 02MC 02RD 02RO	0	1	3.67843198776	None	None	None	None	1
2.7	2015_Jun_15_1401	s	s	23	1	SIC	145	ABS	1	1	02VD 02VO 02VC 02MD 10MO 02MC 02RD 02RO	0	1	4.491106987	None	None	None	None	1
2.7	2015_Jun_15_1401	s	s	23	1	SIC	146	RC	2	2	09VD 02VO 02VC 02MD 02MO 02MC 02RD 02RO	1	0	1.30335783958	-321.0	-133.0	-315	-124	1
2.7	2015_Jun_15_1401	s	s	23	1	SIC	147	ABS	0	1	02VD 02VO 02VC 02MD 02MO 02MC 02RD 10RO	0	1	5.19660282135	None	None	None	None	1
2.7	2015_Jun_15_1401	s	s	23	1	SIC	148	ABS	2	2	10VD 02VO 02VC 02MD 02MO 02MC 02RD 02RO	0	1	5.26923704147	None	None	None	None	1
2.7	2015_Jun_15_1401	s	s	23	1	SIC	149	RC	0	1	02VD 02VO 02VC 02MD 02MO 02MC 02RD 09RO	1	0	2.96041703224	-502.0	68.0	-499	61	1
2.7	2015_Jun_15_1401	s	s	23	1	SIC	150	RC	1	1	02VD 02VO 02VC 02MD 09MO 02MC 02RD 02RO	1	0	2.44181418419	-381.0	-59.0	-379	-64	1
2.7	2015_Jun_15_1401	s	s	23	1	SIC	151	RC	2	1	02VD 09VO 02VC 02MD 02MO 02MC 02RD 02RO	1	0	2.49474382401	-278.0	380.0	-270	386	1
2.7	2015_Jun_15_1401	s	s	23	1	SIC	152	ABS	2	0	02VD 02VO 10VC 02MD 02MO 02MC 02RD 02RO	0	1	3.49522089958	None	None	None	None	1
2.7	2015_Jun_15_1401	s	s	23	1	SIC	153	RC	1	2	02VD 02VO 02VC 09MD 02MO 02MC 02RD 02RO	1	0	2.60902309418	0.0	-91.0	-3	-100	1
2.7	2015_Jun_15_1401	s	s	23	1	SIC	154	ABS	1	2	02VD 02VO 02VC 10MD 02MO 02MC 02RD 02RO	0	1	4.10388803482	None	None	None	None	1
2.7	2015_Jun_15_1401	s	s	23	1	SIC	155	ABS	0	2	02VD 02VO 02VC 02MD 02MO 02MC 10RD 02RO	0	1	4.06385207176	None	None	None	None	1
2.7	2015_Jun_15_1401	s	s	23	1	SIC	156	ABS	1	0	02VD 02VO 02VC 02MD 02MO 10MC 02RD 02RO	0	1	8.61547899246	None	None	None	None	1
2.7	2015_Jun_15_1401	s	s	23	1	SIC	157	RC	1	0	02VD 02VO 02VC 02MD 02MO 09MC 02RD 02RO	1	0	4.84872603416	-155.0	305.0	-158	299	1
2.7	2015_Jun_15_1401	s	s	23	1	SIC	158	ABS	2	1	02VD 10VO 02VC 02MD 02MO 02MC 02RD 02RO	0	1	3.76595211029	None	None	None	None	1
2.7	2015_Jun_15_1401	s	s	23	1	SIC	159	RC	0	2	02VD 02VO 02VC 02MD 02MO 02MC 09RD 02RO	1	0	1.85422611237	-139.0	-169.0	-142	-178	1
2.7	2015_Jun_15_1401	s	s	23	1	SIC	160	RC	2	0	02VD 02VO 09VC 02MD 02MO 02MC 02RD 02RO	1	0	3.52545285225	-112.0	-51.0	-120	-48	1
2.7	2015_Jun_15_1401	s	s	23	1	SIC	161	RC	0	2	02VD 02VO 02VC 02MD 02MO 02MC 09RD 02RO	1	0	5.69109606743	19.0	346.0	11	347	1
2.7	2015_Jun_15_1401	s	s	23	1	SIC	162	RC	1	1	02VD 02VO 02VC 02MD 09MO 02MC 02RD 02RO	1	0	4.6016190052	-51.0	-147.0	-46	-145	1
2.7	2015_Jun_15_1401	s	s	23	1	SIC	163	ABS	2	1	02VD 10VO 02VC 02MD 02MO 02MC 02RD 02RO	0	1	3.64289999008	None	None	None	None	1
2.7	2015_Jun_15_1401	s	s	23	1	SIC	164	ABS	2	2	10VD 02VO 02VC 02MD 02MO 02MC 02RD 02RO	0	1	3.10678195953	None	None	None	None	1
2.7	2015_Jun_15_1401	s	s	23	1	SIC	165	RC	2	2	09VD 02VO 02VC 02MD 02MO 02MC 02RD 02RO	1	0	2.53039503098	353.0	-9.0	360	-5	1
2.7	2015_Jun_15_1401	s	s	23	1	SIC	166	ABS	2	0	02VD 02VO 10VC 02MD 02MO 02MC 02RD 02RO	0	1	4.40162801743	None	None	None	None	1
2.7	2015_Jun_15_1401	s	s	23	1	SIC	167	ABS	1	0	02VD 02VO 02VC 02MD 02MO 10MC 02RD 02RO	0	1	4.44850707054	None	None	None	None	1
2.7	2015_Jun_15_1401	s	s	23	1	SIC	168	RC	0	1	02VD 02VO 02VC 02MD 02MO 02MC 02RD 09RO	1	0	3.25477695465	-428.0	74.0	-428	72	1
2.7	2015_Jun_15_1401	s	s	23	1	SIC	169	ABS	1	2	02VD 02VO 02VC 10MD 02MO 02MC 02RD 02RO	0	1	5.59914588928	None	None	None	None	1
2.7	2015_Jun_15_1401	s	s	23	1	SIC	170	ABS	0	1	02VD 02VO 02VC 02MD 02MO 02MC 02RD 10RO	0	1	5.40859007835	None	None	None	None	1
2.7	2015_Jun_15_1401	s	s	23	1	SIC	171	ABS	0	2	02VD 02VO 02VC 02MD 02MO 02MC 10RD 02RO	0	1	5.52629899979	None	None	None	None	1
2.7	2015_Jun_15_1401	s	s	23	1	SIC	172	RC	2	0	02VD 02VO 09VC 02MD 02MO 02MC 02RD 02RO	1	0	9.80146002769	-500.0	-327.0	-503	-331	1
2.7	2015_Jun_15_1401	s	s	23	1	SIC	173	ABS	1	1	02VD 02VO 02VC 02MD 10MO 02MC 02RD 02RO	0	1	3.74909186363	None	None	None	None	1
2.7	2015_Jun_15_1401	s	s	23	1	SIC	174	RC	2	1	02VD 09VO 02VC 02MD 02MO 02MC 02RD 02RO	1	0	2.9890859127	226.0	-102.0	234	-98	1
2.7	2015_Jun_15_1401	s	s	23	1	SIC	175	RC	1	0	02VD 02VO 02VC 02MD 02MO 09MC 02RD 02RO	1	0	2.89497089386	-65.0	-406.0	-58	-406	1
2.7	2015_Jun_15_1401	s	s	23	1	SIC	176	RC	1	2	02VD 02VO 02VC 09MD 02MO 02MC 02RD 02RO	1	0	1.11243104935	-372.0	-390.0	-363	-392	1
2.7	2015_Jun_15_1401	s	s	23	1	SIC	177	ABS	0	1	02VD 02VO 02VC 02MD 02MO 02MC 02RD 10RO	0	1	4.47212815285	None	None	None	None	1
2.7	2015_Jun_15_1401	s	s	23	1	SIC	178	RC	1	2	02VD 02VO 02VC 09MD 02MO 02MC 02RD 02RO	1	0	1.68917012215	-174.0	374.0	-163	376	1
2.7	2015_Jun_15_1401	s	s	23	1	SIC	179	ABS	2	0	02VD 02VO 10VC 02MD 02MO 02MC 02RD 02RO	0	1	3.77494692802	None	None	None	None	1
2.7	2015_Jun_15_1401	s	s	23	1	SIC	180	RC	2	0	02VD 02VO 09VC 02MD 02MO 02MC 02RD 02RO	1	0	0.926509141922	-385.0	255.0	-388	250	1
2.7	2015_Jun_15_1401	s	s	23	1	SIC	181	ABS	2	1	02VD 10VO 02VC 02MD 02MO 02MC 02RD 02RO	0	1	2.36518192291	None	None	None	None	1
2.7	2015_Jun_15_1401	s	s	23	1	SIC	182	RC	2	2	09VD 02VO 02VC 02MD 02MO 02MC 02RD 02RO	1	0	1.88295483589	-244.0	-232.0	-240	-226	1
2.7	2015_Jun_15_1401	s	s	23	1	SIC	183	ABS	0	2	02VD 02VO 02VC 02MD 02MO 02MC 10RD 02RO	0	1	4.70759892464	None	None	None	None	1
2.7	2015_Jun_15_1401	s	s	23	1	SIC	184	ABS	1	1	02VD 02VO 02VC 02MD 10MO 02MC 02RD 02RO	0	1	3.44316482544	None	None	None	None	1
2.7	2015_Jun_15_1401	s	s	23	1	SIC	185	RC	1	0	02VD 02VO 02VC 02MD 02MO 09MC 02RD 02RO	1	0	3.19712281227	352.0	305.0	355	307	1
2.7	2015_Jun_15_1401	s	s	23	1	SIC	186	RC	1	1	02VD 02VO 02VC 02MD 09MO 02MC 02RD 02RO	1	0	1.29461407661	-52.0	163.0	-56	163	1
2.7	2015_Jun_15_1401	s	s	23	1	SIC	187	ABS	1	0	02VD 02VO 02VC 02MD 02MO 10MC 02RD 02RO	0	1	3.21958899498	None	None	None	None	1
2.7	2015_Jun_15_1401	s	s	23	1	SIC	188	RC	0	2	02VD 02VO 02VC 02MD 02MO 02MC 09RD 02RO	1	0	1.86817502975	-361.0	-372.0	-355	-373	1
2.7	2015_Jun_15_1401	s	s	23	1	SIC	189	ABS	1	2	02VD 02VO 02VC 10MD 02MO 02MC 02RD 02RO	0	1	5.28100299835	None	None	None	None	1
2.7	2015_Jun_15_1401	s	s	23	1	SIC	190	RC	0	1	02VD 02VO 02VC 02MD 02MO 02MC 02RD 09RO	1	0	4.45528388023	13.0	119.0	18	123	1
2.7	2015_Jun_15_1401	s	s	23	1	SIC	191	RC	2	1	02VD 09VO 02VC 02MD 02MO 02MC 02RD 02RO	1	0	2.88304495811	15.0	188.0	18	182	1
2.7	2015_Jun_15_1401	s	s	23	1	SIC	192	ABS	2	2	10VD 02VO 02VC 02MD 02MO 02MC 02RD 02RO	0	1	3.13637685776	None	None	None	None	1
2.7	2015_Jun_15_1401	s	s	23	1	SIC	193	ABS	2	2	10VD 02VO 02VC 02MD 02MO 02MC 02RD 02RO	0	1	2.45490789413	None	None	None	None	1
2.7	2015_Jun_15_1401	s	s	23	1	SIC	194	ABS	1	2	02VD 02VO 02VC 10MD 02MO 02MC 02RD 02RO	0	1	2.63202309608	None	None	None	None	1
2.7	2015_Jun_15_1401	s	s	23	1	SIC	195	RC	2	0	02VD 02VO 09VC 02MD 02MO 02MC 02RD 02RO	1	0	2.87913393974	449.0	244.0	449	244	1
2.7	2015_Jun_15_1401	s	s	23	1	SIC	196	RC	0	2	02VD 02VO 02VC 02MD 02MO 02MC 09RD 02RO	1	0	3.09526801109	438.0	-318.0	441	-320	1
2.7	2015_Jun_15_1401	s	s	23	1	SIC	197	ABS	0	1	02VD 02VO 02VC 02MD 02MO 02MC 02RD 10RO	0	1	5.50456809998	None	None	None	None	1
2.7	2015_Jun_15_1401	s	s	23	1	SIC	198	RC	2	1	02VD 09VO 02VC 02MD 02MO 02MC 02RD 02RO	1	0	1.03512811661	-440.0	35.0	-435	39	1
2.7	2015_Jun_15_1401	s	s	23	1	SIC	199	RC	1	0	02VD 02VO 02VC 02MD 02MO 09MC 02RD 02RO	1	0	1.76858210564	-334.0	-89.0	-329	-91	1
2.7	2015_Jun_15_1401	s	s	23	1	SIC	200	RC	1	2	02VD 02VO 02VC 09MD 02MO 02MC 02RD 02RO	1	0	2.44241213799	-6.0	265.0	-7	258	1
2.7	2015_Jun_15_1401	s	s	23	1	SIC	201	ABS	0	2	02VD 02VO 02VC 02MD 02MO 02MC 10RD 02RO	0	1	2.74813103676	None	None	None	None	1
2.7	2015_Jun_15_1401	s	s	23	1	SIC	202	ABS	2	0	02VD 02VO 10VC 02MD 02MO 02MC 02RD 02RO	0	1	4.11397504807	None	None	None	None	1
2.7	2015_Jun_15_1401	s	s	23	1	SIC	203	ABS	1	0	02VD 02VO 02VC 02MD 02MO 10MC 02RD 02RO	0	1	10.8110580444	None	None	None	None	1
2.7	2015_Jun_15_1401	s	s	23	1	SIC	204	RC	0	1	02VD 02VO 02VC 02MD 02MO 02MC 02RD 09RO	1	0	6.02308607101	413.0	-64.0	418	-69	1
2.7	2015_Jun_15_1401	s	s	23	1	SIC	205	ABS	2	1	02VD 10VO 02VC 02MD 02MO 02MC 02RD 02RO	0	1	4.89590120316	None	None	None	None	1
2.7	2015_Jun_15_1401	s	s	23	1	SIC	206	ABS	1	1	02VD 02VO 02VC 02MD 10MO 02MC 02RD 02RO	0	1	6.93274688721	None	None	None	None	1
2.7	2015_Jun_15_1401	s	s	23	1	SIC	207	RC	1	1	02VD 02VO 02VC 02MD 09MO 02MC 02RD 02RO	1	0	2.93021583557	455.0	-240.0	454	-244	1
2.7	2015_Jun_15_1401	s	s	23	1	SIC	208	RC	2	2	09VD 02VO 02VC 02MD 02MO 02MC 02RD 02RO	1	0	1.16830205917	-524.0	-144.0	-516	-140	1
2.7	2015_Jun_15_1401	s	s	23	1	SIC	209	RC	1	1	02VD 02VO 02VC 02MD 09MO 02MC 02RD 02RO	1	0	1.48243093491	317.0	94.0	313	97	1
2.7	2015_Jun_15_1401	s	s	23	1	SIC	210	RC	2	2	09VD 02VO 02VC 02MD 02MO 02MC 02RD 02RO	1	0	1.6942191124	224.0	329.0	229	332	1
2.7	2015_Jun_15_1401	s	s	23	1	SIC	211	RC	0	1	02VD 02VO 02VC 02MD 02MO 02MC 02RD 09RO	1	0	3.23210406303	-293.0	-229.0	-286	-228	1
2.7	2015_Jun_15_1401	s	s	23	1	SIC	212	RC	0	2	02VD 02VO 02VC 02MD 02MO 02MC 09RD 02RO	1	0	1.84070491791	303.0	-273.0	306	-276	1
2.7	2015_Jun_15_1401	s	s	23	1	SIC	213	ABS	0	2	02VD 02VO 02VC 02MD 02MO 02MC 10RD 02RO	0	1	18.7330341339	None	None	None	None	1
2.7	2015_Jun_15_1401	s	s	23	1	SIC	214	RC	2	1	02VD 09VO 02VC 02MD 02MO 02MC 02RD 02RO	1	0	1.97723698616	56.0	-350.0	51	-350	1
2.7	2015_Jun_15_1401	s	s	23	1	SIC	215	ABS	1	0	02VD 02VO 02VC 02MD 02MO 10MC 02RD 02RO	0	1	4.66954112053	None	None	None	None	1
2.7	2015_Jun_15_1401	s	s	23	1	SIC	216	RC	2	0	02VD 02VO 09VC 02MD 02MO 02MC 02RD 02RO	1	0	4.15437602997	438.0	134.0	436	139	1
2.7	2015_Jun_15_1401	s	s	23	1	SIC	217	ABS	1	2	02VD 02VO 02VC 10MD 02MO 02MC 02RD 02RO	0	1	5.82298207283	None	None	None	None	1
2.7	2015_Jun_15_1401	s	s	23	1	SIC	218	ABS	0	1	02VD 02VO 02VC 02MD 02MO 02MC 02RD 10RO	0	1	5.56176996231	None	None	None	None	1
2.7	2015_Jun_15_1401	s	s	23	1	SIC	219	ABS	2	2	10VD 02VO 02VC 02MD 02MO 02MC 02RD 02RO	0	1	3.2013528347	None	None	None	None	1
2.7	2015_Jun_15_1401	s	s	23	1	SIC	220	ABS	2	1	02VD 10VO 02VC 02MD 02MO 02MC 02RD 02RO	0	1	4.690928936	None	None	None	None	1
2.7	2015_Jun_15_1401	s	s	23	1	SIC	221	RC	1	2	02VD 02VO 02VC 09MD 02MO 02MC 02RD 02RO	1	0	3.28376412392	-470.0	-77.0	-471	-74	1
2.7	2015_Jun_15_1401	s	s	23	1	SIC	222	ABS	2	0	02VD 02VO 10VC 02MD 02MO 02MC 02RD 02RO	0	1	3.51879096031	None	None	None	None	1
2.7	2015_Jun_15_1401	s	s	23	1	SIC	223	ABS	1	1	02VD 02VO 02VC 02MD 10MO 02MC 02RD 02RO	0	1	4.86867403984	None	None	None	None	1
2.7	2015_Jun_15_1401	s	s	23	1	SIC	224	RC	1	0	02VD 02VO 02VC 02MD 02MO 09MC 02RD 02RO	1	0	2.79704380035	-193.0	384.0	-202	386	1
2.7	2015_Jun_15_1401	s	s	23	1	SIC	225	RC	2	1	02VD 09VO 02VC 02MD 02MO 02MC 02RD 02RO	1	0	2.28287601471	-85.0	255.0	-80	255	1
2.7	2015_Jun_15_1401	s	s	23	1	SIC	226	ABS	2	1	02VD 10VO 02VC 02MD 02MO 02MC 02RD 02RO	0	1	5.61108183861	None	None	None	None	1
2.7	2015_Jun_15_1401	s	s	23	1	SIC	227	RC	0	1	02VD 02VO 02VC 02MD 02MO 02MC 02RD 09RO	1	0	5.06069898605	-479.0	-305.0	-474	-304	1
2.7	2015_Jun_15_1401	s	s	23	1	SIC	228	ABS	2	2	10VD 02VO 02VC 02MD 02MO 02MC 02RD 02RO	0	1	3.98389697075	None	None	None	None	1
2.7	2015_Jun_15_1401	s	s	23	1	SIC	229	RC	0	2	02VD 02VO 02VC 02MD 02MO 02MC 09RD 02RO	1	0	2.89487314224	383.0	32.0	381	36	1
2.7	2015_Jun_15_1401	s	s	23	1	SIC	230	ABS	1	1	02VD 02VO 02VC 02MD 10MO 02MC 02RD 02RO	0	1	3.61293888092	None	None	None	None	1
2.7	2015_Jun_15_1401	s	s	23	1	SIC	231	RC	1	1	02VD 02VO 02VC 02MD 09MO 02MC 02RD 02RO	1	0	2.82434391975	308.0	53.0	310	55	1
2.7	2015_Jun_15_1401	s	s	23	1	SIC	232	RC	1	2	02VD 02VO 02VC 09MD 02MO 02MC 02RD 02RO	1	0	3.3145108223	333.0	147.0	335	143	1
2.7	2015_Jun_15_1401	s	s	23	1	SIC	233	ABS	0	1	02VD 02VO 02VC 02MD 02MO 02MC 02RD 10RO	0	1	5.10267901421	None	None	None	None	1
2.7	2015_Jun_15_1401	s	s	23	1	SIC	234	ABS	0	2	02VD 02VO 02VC 02MD 02MO 02MC 10RD 02RO	0	1	8.28576087952	None	None	None	None	1
2.7	2015_Jun_15_1401	s	s	23	1	SIC	235	ABS	1	2	02VD 02VO 02VC 10MD 02MO 02MC 02RD 02RO	0	1	4.15478801727	None	None	None	None	1
2.7	2015_Jun_15_1401	s	s	23	1	SIC	236	ABS	1	0	02VD 02VO 02VC 02MD 02MO 10MC 02RD 02RO	0	1	10.5993490219	None	None	None	None	1
2.7	2015_Jun_15_1401	s	s	23	1	SIC	237	RC	2	2	09VD 02VO 02VC 02MD 02MO 02MC 02RD 02RO	1	0	2.78923606873	492.0	3.0	494	3	1
2.7	2015_Jun_15_1401	s	s	23	1	SIC	238	RC	1	0	02VD 02VO 02VC 02MD 02MO 09MC 02RD 02RO	1	0	1.87761211395	-138.0	-78.0	-128	-71	1
2.7	2015_Jun_15_1401	s	s	23	1	SIC	239	RC	2	0	02VD 02VO 09VC 02MD 02MO 02MC 02RD 02RO	1	0	1.00677800179	-148.0	-22.0	-145	-21	1
2.7	2015_Jun_15_1401	s	s	23	1	SIC	240	ABS	2	0	02VD 02VO 10VC 02MD 02MO 02MC 02RD 02RO	0	1	3.30357098579	None	None	None	None	1
2.7	2015_Jun_15_1401	s	s	23	1	SIC	241	RC	1	0	02VD 02VO 02VC 02MD 02MO 09MC 02RD 02RO	1	0	4.53106093407	-492.0	-305.0	-488	-304	1
2.7	2015_Jun_15_1401	s	s	23	1	SIC	242	ABS	1	2	02VD 02VO 02VC 10MD 02MO 02MC 02RD 02RO	0	1	3.32469701767	None	None	None	None	1
2.7	2015_Jun_15_1401	s	s	23	1	SIC	243	ABS	0	1	02VD 02VO 02VC 02MD 02MO 02MC 02RD 10RO	0	1	6.98546004295	None	None	None	None	1
2.7	2015_Jun_15_1401	s	s	23	1	SIC	244	RC	2	1	02VD 09VO 02VC 02MD 02MO 02MC 02RD 02RO	1	0	1.87086486816	204.0	-68.0	199	-65	1
2.7	2015_Jun_15_1401	s	s	23	1	SIC	245	ABS	2	1	02VD 10VO 02VC 02MD 02MO 02MC 02RD 02RO	0	1	3.06655216217	None	None	None	None	1
2.7	2015_Jun_15_1401	s	s	23	1	SIC	246	RC	0	2	02VD 02VO 02VC 02MD 02MO 02MC 09RD 02RO	1	0	4.58991885185	-526.0	49.0	-517	47	1
2.7	2015_Jun_15_1401	s	s	23	1	SIC	247	RC	1	1	02VD 02VO 02VC 02MD 09MO 02MC 02RD 02RO	1	0	1.11760401726	-505.0	194.0	-511	192	1
2.7	2015_Jun_15_1401	s	s	23	1	SIC	248	ABS	1	0	02VD 02VO 02VC 02MD 02MO 10MC 02RD 02RO	0	1	4.29922986031	None	None	None	None	1
2.7	2015_Jun_15_1401	s	s	23	1	SIC	249	RC	0	1	02VD 02VO 02VC 02MD 02MO 02MC 02RD 09RO	1	0	5.87723517418	510.0	-136.0	510	-133	1
2.7	2015_Jun_15_1401	s	s	23	1	SIC	250	ABS	0	2	02VD 02VO 02VC 02MD 02MO 02MC 10RD 02RO	0	1	7.13911604881	None	None	None	None	1
2.7	2015_Jun_15_1401	s	s	23	1	SIC	251	ABS	2	2	10VD 02VO 02VC 02MD 02MO 02MC 02RD 02RO	0	1	3.0302400589	None	None	None	None	1
2.7	2015_Jun_15_1401	s	s	23	1	SIC	252	RC	1	2	02VD 02VO 02VC 09MD 02MO 02MC 02RD 02RO	1	0	2.37425804138	-242.0	-326.0	-248	-326	1
2.7	2015_Jun_15_1401	s	s	23	1	SIC	253	RC	2	0	02VD 02VO 09VC 02MD 02MO 02MC 02RD 02RO	1	0	3.66673517227	524.0	321.0	526	327	1
2.7	2015_Jun_15_1401	s	s	23	1	SIC	254	RC	2	2	09VD 02VO 02VC 02MD 02MO 02MC 02RD 02RO	1	0	0.924342870712	-176.0	15.0	-176	21	1
2.7	2015_Jun_15_1401	s	s	23	1	SIC	255	ABS	2	0	02VD 02VO 10VC 02MD 02MO 02MC 02RD 02RO	1	0	4.82529997826	None	None	3	-143	0
2.7	2015_Jun_15_1401	s	s	23	1	SIC	256	ABS	1	1	02VD 02VO 02VC 02MD 10MO 02MC 02RD 02RO	0	1	6.28514099121	None	None	None	None	1
2.7	2015_Jun_15_1401	s	s	23	1	SIC	257	RC	1	1	02VD 02VO 02VC 02MD 09MO 02MC 02RD 02RO	1	0	3.09198904037	-324.0	303.0	-325	301	1
2.7	2015_Jun_15_1401	s	s	23	1	SIC	258	ABS	2	0	02VD 02VO 10VC 02MD 02MO 02MC 02RD 02RO	0	1	2.25386404991	None	None	None	None	1
2.7	2015_Jun_15_1401	s	s	23	1	SIC	259	RC	1	0	02VD 02VO 02VC 02MD 02MO 09MC 02RD 02RO	1	0	1.45401716232	-498.0	42.0	-498	29	1
2.7	2015_Jun_15_1401	s	s	23	1	SIC	260	RC	2	2	09VD 02VO 02VC 02MD 02MO 02MC 02RD 02RO	1	0	3.21953701973	-158.0	-389.0	-155	-396	1
2.7	2015_Jun_15_1401	s	s	23	1	SIC	261	ABS	1	0	02VD 02VO 02VC 02MD 02MO 10MC 02RD 02RO	0	1	2.77249383926	None	None	None	None	1
2.7	2015_Jun_15_1401	s	s	23	1	SIC	262	RC	2	0	02VD 02VO 09VC 02MD 02MO 02MC 02RD 02RO	1	0	2.79584097862	-67.0	-407.0	-70	-406	1
2.7	2015_Jun_15_1401	s	s	23	1	SIC	263	ABS	0	1	02VD 02VO 02VC 02MD 02MO 02MC 02RD 10RO	0	1	4.26712203026	None	None	None	None	1
2.7	2015_Jun_15_1401	s	s	23	1	SIC	264	ABS	1	1	02VD 02VO 02VC 02MD 10MO 02MC 02RD 02RO	0	1	2.30637907982	None	None	None	None	1
2.7	2015_Jun_15_1401	s	s	23	1	SIC	265	RC	2	1	02VD 09VO 02VC 02MD 02MO 02MC 02RD 02RO	1	0	1.45319509506	-307.0	-277.0	-308	-277	1
2.7	2015_Jun_15_1401	s	s	23	1	SIC	266	ABS	0	2	02VD 02VO 02VC 02MD 02MO 02MC 10RD 02RO	0	1	2.2239921093	None	None	None	None	1
2.7	2015_Jun_15_1401	s	s	23	1	SIC	267	ABS	2	2	10VD 02VO 02VC 02MD 02MO 02MC 02RD 02RO	0	1	1.94818997383	None	None	None	None	1
2.7	2015_Jun_15_1401	s	s	23	1	SIC	268	RC	0	2	02VD 02VO 02VC 02MD 02MO 02MC 09RD 02RO	0	1	3.0715110302	197.0	-354.0	None	None	0
2.7	2015_Jun_15_1401	s	s	23	1	SIC	269	RC	0	1	02VD 02VO 02VC 02MD 02MO 02MC 02RD 09RO	1	0	4.62525415421	-154.0	373.0	-150	362	1
2.7	2015_Jun_15_1401	s	s	23	1	SIC	270	ABS	1	2	02VD 02VO 02VC 10MD 02MO 02MC 02RD 02RO	0	1	5.25770115852	None	None	None	None	1
2.7	2015_Jun_15_1401	s	s	23	1	SIC	271	RC	1	2	02VD 02VO 02VC 09MD 02MO 02MC 02RD 02RO	1	0	4.21982908249	19.0	-267.0	20	-272	1
2.7	2015_Jun_15_1401	s	s	23	1	SIC	272	ABS	2	1	02VD 10VO 02VC 02MD 02MO 02MC 02RD 02RO	0	1	2.6558110714	None	None	None	None	1
2.7	2015_Jun_15_1401	s	s	23	1	SIC	273	ABS	2	2	10VD 02VO 02VC 02MD 02MO 02MC 02RD 02RO	0	1	3.68392205238	None	None	None	None	1
2.7	2015_Jun_15_1401	s	s	23	1	SIC	274	ABS	1	0	02VD 02VO 02VC 02MD 02MO 10MC 02RD 02RO	0	1	3.63651895523	None	None	None	None	1
2.7	2015_Jun_15_1401	s	s	23	1	SIC	275	RC	0	1	02VD 02VO 02VC 02MD 02MO 02MC 02RD 09RO	0	1	7.10876584053	400.0	-348.0	None	None	0
2.7	2015_Jun_15_1401	s	s	23	1	SIC	276	ABS	1	1	02VD 02VO 02VC 02MD 10MO 02MC 02RD 02RO	0	1	4.30217194557	None	None	None	None	1
2.7	2015_Jun_15_1401	s	s	23	1	SIC	277	ABS	0	2	02VD 02VO 02VC 02MD 02MO 02MC 10RD 02RO	0	1	2.70147299767	None	None	None	None	1
2.7	2015_Jun_15_1401	s	s	23	1	SIC	278	RC	2	1	02VD 09VO 02VC 02MD 02MO 02MC 02RD 02RO	1	0	1.81197595596	415.0	-63.0	422	-66	1
2.7	2015_Jun_15_1401	s	s	23	1	SIC	279	ABS	2	0	02VD 02VO 10VC 02MD 02MO 02MC 02RD 02RO	0	1	1.94840598106	None	None	None	None	1
2.7	2015_Jun_15_1401	s	s	23	1	SIC	280	RC	1	2	02VD 02VO 02VC 09MD 02MO 02MC 02RD 02RO	1	0	0.917417764664	135.0	207.0	135	210	1
2.7	2015_Jun_15_1401	s	s	23	1	SIC	281	ABS	1	2	02VD 02VO 02VC 10MD 02MO 02MC 02RD 02RO	0	1	2.54183006287	None	None	None	None	1
2.7	2015_Jun_15_1401	s	s	23	1	SIC	282	RC	1	0	02VD 02VO 02VC 02MD 02MO 09MC 02RD 02RO	1	0	4.68453097343	-438.0	-317.0	-443	-318	1
2.7	2015_Jun_15_1401	s	s	23	1	SIC	283	RC	2	2	09VD 02VO 02VC 02MD 02MO 02MC 02RD 02RO	1	0	5.00855898857	19.0	181.0	21	183	1
2.7	2015_Jun_15_1401	s	s	23	1	SIC	284	ABS	0	1	02VD 02VO 02VC 02MD 02MO 02MC 02RD 10RO	0	1	3.76591396332	None	None	None	None	1
2.7	2015_Jun_15_1401	s	s	23	1	SIC	285	RC	0	2	02VD 02VO 02VC 02MD 02MO 02MC 09RD 02RO	1	0	2.48976898193	317.0	-87.0	313	-96	1
2.7	2015_Jun_15_1401	s	s	23	1	SIC	286	ABS	2	1	02VD 10VO 02VC 02MD 02MO 02MC 02RD 02RO	0	1	2.38361907005	None	None	None	None	1
2.7	2015_Jun_15_1401	s	s	23	1	SIC	287	RC	2	0	02VD 02VO 09VC 02MD 02MO 02MC 02RD 02RO	1	0	1.07050299644	-164.0	250.0	-159	255	1
2.7	2015_Jun_15_1401	s	s	23	1	SIC	288	RC	1	1	02VD 02VO 02VC 02MD 09MO 02MC 02RD 02RO	1	0	1.10081505775	-255.0	260.0	-257	258	1
2.7	2015_Jun_15_1401	s	s	23	1	SIC	289	RC	0	2	02VD 02VO 02VC 02MD 02MO 02MC 09RD 02RO	1	0	2.05924105644	223.0	-386.0	225	-388	1
2.7	2015_Jun_15_1401	s	s	23	1	SIC	290	ABS	1	0	02VD 02VO 02VC 02MD 02MO 10MC 02RD 02RO	0	1	4.48399090767	None	None	None	None	1
2.7	2015_Jun_15_1401	s	s	23	1	SIC	291	ABS	1	1	02VD 02VO 02VC 02MD 10MO 02MC 02RD 02RO	0	1	4.09066820145	None	None	None	None	1
2.7	2015_Jun_15_1401	s	s	23	1	SIC	292	ABS	2	0	02VD 02VO 10VC 02MD 02MO 02MC 02RD 02RO	0	1	3.83304715157	None	None	None	None	1
2.7	2015_Jun_15_1401	s	s	23	1	SIC	293	RC	2	0	02VD 02VO 09VC 02MD 02MO 02MC 02RD 02RO	1	0	2.25929117203	-287.0	391.0	-295	392	1
2.7	2015_Jun_15_1401	s	s	23	1	SIC	294	ABS	0	2	02VD 02VO 02VC 02MD 02MO 02MC 10RD 02RO	0	1	2.53661894798	None	None	None	None	1
2.7	2015_Jun_15_1401	s	s	23	1	SIC	295	RC	2	2	09VD 02VO 02VC 02MD 02MO 02MC 02RD 02RO	1	0	3.19589185715	409.0	35.0	418	39	1
2.7	2015_Jun_15_1401	s	s	23	1	SIC	296	RC	0	1	02VD 02VO 02VC 02MD 02MO 02MC 02RD 09RO	1	0	11.1763589382	-1.0	-120.0	-1	-120	1
2.7	2015_Jun_15_1401	s	s	23	1	SIC	297	ABS	2	1	02VD 10VO 02VC 02MD 02MO 02MC 02RD 02RO	0	1	2.19256806374	None	None	None	None	1
2.7	2015_Jun_15_1401	s	s	23	1	SIC	298	RC	1	1	02VD 02VO 02VC 02MD 09MO 02MC 02RD 02RO	1	0	3.70436096191	-33.0	-56.0	-27	-60	1
2.7	2015_Jun_15_1401	s	s	23	1	SIC	299	RC	1	0	02VD 02VO 02VC 02MD 02MO 09MC 02RD 02RO	1	0	2.08997106552	81.0	-337.0	84	-334	1
2.7	2015_Jun_15_1401	s	s	23	1	SIC	300	ABS	2	2	10VD 02VO 02VC 02MD 02MO 02MC 02RD 02RO	0	1	3.07921099663	None	None	None	None	1
2.7	2015_Jun_15_1401	s	s	23	1	SIC	301	ABS	1	2	02VD 02VO 02VC 10MD 02MO 02MC 02RD 02RO	0	1	3.21277308464	None	None	None	None	1
2.7	2015_Jun_15_1401	s	s	23	1	SIC	302	RC	1	2	02VD 02VO 02VC 09MD 02MO 02MC 02RD 02RO	1	0	3.75026702881	77.0	-160.0	77	-164	1
2.7	2015_Jun_15_1401	s	s	23	1	SIC	303	RC	2	1	02VD 09VO 02VC 02MD 02MO 02MC 02RD 02RO	1	0	3.78948020935	-281.0	384.0	-276	391	1
2.7	2015_Jun_15_1401	s	s	23	1	SIC	304	ABS	0	1	02VD 02VO 02VC 02MD 02MO 02MC 02RD 10RO	0	1	3.87892103195	None	None	None	None	1
2.7	2015_Jun_15_1401	s	s	23	1	SIC	305	ABS	2	0	02VD 02VO 10VC 02MD 02MO 02MC 02RD 02RO	0	1	2.68292593956	None	None	None	None	1
2.7	2015_Jun_15_1401	s	s	23	1	SIC	306	RC	2	0	02VD 02VO 09VC 02MD 02MO 02MC 02RD 02RO	1	0	2.05916905403	-38.0	374.0	-38	370	1
2.7	2015_Jun_15_1401	s	s	23	1	SIC	307	ABS	0	1	02VD 02VO 02VC 02MD 02MO 02MC 02RD 10RO	0	1	3.29025506973	None	None	None	None	1
2.7	2015_Jun_15_1401	s	s	23	1	SIC	308	RC	0	1	02VD 02VO 02VC 02MD 02MO 02MC 02RD 09RO	1	0	4.231123209	132.0	411.0	136	413	1
2.7	2015_Jun_15_1401	s	s	23	1	SIC	309	ABS	0	2	02VD 02VO 02VC 02MD 02MO 02MC 10RD 02RO	0	1	3.2245759964	None	None	None	None	1
2.7	2015_Jun_15_1401	s	s	23	1	SIC	310	ABS	1	1	02VD 02VO 02VC 02MD 10MO 02MC 02RD 02RO	0	1	3.10190701485	None	None	None	None	1
2.7	2015_Jun_15_1401	s	s	23	1	SIC	311	RC	2	2	09VD 02VO 02VC 02MD 02MO 02MC 02RD 02RO	1	0	1.85922002792	198.0	393.0	196	398	1
2.7	2015_Jun_15_1401	s	s	23	1	SIC	312	ABS	2	1	02VD 10VO 02VC 02MD 02MO 02MC 02RD 02RO	0	1	3.83671712875	None	None	None	None	1
2.7	2015_Jun_15_1401	s	s	23	1	SIC	313	RC	1	1	02VD 02VO 02VC 02MD 09MO 02MC 02RD 02RO	1	0	2.85982489586	398.0	-383.0	396	-382	1
2.7	2015_Jun_15_1401	s	s	23	1	SIC	314	ABS	1	2	02VD 02VO 02VC 10MD 02MO 02MC 02RD 02RO	0	1	4.67230701447	None	None	None	None	1
2.7	2015_Jun_15_1401	s	s	23	1	SIC	315	RC	0	2	02VD 02VO 02VC 02MD 02MO 02MC 09RD 02RO	1	0	4.32630801201	264.0	292.0	264	295	1
2.7	2015_Jun_15_1401	s	s	23	1	SIC	316	RC	2	1	02VD 09VO 02VC 02MD 02MO 02MC 02RD 02RO	1	0	2.23562598228	-525.0	104.0	-535	102	1
2.7	2015_Jun_15_1401	s	s	23	1	SIC	317	ABS	1	0	02VD 02VO 02VC 02MD 02MO 10MC 02RD 02RO	0	1	3.16553807259	None	None	None	None	1
2.7	2015_Jun_15_1401	s	s	23	1	SIC	318	ABS	2	2	10VD 02VO 02VC 02MD 02MO 02MC 02RD 02RO	0	1	2.71574306488	None	None	None	None	1
2.7	2015_Jun_15_1401	s	s	23	1	SIC	319	RC	1	0	02VD 02VO 02VC 02MD 02MO 09MC 02RD 02RO	1	0	1.58584904671	174.0	98.0	175	92	1
2.7	2015_Jun_15_1401	s	s	23	1	SIC	320	RC	1	2	02VD 02VO 02VC 09MD 02MO 02MC 02RD 02RO	1	0	2.26748013496	171.0	-236.0	178	-237	1
2.7	2015_Jun_15_1401	s	s	23	1	SIC	321	ABS	1	0	02VD 02VO 02VC 02MD 02MO 10MC 02RD 02RO	0	1	3.74237298965	None	None	None	None	1
2.7	2015_Jun_15_1401	s	s	23	1	SIC	322	RC	2	1	02VD 09VO 02VC 02MD 02MO 02MC 02RD 02RO	1	0	8.82730698586	446.0	-326.0	454	-323	1
2.7	2015_Jun_15_1401	s	s	23	1	SIC	323	RC	1	0	02VD 02VO 02VC 02MD 02MO 09MC 02RD 02RO	1	0	1.33577013016	-94.0	-58.0	-98	-56	1
2.7	2015_Jun_15_1401	s	s	23	1	SIC	324	ABS	2	0	02VD 02VO 10VC 02MD 02MO 02MC 02RD 02RO	0	1	3.38381481171	None	None	None	None	1
2.7	2015_Jun_15_1401	s	s	23	1	SIC	325	RC	1	2	02VD 02VO 02VC 09MD 02MO 02MC 02RD 02RO	1	0	3.31342792511	-151.0	-335.0	-156	-334	1
2.7	2015_Jun_15_1401	s	s	23	1	SIC	326	ABS	0	1	02VD 02VO 02VC 02MD 02MO 02MC 02RD 10RO	0	1	4.49054503441	None	None	None	None	1
2.7	2015_Jun_15_1401	s	s	23	1	SIC	327	ABS	0	2	02VD 02VO 02VC 02MD 02MO 02MC 10RD 02RO	0	1	9.74553203583	None	None	None	None	1
2.7	2015_Jun_15_1401	s	s	23	1	SIC	328	RC	0	2	02VD 02VO 02VC 02MD 02MO 02MC 09RD 02RO	1	0	3.43626403809	-43.0	-241.0	-43	-235	1
2.7	2015_Jun_15_1401	s	s	23	1	SIC	329	ABS	1	1	02VD 02VO 02VC 02MD 10MO 02MC 02RD 02RO	0	1	5.21356105804	None	None	None	None	1
2.7	2015_Jun_15_1401	s	s	23	1	SIC	330	RC	2	0	02VD 02VO 09VC 02MD 02MO 02MC 02RD 02RO	1	0	4.21325707436	-242.0	366.0	-239	363	1
2.7	2015_Jun_15_1401	s	s	23	1	SIC	331	ABS	1	2	02VD 02VO 02VC 10MD 02MO 02MC 02RD 02RO	1	0	13.39427495	None	None	299	153	0
2.7	2015_Jun_15_1401	s	s	23	1	SIC	332	RC	2	2	09VD 02VO 02VC 02MD 02MO 02MC 02RD 02RO	1	0	2.63107013702	82.0	321.0	86	328	1
2.7	2015_Jun_15_1401	s	s	23	1	SIC	333	RC	0	1	02VD 02VO 02VC 02MD 02MO 02MC 02RD 09RO	1	0	2.74863696098	502.0	115.0	493	113	1
2.7	2015_Jun_15_1401	s	s	23	1	SIC	334	ABS	2	2	10VD 02VO 02VC 02MD 02MO 02MC 02RD 02RO	0	1	3.83089208603	None	None	None	None	1
2.7	2015_Jun_15_1401	s	s	23	1	SIC	335	ABS	2	1	02VD 10VO 02VC 02MD 02MO 02MC 02RD 02RO	0	1	2.67935299873	None	None	None	None	1
2.7	2015_Jun_15_1401	s	s	23	1	SIC	336	RC	1	1	02VD 02VO 02VC 02MD 09MO 02MC 02RD 02RO	1	0	1.47736406326	-450.0	360.0	-453	347	1
2.7	2015_Jun_15_1401	s	s	23	1	SIC	337	ABS	1	1	02VD 02VO 02VC 02MD 10MO 02MC 02RD 02RO	0	1	4.83254599571	None	None	None	None	1
2.7	2015_Jun_15_1401	s	s	23	1	SIC	338	RC	0	1	02VD 02VO 02VC 02MD 02MO 02MC 02RD 09RO	1	0	5.18516612053	-487.0	-410.0	-486	-407	1
2.7	2015_Jun_15_1401	s	s	23	1	SIC	339	RC	1	1	02VD 02VO 02VC 02MD 09MO 02MC 02RD 02RO	1	0	6.58598399162	-107.0	31.0	-104	33	1
2.7	2015_Jun_15_1401	s	s	23	1	SIC	340	ABS	1	0	02VD 02VO 02VC 02MD 02MO 10MC 02RD 02RO	0	1	3.19585490227	None	None	None	None	1
2.7	2015_Jun_15_1401	s	s	23	1	SIC	341	ABS	0	2	02VD 02VO 02VC 02MD 02MO 02MC 10RD 02RO	0	1	2.84783506393	None	None	None	None	1
2.7	2015_Jun_15_1401	s	s	23	1	SIC	342	RC	2	1	02VD 09VO 02VC 02MD 02MO 02MC 02RD 02RO	1	0	1.11755108833	-309.0	255.0	-309	258	1
2.7	2015_Jun_15_1401	s	s	23	1	SIC	343	RC	2	0	02VD 02VO 09VC 02MD 02MO 02MC 02RD 02RO	1	0	1.7920820713	15.0	356.0	19	349	1
2.7	2015_Jun_15_1401	s	s	23	1	SIC	344	ABS	0	1	02VD 02VO 02VC 02MD 02MO 02MC 02RD 10RO	0	1	3.29025697708	None	None	None	None	1
2.7	2015_Jun_15_1401	s	s	23	1	SIC	345	RC	1	2	02VD 02VO 02VC 09MD 02MO 02MC 02RD 02RO	1	0	2.1601998806	448.0	-176.0	447	-172	1
2.7	2015_Jun_15_1401	s	s	23	1	SIC	346	ABS	2	1	02VD 10VO 02VC 02MD 02MO 02MC 02RD 02RO	0	1	2.98089385033	None	None	None	None	1
2.7	2015_Jun_15_1401	s	s	23	1	SIC	347	RC	2	2	09VD 02VO 02VC 02MD 02MO 02MC 02RD 02RO	1	0	2.324696064	91.0	243.0	96	245	1
2.7	2015_Jun_15_1401	s	s	23	1	SIC	348	ABS	2	2	10VD 02VO 02VC 02MD 02MO 02MC 02RD 02RO	0	1	3.87187099457	None	None	None	None	1
2.7	2015_Jun_15_1401	s	s	23	1	SIC	349	RC	1	0	02VD 02VO 02VC 02MD 02MO 09MC 02RD 02RO	1	0	1.51776385307	328.0	249.0	322	240	1
2.7	2015_Jun_15_1401	s	s	23	1	SIC	350	ABS	2	0	02VD 02VO 10VC 02MD 02MO 02MC 02RD 02RO	0	1	2.60628199577	None	None	None	None	1
2.7	2015_Jun_15_1401	s	s	23	1	SIC	351	RC	0	2	02VD 02VO 02VC 02MD 02MO 02MC 09RD 02RO	1	0	1.91300797462	-449.0	215.0	-445	217	1
2.7	2015_Jun_15_1401	s	s	23	1	SIC	352	ABS	1	2	02VD 02VO 02VC 10MD 02MO 02MC 02RD 02RO	0	1	3.74906110764	None	None	None	None	1
2.7	2015_Jun_15_1401	s	s	23	1	SIC	353	ABS	0	1	02VD 02VO 02VC 02MD 02MO 02MC 02RD 10RO	0	1	3.28322100639	None	None	None	None	1
2.7	2015_Jun_15_1401	s	s	23	1	SIC	354	RC	1	2	02VD 02VO 02VC 09MD 02MO 02MC 02RD 02RO	1	0	2.68304204941	436.0	300.0	439	304	1
2.7	2015_Jun_15_1401	s	s	23	1	SIC	355	RC	0	1	02VD 02VO 02VC 02MD 02MO 02MC 02RD 09RO	1	0	3.37247085571	198.0	-322.0	198	-323	1
2.7	2015_Jun_15_1401	s	s	23	1	SIC	356	RC	2	0	02VD 02VO 09VC 02MD 02MO 02MC 02RD 02RO	1	0	3.58941602707	-176.0	73.0	-182	68	1
2.7	2015_Jun_15_1401	s	s	23	1	SIC	357	ABS	1	2	02VD 02VO 02VC 10MD 02MO 02MC 02RD 02RO	0	1	6.29664802551	None	None	None	None	1
2.7	2015_Jun_15_1401	s	s	23	1	SIC	358	ABS	2	1	02VD 10VO 02VC 02MD 02MO 02MC 02RD 02RO	0	1	2.66606497765	None	None	None	None	1
2.7	2015_Jun_15_1401	s	s	23	1	SIC	359	ABS	0	2	02VD 02VO 02VC 02MD 02MO 02MC 10RD 02RO	0	1	3.71389079094	None	None	None	None	1
2.7	2015_Jun_15_1401	s	s	23	1	SIC	360	RC	2	1	02VD 09VO 02VC 02MD 02MO 02MC 02RD 02RO	1	0	1.3937869072	100.0	25.0	106	35	1
2.7	2015_Jun_15_1401	s	s	23	1	SIC	361	RC	1	1	02VD 02VO 02VC 02MD 09MO 02MC 02RD 02RO	1	0	2.45449495316	139.0	-56.0	142	-48	1
2.7	2015_Jun_15_1401	s	s	23	1	SIC	362	RC	0	2	02VD 02VO 02VC 02MD 02MO 02MC 09RD 02RO	1	0	0.964455842972	26.0	43.0	18	41	1
2.7	2015_Jun_15_1401	s	s	23	1	SIC	363	ABS	1	1	02VD 02VO 02VC 02MD 10MO 02MC 02RD 02RO	0	1	4.22001600266	None	None	None	None	1
2.7	2015_Jun_15_1401	s	s	23	1	SIC	364	RC	1	0	02VD 02VO 02VC 02MD 02MO 09MC 02RD 02RO	1	0	3.04293704033	-7.0	250.0	-9	253	1
2.7	2015_Jun_15_1401	s	s	23	1	SIC	365	RC	2	2	09VD 02VO 02VC 02MD 02MO 02MC 02RD 02RO	1	0	2.28971004486	-79.0	-226.0	-80	-217	1
2.7	2015_Jun_15_1401	s	s	23	1	SIC	366	ABS	1	0	02VD 02VO 02VC 02MD 02MO 10MC 02RD 02RO	0	1	5.60210800171	None	None	None	None	1
2.7	2015_Jun_15_1401	s	s	23	1	SIC	367	ABS	2	0	02VD 02VO 10VC 02MD 02MO 02MC 02RD 02RO	0	1	2.82459211349	None	None	None	None	1
2.7	2015_Jun_15_1401	s	s	23	1	SIC	368	ABS	2	2	10VD 02VO 02VC 02MD 02MO 02MC 02RD 02RO	0	1	3.62836003304	None	None	None	None	1
2.7	2015_Jun_15_1401	s	s	23	1	SIC	369	RC	1	1	02VD 02VO 02VC 02MD 09MO 02MC 02RD 02RO	1	0	2.51827406883	439.0	305.0	445	308	1
2.7	2015_Jun_15_1401	s	s	23	1	SIC	370	RC	0	2	02VD 02VO 02VC 02MD 02MO 02MC 09RD 02RO	1	0	3.35394906998	479.0	-181.0	478	-175	1
2.7	2015_Jun_15_1401	s	s	23	1	SIC	371	ABS	2	1	02VD 10VO 02VC 02MD 02MO 02MC 02RD 02RO	1	0	3.36568498611	None	None	72	-263	0
2.7	2015_Jun_15_1401	s	s	23	1	SIC	372	RC	1	0	02VD 02VO 02VC 02MD 02MO 09MC 02RD 02RO	1	0	2.27109003067	74.0	366.0	71	369	1
2.7	2015_Jun_15_1401	s	s	23	1	SIC	373	RC	0	1	02VD 02VO 02VC 02MD 02MO 02MC 02RD 09RO	0	1	5.40886688232	-430.0	-25.0	None	None	0
2.7	2015_Jun_15_1401	s	s	23	1	SIC	374	ABS	1	0	02VD 02VO 02VC 02MD 02MO 10MC 02RD 02RO	0	1	4.15441989899	None	None	None	None	1
2.7	2015_Jun_15_1401	s	s	23	1	SIC	375	ABS	0	1	02VD 02VO 02VC 02MD 02MO 02MC 02RD 10RO	0	1	4.79765415192	None	None	None	None	1
2.7	2015_Jun_15_1401	s	s	23	1	SIC	376	RC	2	1	02VD 09VO 02VC 02MD 02MO 02MC 02RD 02RO	1	0	0.99981880188	-193.0	-62.0	-192	-59	1
2.7	2015_Jun_15_1401	s	s	23	1	SIC	377	RC	2	0	02VD 02VO 09VC 02MD 02MO 02MC 02RD 02RO	0	1	4.20145606995	266.0	76.0	None	None	0
2.7	2015_Jun_15_1401	s	s	23	1	SIC	378	ABS	1	2	02VD 02VO 02VC 10MD 02MO 02MC 02RD 02RO	0	1	3.16072797775	None	None	None	None	1
2.7	2015_Jun_15_1401	s	s	23	1	SIC	379	ABS	2	0	02VD 02VO 10VC 02MD 02MO 02MC 02RD 02RO	0	1	2.32993888855	None	None	None	None	1
2.7	2015_Jun_15_1401	s	s	23	1	SIC	380	ABS	2	2	10VD 02VO 02VC 02MD 02MO 02MC 02RD 02RO	0	1	3.35403013229	None	None	None	None	1
2.7	2015_Jun_15_1401	s	s	23	1	SIC	381	RC	2	2	09VD 02VO 02VC 02MD 02MO 02MC 02RD 02RO	1	0	3.09865307808	-286.0	-14.0	-288	-13	1
2.7	2015_Jun_15_1401	s	s	23	1	SIC	382	ABS	1	1	02VD 02VO 02VC 02MD 10MO 02MC 02RD 02RO	0	1	3.44308686256	None	None	None	None	1
2.7	2015_Jun_15_1401	s	s	23	1	SIC	383	RC	1	2	02VD 02VO 02VC 09MD 02MO 02MC 02RD 02RO	1	0	1.87481307983	413.0	246.0	411	246	1
2.7	2015_Jun_15_1401	s	s	23	1	SIC	384	ABS	0	2	02VD 02VO 02VC 02MD 02MO 02MC 10RD 02RO	0	1	3.82208514214	None	None	None	None	1
2.7	2015_Jun_15_1401	s	s	23	1	SIC	385	ABS	1	1	02VD 02VO 02VC 02MD 10MO 02MC 02RD 02RO	0	1	3.07801103592	None	None	None	None	1
2.7	2015_Jun_15_1401	s	s	23	1	SIC	386	RC	2	2	09VD 02VO 02VC 02MD 02MO 02MC 02RD 02RO	1	0	1.27982497215	-231.0	-206.0	-233	-206	1
2.7	2015_Jun_15_1401	s	s	23	1	SIC	387	ABS	2	0	02VD 02VO 10VC 02MD 02MO 02MC 02RD 02RO	0	1	4.06016898155	None	None	None	None	1
2.7	2015_Jun_15_1401	s	s	23	1	SIC	388	ABS	2	1	02VD 10VO 02VC 02MD 02MO 02MC 02RD 02RO	0	1	2.41897988319	None	None	None	None	1
2.7	2015_Jun_15_1401	s	s	23	1	SIC	389	RC	2	1	02VD 09VO 02VC 02MD 02MO 02MC 02RD 02RO	1	0	1.79252696037	-44.0	-95.0	-48	-94	1
2.7	2015_Jun_15_1401	s	s	23	1	SIC	390	RC	1	0	02VD 02VO 02VC 02MD 02MO 09MC 02RD 02RO	1	0	1.43577313423	428.0	111.0	432	106	1
2.7	2015_Jun_15_1401	s	s	23	1	SIC	391	RC	1	1	02VD 02VO 02VC 02MD 09MO 02MC 02RD 02RO	1	0	1.21687602997	-114.0	-61.0	-114	-55	1
2.7	2015_Jun_15_1401	s	s	23	1	SIC	392	RC	0	2	02VD 02VO 02VC 02MD 02MO 02MC 09RD 02RO	1	0	2.23129606247	234.0	151.0	241	152	1
2.7	2015_Jun_15_1401	s	s	23	1	SIC	393	ABS	1	0	02VD 02VO 02VC 02MD 02MO 10MC 02RD 02RO	0	1	5.69181203842	None	None	None	None	1
2.7	2015_Jun_15_1401	s	s	23	1	SIC	394	RC	0	1	02VD 02VO 02VC 02MD 02MO 02MC 02RD 09RO	1	0	1.54172492027	77.0	125.0	71	125	1
2.7	2015_Jun_15_1401	s	s	23	1	SIC	395	ABS	0	2	02VD 02VO 02VC 02MD 02MO 02MC 10RD 02RO	0	1	3.08322310448	None	None	None	None	1
2.7	2015_Jun_15_1401	s	s	23	1	SIC	396	ABS	2	2	10VD 02VO 02VC 02MD 02MO 02MC 02RD 02RO	0	1	4.38984203339	None	None	None	None	1
2.7	2015_Jun_15_1401	s	s	23	1	SIC	397	RC	2	0	02VD 02VO 09VC 02MD 02MO 02MC 02RD 02RO	1	0	1.12432718277	27.0	5.0	24	5	1
2.7	2015_Jun_15_1401	s	s	23	1	SIC	398	ABS	0	1	02VD 02VO 02VC 02MD 02MO 02MC 02RD 10RO	0	1	3.9895260334	None	None	None	None	1
2.7	2015_Jun_15_1401	s	s	23	1	SIC	399	RC	1	2	02VD 02VO 02VC 09MD 02MO 02MC 02RD 02RO	1	0	3.08326101303	214.0	-314.0	217	-318	1
2.7	2015_Jun_15_1401	s	s	23	1	SIC	400	ABS	1	2	02VD 02VO 02VC 10MD 02MO 02MC 02RD 02RO	0	1	2.05433893204	None	None	None	None	1
2.7	2015_Jun_15_1401	s	s	23	1	SIC	401	RC	1	2	02VD 02VO 02VC 09MD 02MO 02MC 02RD 02RO	1	0	1.18865299225	-46.0	-132.0	-41	-134	1
2.7	2015_Jun_15_1401	s	s	23	1	SIC	402	RC	2	2	09VD 02VO 02VC 02MD 02MO 02MC 02RD 02RO	0	1	7.46192502975	501.0	-185.0	None	None	0
2.7	2015_Jun_15_1401	s	s	23	1	SIC	403	RC	0	1	02VD 02VO 02VC 02MD 02MO 02MC 02RD 09RO	1	0	2.32996296883	-329.0	-39.0	-325	-35	1
2.7	2015_Jun_15_1401	s	s	23	1	SIC	404	RC	1	0	02VD 02VO 02VC 02MD 02MO 09MC 02RD 02RO	1	0	3.98408102989	-109.0	-267.0	-114	-270	1
2.7	2015_Jun_15_1401	s	s	23	1	SIC	405	ABS	1	2	02VD 02VO 02VC 10MD 02MO 02MC 02RD 02RO	0	1	2.26604008675	None	None	None	None	1
2.7	2015_Jun_15_1401	s	s	23	1	SIC	406	RC	2	1	02VD 09VO 02VC 02MD 02MO 02MC 02RD 02RO	1	0	4.72631597519	-481.0	-104.0	-469	-95	1
2.7	2015_Jun_15_1401	s	s	23	1	SIC	407	RC	1	1	02VD 02VO 02VC 02MD 09MO 02MC 02RD 02RO	1	0	2.33660697937	337.0	260.0	342	260	1
2.7	2015_Jun_15_1401	s	s	23	1	SIC	408	ABS	2	2	10VD 02VO 02VC 02MD 02MO 02MC 02RD 02RO	0	1	3.73924708366	None	None	None	None	1
2.7	2015_Jun_15_1401	s	s	23	1	SIC	409	RC	2	0	02VD 02VO 09VC 02MD 02MO 02MC 02RD 02RO	1	0	0.99715089798	-175.0	184.0	-176	190	1
2.7	2015_Jun_15_1401	s	s	23	1	SIC	410	ABS	2	1	02VD 10VO 02VC 02MD 02MO 02MC 02RD 02RO	0	1	2.66594099998	None	None	None	None	1
2.7	2015_Jun_15_1401	s	s	23	1	SIC	411	ABS	2	0	02VD 02VO 10VC 02MD 02MO 02MC 02RD 02RO	0	1	2.94202804565	None	None	None	None	1
2.7	2015_Jun_15_1401	s	s	23	1	SIC	412	ABS	0	2	02VD 02VO 02VC 02MD 02MO 02MC 10RD 02RO	0	1	3.48347187042	None	None	None	None	1
2.7	2015_Jun_15_1401	s	s	23	1	SIC	413	ABS	0	1	02VD 02VO 02VC 02MD 02MO 02MC 02RD 10RO	0	1	3.8310418129	None	None	None	None	1
2.7	2015_Jun_15_1401	s	s	23	1	SIC	414	ABS	1	1	02VD 02VO 02VC 02MD 10MO 02MC 02RD 02RO	0	1	3.02442598343	None	None	None	None	1
2.7	2015_Jun_15_1401	s	s	23	1	SIC	415	RC	0	2	02VD 02VO 02VC 02MD 02MO 02MC 09RD 02RO	1	0	1.25886011124	67.0	323.0	64	323	1
2.7	2015_Jun_15_1401	s	s	23	1	SIC	416	ABS	1	0	02VD 02VO 02VC 02MD 02MO 10MC 02RD 02RO	0	1	3.8248000145	None	None	None	None	1
2.7	2015_Jun_15_1401	s	s	23	1	SIC	417	RC	0	2	02VD 02VO 02VC 02MD 02MO 02MC 09RD 02RO	1	0	2.19559001923	-538.0	138.0	-534	132	1
2.7	2015_Jun_15_1401	s	s	23	1	SIC	418	ABS	2	1	02VD 10VO 02VC 02MD 02MO 02MC 02RD 02RO	0	1	2.16060018539	None	None	None	None	1
2.7	2015_Jun_15_1401	s	s	23	1	SIC	419	RC	1	0	02VD 02VO 02VC 02MD 02MO 09MC 02RD 02RO	1	0	2.01215815544	-332.0	302.0	-337	298	1
2.7	2015_Jun_15_1401	s	s	23	1	SIC	420	RC	1	2	02VD 02VO 02VC 09MD 02MO 02MC 02RD 02RO	1	0	2.03574800491	-44.0	-386.0	-40	-388	1
2.7	2015_Jun_15_1401	s	s	23	1	SIC	421	RC	1	1	02VD 02VO 02VC 02MD 09MO 02MC 02RD 02RO	0	1	5.77870893478	-203.0	342.0	None	None	0
2.7	2015_Jun_15_1401	s	s	23	1	SIC	422	RC	2	0	02VD 02VO 09VC 02MD 02MO 02MC 02RD 02RO	1	0	2.34979605675	-128.0	398.0	-125	396	1
2.7	2015_Jun_15_1401	s	s	23	1	SIC	423	RC	2	1	02VD 09VO 02VC 02MD 02MO 02MC 02RD 02RO	1	0	2.73699998856	-426.0	376.0	-423	376	1
2.7	2015_Jun_15_1401	s	s	23	1	SIC	424	ABS	1	0	02VD 02VO 02VC 02MD 02MO 10MC 02RD 02RO	0	1	4.17793512344	None	None	None	None	1
2.7	2015_Jun_15_1401	s	s	23	1	SIC	425	ABS	1	1	02VD 02VO 02VC 02MD 10MO 02MC 02RD 02RO	0	1	2.38877606392	None	None	None	None	1
2.7	2015_Jun_15_1401	s	s	23	1	SIC	426	ABS	2	0	02VD 02VO 10VC 02MD 02MO 02MC 02RD 02RO	0	1	3.54887890816	None	None	None	None	1
2.7	2015_Jun_15_1401	s	s	23	1	SIC	427	RC	0	1	02VD 02VO 02VC 02MD 02MO 02MC 02RD 09RO	1	0	5.10780310631	499.0	-59.0	497	-59	1
2.7	2015_Jun_15_1401	s	s	23	1	SIC	428	ABS	0	2	02VD 02VO 02VC 02MD 02MO 02MC 10RD 02RO	0	1	3.75425314903	None	None	None	None	1
2.7	2015_Jun_15_1401	s	s	23	1	SIC	429	ABS	2	2	10VD 02VO 02VC 02MD 02MO 02MC 02RD 02RO	0	1	1.97151398659	None	None	None	None	1
2.7	2015_Jun_15_1401	s	s	23	1	SIC	430	RC	2	2	09VD 02VO 02VC 02MD 02MO 02MC 02RD 02RO	1	0	1.38327693939	-476.0	351.0	-478	353	1
2.7	2015_Jun_15_1401	s	s	23	1	SIC	431	ABS	1	2	02VD 02VO 02VC 10MD 02MO 02MC 02RD 02RO	0	1	1.69434404373	None	None	None	None	1
2.7	2015_Jun_15_1401	s	s	23	1	SIC	432	ABS	0	1	02VD 02VO 02VC 02MD 02MO 02MC 02RD 10RO	0	1	3.93066382408	None	None	None	None	1
2.7	2015_Jun_15_1401	s	s	23	1	SIC	433	ABS	0	1	02VD 02VO 02VC 02MD 02MO 02MC 02RD 10RO	0	1	4.33075499535	None	None	None	None	1
2.7	2015_Jun_15_1401	s	s	23	1	SIC	434	ABS	0	2	02VD 02VO 02VC 02MD 02MO 02MC 10RD 02RO	0	1	3.53948783875	None	None	None	None	1
2.7	2015_Jun_15_1401	s	s	23	1	SIC	435	RC	2	1	02VD 09VO 02VC 02MD 02MO 02MC 02RD 02RO	1	0	13.132597208	386.0	-199.0	383	-199	1
2.7	2015_Jun_15_1401	s	s	23	1	SIC	436	ABS	2	0	02VD 02VO 10VC 02MD 02MO 02MC 02RD 02RO	0	1	3.39566993713	None	None	None	None	1
2.7	2015_Jun_15_1401	s	s	23	1	SIC	437	ABS	2	2	10VD 02VO 02VC 02MD 02MO 02MC 02RD 02RO	0	1	2.23579287529	None	None	None	None	1
2.7	2015_Jun_15_1401	s	s	23	1	SIC	438	ABS	1	0	02VD 02VO 02VC 02MD 02MO 10MC 02RD 02RO	0	1	3.20762515068	None	None	None	None	1
2.7	2015_Jun_15_1401	s	s	23	1	SIC	439	ABS	1	2	02VD 02VO 02VC 10MD 02MO 02MC 02RD 02RO	0	1	2.53607702255	None	None	None	None	1
2.7	2015_Jun_15_1401	s	s	23	1	SIC	440	RC	1	2	02VD 02VO 02VC 09MD 02MO 02MC 02RD 02RO	1	0	2.02047395706	-122.0	-252.0	-121	-249	1
2.7	2015_Jun_15_1401	s	s	23	1	SIC	441	ABS	1	1	02VD 02VO 02VC 02MD 10MO 02MC 02RD 02RO	0	1	2.40053987503	None	None	None	None	1
2.7	2015_Jun_15_1401	s	s	23	1	SIC	442	RC	2	0	02VD 02VO 09VC 02MD 02MO 02MC 02RD 02RO	1	0	5.25562906265	-36.0	402.0	-31	405	1
2.7	2015_Jun_15_1401	s	s	23	1	SIC	443	RC	2	2	09VD 02VO 02VC 02MD 02MO 02MC 02RD 02RO	1	0	6.18653297424	469.0	354.0	473	360	1
2.7	2015_Jun_15_1401	s	s	23	1	SIC	444	RC	0	2	02VD 02VO 02VC 02MD 02MO 02MC 09RD 02RO	0	1	3.16063308716	-25.0	115.0	None	None	0
2.7	2015_Jun_15_1401	s	s	23	1	SIC	445	RC	0	1	02VD 02VO 02VC 02MD 02MO 02MC 02RD 09RO	1	0	4.33091187477	-486.0	-223.0	-479	-219	1
2.7	2015_Jun_15_1401	s	s	23	1	SIC	446	RC	1	0	02VD 02VO 02VC 02MD 02MO 09MC 02RD 02RO	0	1	6.24956583977	225.0	-274.0	None	None	0
2.7	2015_Jun_15_1401	s	s	23	1	SIC	447	RC	1	1	02VD 02VO 02VC 02MD 09MO 02MC 02RD 02RO	1	0	1.93846678734	451.0	74.0	446	66	1
2.7	2015_Jun_15_1401	s	s	23	1	SIC	448	ABS	2	1	02VD 10VO 02VC 02MD 02MO 02MC 02RD 02RO	0	1	3.56241202354	None	None	None	None	1
2.7	2015_Jun_15_1401	s	s	23	1	SIC	449	ABS	2	1	02VD 10VO 02VC 02MD 02MO 02MC 02RD 02RO	1	0	2.63082098961	None	None	-112	104	0
2.7	2015_Jun_15_1401	s	s	23	1	SIC	450	RC	0	1	02VD 02VO 02VC 02MD 02MO 02MC 02RD 09RO	0	1	4.83170104027	-250.0	-175.0	None	None	0
2.7	2015_Jun_15_1401	s	s	23	1	SIC	451	RC	2	1	02VD 09VO 02VC 02MD 02MO 02MC 02RD 02RO	1	0	2.68295192719	-525.0	366.0	-521	363	1
2.7	2015_Jun_15_1401	s	s	23	1	SIC	452	RC	0	2	02VD 02VO 02VC 02MD 02MO 02MC 09RD 02RO	1	0	3.52541399002	-291.0	374.0	-290	368	1
2.7	2015_Jun_15_1401	s	s	23	1	SIC	453	RC	1	2	02VD 02VO 02VC 09MD 02MO 02MC 02RD 02RO	1	0	2.16058206558	407.0	280.0	406	278	1
2.7	2015_Jun_15_1401	s	s	23	1	SIC	454	ABS	1	1	02VD 02VO 02VC 02MD 10MO 02MC 02RD 02RO	0	1	2.80755901337	None	None	None	None	1
2.7	2015_Jun_15_1401	s	s	23	1	SIC	455	ABS	1	2	02VD 02VO 02VC 10MD 02MO 02MC 02RD 02RO	0	1	2.34257006645	None	None	None	None	1
2.7	2015_Jun_15_1401	s	s	23	1	SIC	456	RC	2	0	02VD 02VO 09VC 02MD 02MO 02MC 02RD 02RO	1	0	1.97203993797	-314.0	132.0	-319	125	1
2.7	2015_Jun_15_1401	s	s	23	1	SIC	457	RC	1	0	02VD 02VO 02VC 02MD 02MO 09MC 02RD 02RO	0	1	2.70662498474	439.0	-328.0	None	None	0
2.7	2015_Jun_15_1401	s	s	23	1	SIC	458	ABS	1	0	02VD 02VO 02VC 02MD 02MO 10MC 02RD 02RO	0	1	3.08994913101	None	None	None	None	1
2.7	2015_Jun_15_1401	s	s	23	1	SIC	459	ABS	0	2	02VD 02VO 02VC 02MD 02MO 02MC 10RD 02RO	0	1	2.57710599899	None	None	None	None	1
2.7	2015_Jun_15_1401	s	s	23	1	SIC	460	ABS	2	2	10VD 02VO 02VC 02MD 02MO 02MC 02RD 02RO	0	1	2.28285813332	None	None	None	None	1
2.7	2015_Jun_15_1401	s	s	23	1	SIC	461	RC	2	2	09VD 02VO 02VC 02MD 02MO 02MC 02RD 02RO	1	0	2.17185497284	-183.0	-284.0	-178	-287	1
2.7	2015_Jun_15_1401	s	s	23	1	SIC	462	ABS	2	0	02VD 02VO 10VC 02MD 02MO 02MC 02RD 02RO	0	1	2.79512405396	None	None	None	None	1
2.7	2015_Jun_15_1401	s	s	23	1	SIC	463	RC	1	1	02VD 02VO 02VC 02MD 09MO 02MC 02RD 02RO	1	0	3.50191092491	-360.0	-245.0	-364	-242	1
2.7	2015_Jun_15_1401	s	s	23	1	SIC	464	ABS	0	1	02VD 02VO 02VC 02MD 02MO 02MC 02RD 10RO	0	1	3.27159500122	None	None	None	None	1
2.7	2015_Jun_15_1401	s	s	23	1	SIC	465	RC	2	1	02VD 09VO 02VC 02MD 02MO 02MC 02RD 02RO	1	0	5.31498789787	360.0	45.0	364	47	1
2.7	2015_Jun_15_1401	s	s	23	1	SIC	466	ABS	2	2	10VD 02VO 02VC 02MD 02MO 02MC 02RD 02RO	0	1	2.33364319801	None	None	None	None	1
2.7	2015_Jun_15_1401	s	s	23	1	SIC	467	RC	0	2	02VD 02VO 02VC 02MD 02MO 02MC 09RD 02RO	1	0	2.09456205368	11.0	-35.0	8	-43	1
2.7	2015_Jun_15_1401	s	s	23	1	SIC	468	RC	1	1	02VD 02VO 02VC 02MD 09MO 02MC 02RD 02RO	0	1	10.3104031086	-459.0	277.0	None	None	0
2.7	2015_Jun_15_1401	s	s	23	1	SIC	469	ABS	0	2	02VD 02VO 02VC 02MD 02MO 02MC 10RD 02RO	0	1	6.23251318932	None	None	None	None	1
2.7	2015_Jun_15_1401	s	s	23	1	SIC	470	ABS	2	1	02VD 10VO 02VC 02MD 02MO 02MC 02RD 02RO	0	1	3.10684704781	None	None	None	None	1
2.7	2015_Jun_15_1401	s	s	23	1	SIC	471	ABS	1	2	02VD 02VO 02VC 10MD 02MO 02MC 02RD 02RO	0	1	4.37790513039	None	None	None	None	1
2.7	2015_Jun_15_1401	s	s	23	1	SIC	472	ABS	1	0	02VD 02VO 02VC 02MD 02MO 10MC 02RD 02RO	0	1	3.78951001167	None	None	None	None	1
2.7	2015_Jun_15_1401	s	s	23	1	SIC	473	RC	2	2	09VD 02VO 02VC 02MD 02MO 02MC 02RD 02RO	0	1	2.70659899712	312.0	-364.0	None	None	0
2.7	2015_Jun_15_1401	s	s	23	1	SIC	474	RC	1	2	02VD 02VO 02VC 09MD 02MO 02MC 02RD 02RO	0	1	2.9026389122	-532.0	262.0	None	None	0
2.7	2015_Jun_15_1401	s	s	23	1	SIC	475	ABS	0	1	02VD 02VO 02VC 02MD 02MO 02MC 02RD 10RO	0	1	3.98955416679	None	None	None	None	1
2.7	2015_Jun_15_1401	s	s	23	1	SIC	476	ABS	1	1	02VD 02VO 02VC 02MD 10MO 02MC 02RD 02RO	0	1	3.11352610588	None	None	None	None	1
2.7	2015_Jun_15_1401	s	s	23	1	SIC	477	RC	1	0	02VD 02VO 02VC 02MD 02MO 09MC 02RD 02RO	0	1	3.65489912033	-171.0	-295.0	None	None	0
2.7	2015_Jun_15_1401	s	s	23	1	SIC	478	RC	2	0	02VD 02VO 09VC 02MD 02MO 02MC 02RD 02RO	1	0	2.36027693748	345.0	407.0	348	408	1
2.7	2015_Jun_15_1401	s	s	23	1	SIC	479	ABS	2	0	02VD 02VO 10VC 02MD 02MO 02MC 02RD 02RO	0	1	4.00967693329	None	None	None	None	1
2.7	2015_Jun_15_1401	s	s	23	1	SIC	480	RC	0	1	02VD 02VO 02VC 02MD 02MO 02MC 02RD 09RO	0	1	4.09557199478	-239.0	43.0	None	None	0
