Version	Date	Stimuli	Method	Subject	Session	Condition	Trial	Target	Channel1	Channel2	Distractors	LMouseButton	RMouseButton	RT	TargetX	TargetY	ResponseX	ResponseY	Correct
2.7	2015_Jun_18_1005	s	s	23	4	Capacity	1	RC	2	0	15VC 08MC	1	0	1.04692697525	376.0	-316.0	375	-316	1
2.7	2015_Jun_18_1005	s	s	23	4	Capacity	2	RC	1	0	08VC 15MC	1	0	0.529088020325	-159.0	-45.0	-160	-41	1
2.7	2015_Jun_18_1005	s	s	23	4	Capacity	3	ABS	1	0	08VC 16MC	0	1	1.92476582527	None	None	None	None	1
2.7	2015_Jun_18_1005	s	s	23	4	Capacity	4	ABS	2	0	16VC 08MC	0	1	3.12565684319	None	None	None	None	1
2.7	2015_Jun_18_1005	s	s	23	4	Capacity	5	ABS	1	0	08VC 16MC	0	1	2.40058088303	None	None	None	None	1
2.7	2015_Jun_18_1005	s	s	23	4	Capacity	6	RC	2	0	15VC 08MC	1	0	0.992630004883	-390.0	313.0	-397	318	1
2.7	2015_Jun_18_1005	s	s	23	4	Capacity	7	RC	1	0	08VC 15MC	1	0	0.952804088593	-318.0	286.0	-316	292	1
2.7	2015_Jun_18_1005	s	s	23	4	Capacity	8	ABS	2	0	16VC 08MC	0	1	1.6161570549	None	None	None	None	1
2.7	2015_Jun_18_1005	s	s	23	4	Capacity	9	RC	1	0	08VC 15MC	1	0	0.747797012329	-537.0	219.0	-535	222	1
2.7	2015_Jun_18_1005	s	s	23	4	Capacity	10	RC	2	0	15VC 08MC	1	0	0.870389938354	-524.0	-127.0	-521	-130	1
2.7	2015_Jun_18_1005	s	s	23	4	Capacity	11	ABS	2	0	16VC 08MC	0	1	2.07932806015	None	None	None	None	1
2.7	2015_Jun_18_1005	s	s	23	4	Capacity	12	ABS	1	0	08VC 16MC	0	1	2.11808300018	None	None	None	None	1
2.7	2015_Jun_18_1005	s	s	23	4	Capacity	13	RC	1	0	08VC 15MC	1	0	1.25366306305	-227.0	-399.0	-227	-400	1
2.7	2015_Jun_18_1005	s	s	23	4	Capacity	14	RC	2	0	15VC 08MC	1	0	0.993965864182	-411.0	303.0	-412	309	1
2.7	2015_Jun_18_1005	s	s	23	4	Capacity	15	ABS	1	0	08VC 16MC	0	1	1.79296994209	None	None	None	None	1
2.7	2015_Jun_18_1005	s	s	23	4	Capacity	16	ABS	2	0	16VC 08MC	0	1	1.75993514061	None	None	None	None	1
2.7	2015_Jun_18_1005	s	s	23	4	Capacity	17	RC	1	0	08VC 15MC	1	0	0.717355012894	-438.0	-88.0	-439	-82	1
2.7	2015_Jun_18_1005	s	s	23	4	Capacity	18	ABS	2	0	16VC 08MC	0	1	1.52456998825	None	None	None	None	1
2.7	2015_Jun_18_1005	s	s	23	4	Capacity	19	ABS	1	0	08VC 16MC	0	1	2.01214790344	None	None	None	None	1
2.7	2015_Jun_18_1005	s	s	23	4	Capacity	20	RC	2	0	15VC 08MC	1	0	1.30592393875	464.0	123.0	458	119	1
2.7	2015_Jun_18_1005	s	s	23	4	Capacity	21	ABS	1	0	08VC 16MC	0	1	2.48961496353	None	None	None	None	1
2.7	2015_Jun_18_1005	s	s	23	4	Capacity	22	RC	1	0	08VC 15MC	1	0	0.865103006363	-156.0	348.0	-158	350	1
2.7	2015_Jun_18_1005	s	s	23	4	Capacity	23	RC	2	0	15VC 08MC	1	0	1.85655283928	-445.0	371.0	-440	368	1
2.7	2015_Jun_18_1005	s	s	23	4	Capacity	24	ABS	2	0	16VC 08MC	0	1	2.83103108406	None	None	None	None	1
2.7	2015_Jun_18_1005	s	s	23	4	Capacity	25	ABS	2	0	16VC 08MC	1	0	0.738281965256	None	None	514	18	0
2.7	2015_Jun_18_1005	s	s	23	4	Capacity	26	ABS	1	0	08VC 16MC	0	1	2.14160895348	None	None	None	None	1
2.7	2015_Jun_18_1005	s	s	23	4	Capacity	27	RC	1	0	08VC 15MC	1	0	0.795153141022	269.0	-30.0	266	-32	1
2.7	2015_Jun_18_1005	s	s	23	4	Capacity	28	RC	2	0	15VC 08MC	1	0	1.49423503876	238.0	-201.0	242	-200	1
2.7	2015_Jun_18_1005	s	s	23	4	Capacity	29	RC	1	0	08VC 15MC	1	0	0.653117895126	-275.0	250.0	-281	249	1
2.7	2015_Jun_18_1005	s	s	23	4	Capacity	30	ABS	1	0	08VC 16MC	0	1	4.89203310013	None	None	None	None	1
2.7	2015_Jun_18_1005	s	s	23	4	Capacity	31	RC	2	0	15VC 08MC	1	0	0.887701034546	524.0	188.0	522	186	1
2.7	2015_Jun_18_1005	s	s	23	4	Capacity	32	ABS	2	0	16VC 08MC	0	1	3.16613888741	None	None	None	None	1
2.7	2015_Jun_18_1005	s	s	23	4	Capacity	33	ABS	2	0	16VC 08MC	0	1	2.76536798477	None	None	None	None	1
2.7	2015_Jun_18_1005	s	s	23	4	Capacity	34	RC	1	0	08VC 15MC	1	0	2.3248360157	-532.0	-325.0	-533	-326	1
2.7	2015_Jun_18_1005	s	s	23	4	Capacity	35	ABS	1	0	08VC 16MC	0	1	2.8900270462	None	None	None	None	1
2.7	2015_Jun_18_1005	s	s	23	4	Capacity	36	RC	2	0	15VC 08MC	1	0	1.61196303368	-198.0	-394.0	-197	-398	1
2.7	2015_Jun_18_1005	s	s	23	4	Capacity	37	RC	1	0	08VC 15MC	1	0	0.835108995438	-488.0	-143.0	-486	-143	1
2.7	2015_Jun_18_1005	s	s	23	4	Capacity	38	ABS	2	0	16VC 08MC	0	1	1.85909080505	None	None	None	None	1
2.7	2015_Jun_18_1005	s	s	23	4	Capacity	39	RC	2	0	15VC 08MC	1	0	0.854765892029	-370.0	-385.0	-368	-389	1
2.7	2015_Jun_18_1005	s	s	23	4	Capacity	40	ABS	1	0	08VC 16MC	0	1	2.50651097298	None	None	None	None	1
2.7	2015_Jun_18_1005	s	s	23	4	Capacity	41	RC	2	0	15VC 08MC	1	0	0.736103057861	-519.0	332.0	-520	329	1
2.7	2015_Jun_18_1005	s	s	23	4	Capacity	42	ABS	1	0	08VC 16MC	0	1	1.55309295654	None	None	None	None	1
2.7	2015_Jun_18_1005	s	s	23	4	Capacity	43	ABS	2	0	16VC 08MC	0	1	1.98854708672	None	None	None	None	1
2.7	2015_Jun_18_1005	s	s	23	4	Capacity	44	RC	1	0	08VC 15MC	1	0	1.54750084877	-418.0	392.0	-421	396	1
2.7	2015_Jun_18_1005	s	s	23	4	Capacity	45	RC	2	0	15VC 08MC	1	0	1.21224498749	168.0	-2.0	173	-2	1
2.7	2015_Jun_18_1005	s	s	23	4	Capacity	46	ABS	1	0	08VC 16MC	0	1	1.93913793564	None	None	None	None	1
2.7	2015_Jun_18_1005	s	s	23	4	Capacity	47	ABS	2	0	16VC 08MC	0	1	1.47735500336	None	None	None	None	1
2.7	2015_Jun_18_1005	s	s	23	4	Capacity	48	RC	1	0	08VC 15MC	1	0	0.740938901901	-290.0	162.0	-289	153	1
2.7	2015_Jun_18_1005	s	s	23	4	Capacity	49	RC	2	0	15VC 08MC	1	0	0.70575594902	55.0	295.0	62	294	1
2.7	2015_Jun_18_1005	s	s	23	4	Capacity	50	ABS	1	0	08VC 16MC	0	1	1.75943994522	None	None	None	None	1
2.7	2015_Jun_18_1005	s	s	23	4	Capacity	51	ABS	2	0	16VC 08MC	0	1	2.05285000801	None	None	None	None	1
2.7	2015_Jun_18_1005	s	s	23	4	Capacity	52	RC	1	0	08VC 15MC	1	0	0.665779829025	55.0	2.0	58	3	1
2.7	2015_Jun_18_1005	s	s	23	4	Capacity	53	RC	1	0	08VC 15MC	1	0	1.43064188957	241.0	-30.0	242	-23	1
2.7	2015_Jun_18_1005	s	s	23	4	Capacity	54	RC	2	0	15VC 08MC	1	0	0.641938924789	133.0	340.0	141	345	1
2.7	2015_Jun_18_1005	s	s	23	4	Capacity	55	ABS	2	0	16VC 08MC	0	1	1.59656310081	None	None	None	None	1
2.7	2015_Jun_18_1005	s	s	23	4	Capacity	56	ABS	1	0	08VC 16MC	0	1	1.10051107407	None	None	None	None	1
2.7	2015_Jun_18_1005	s	s	23	4	Capacity	57	RC	2	0	15VC 08MC	1	0	0.717430830002	-458.0	396.0	-466	402	1
2.7	2015_Jun_18_1005	s	s	23	4	Capacity	58	RC	1	0	08VC 15MC	1	0	1.23291492462	394.0	213.0	396	216	1
2.7	2015_Jun_18_1005	s	s	23	4	Capacity	59	ABS	2	0	16VC 08MC	0	1	1.52953004837	None	None	None	None	1
2.7	2015_Jun_18_1005	s	s	23	4	Capacity	60	ABS	1	0	08VC 16MC	0	1	2.04747509956	None	None	None	None	1
2.7	2015_Jun_18_1005	s	s	23	4	Capacity	61	ABS	2	0	16VC 08MC	0	1	1.25881004333	None	None	None	None	1
2.7	2015_Jun_18_1005	s	s	23	4	Capacity	62	RC	1	0	08VC 15MC	1	0	1.33626103401	-8.0	-302.0	-12	-306	1
2.7	2015_Jun_18_1005	s	s	23	4	Capacity	63	RC	2	0	15VC 08MC	1	0	2.73012304306	170.0	260.0	167	269	1
2.7	2015_Jun_18_1005	s	s	23	4	Capacity	64	ABS	1	0	08VC 16MC	0	1	1.53870201111	None	None	None	None	1
2.7	2015_Jun_18_1005	s	s	23	4	Capacity	1	RC	0	2	15RD 08RO	1	0	1.55999994278	180.0	146.0	182	145	1
2.7	2015_Jun_18_1005	s	s	23	4	Capacity	2	ABS	0	1	08RD 16RO	0	1	10.3645951748	None	None	None	None	1
2.7	2015_Jun_18_1005	s	s	23	4	Capacity	3	ABS	0	2	16RD 08RO	0	1	8.11691403389	None	None	None	None	1
2.7	2015_Jun_18_1005	s	s	23	4	Capacity	4	RC	0	1	08RD 15RO	1	0	5.6326110363	154.0	-305.0	162	-308	1
2.7	2015_Jun_18_1005	s	s	23	4	Capacity	5	RC	0	2	15RD 08RO	1	0	1.00679898262	-81.0	-197.0	-81	-199	1
2.7	2015_Jun_18_1005	s	s	23	4	Capacity	6	RC	0	1	08RD 15RO	1	0	1.49064993858	505.0	-109.0	503	-114	1
2.7	2015_Jun_18_1005	s	s	23	4	Capacity	7	ABS	0	1	08RD 16RO	0	1	8.84675097466	None	None	None	None	1
2.7	2015_Jun_18_1005	s	s	23	4	Capacity	8	ABS	0	2	16RD 08RO	0	1	2.36566305161	None	None	None	None	1
2.7	2015_Jun_18_1005	s	s	23	4	Capacity	9	ABS	0	1	08RD 16RO	0	1	4.56049799919	None	None	None	None	1
2.7	2015_Jun_18_1005	s	s	23	4	Capacity	10	ABS	0	2	16RD 08RO	0	1	4.21999001503	None	None	None	None	1
2.7	2015_Jun_18_1005	s	s	23	4	Capacity	11	RC	0	2	15RD 08RO	1	0	1.79498100281	495.0	254.0	489	252	1
2.7	2015_Jun_18_1005	s	s	23	4	Capacity	12	RC	0	1	08RD 15RO	1	0	1.8356089592	332.0	-365.0	326	-368	1
2.7	2015_Jun_18_1005	s	s	23	4	Capacity	13	RC	0	2	15RD 08RO	1	0	2.9393389225	-436.0	-344.0	-440	-348	1
2.7	2015_Jun_18_1005	s	s	23	4	Capacity	14	ABS	0	1	08RD 16RO	0	1	6.43782687187	None	None	None	None	1
2.7	2015_Jun_18_1005	s	s	23	4	Capacity	15	ABS	0	2	16RD 08RO	0	1	5.70815992355	None	None	None	None	1
2.7	2015_Jun_18_1005	s	s	23	4	Capacity	16	RC	0	1	08RD 15RO	1	0	2.31816601753	-482.0	-290.0	-488	-297	1
2.7	2015_Jun_18_1005	s	s	23	4	Capacity	17	RC	0	1	08RD 15RO	1	0	1.6795759201	219.0	-306.0	218	-315	1
2.7	2015_Jun_18_1005	s	s	23	4	Capacity	18	RC	0	2	15RD 08RO	1	0	1.77665901184	348.0	-1.0	350	1	1
2.7	2015_Jun_18_1005	s	s	23	4	Capacity	19	ABS	0	1	08RD 16RO	0	1	8.57504677773	None	None	None	None	1
2.7	2015_Jun_18_1005	s	s	23	4	Capacity	20	ABS	0	2	16RD 08RO	0	1	6.20925092697	None	None	None	None	1
2.7	2015_Jun_18_1005	s	s	23	4	Capacity	21	ABS	0	2	16RD 08RO	0	1	4.99635791779	None	None	None	None	1
2.7	2015_Jun_18_1005	s	s	23	4	Capacity	22	ABS	0	1	08RD 16RO	0	1	8.00028896332	None	None	None	None	1
2.7	2015_Jun_18_1005	s	s	23	4	Capacity	23	RC	0	1	08RD 15RO	1	0	2.50282287598	-399.0	-170.0	-389	-169	1
2.7	2015_Jun_18_1005	s	s	23	4	Capacity	24	RC	0	2	15RD 08RO	1	0	1.01164889336	109.0	47.0	112	49	1
2.7	2015_Jun_18_1005	s	s	23	4	Capacity	25	ABS	0	2	16RD 08RO	0	1	5.66143894196	None	None	None	None	1
2.7	2015_Jun_18_1005	s	s	23	4	Capacity	26	ABS	0	1	08RD 16RO	0	1	7.22651314735	None	None	None	None	1
2.7	2015_Jun_18_1005	s	s	23	4	Capacity	27	RC	0	1	08RD 15RO	1	0	4.68408298492	-460.0	-29.0	-460	-26	1
2.7	2015_Jun_18_1005	s	s	23	4	Capacity	28	RC	0	2	15RD 08RO	1	0	2.04733610153	512.0	-284.0	503	-288	1
2.7	2015_Jun_18_1005	s	s	23	4	Capacity	29	RC	0	1	08RD 15RO	1	0	2.22398304939	-158.0	-375.0	-164	-384	1
2.7	2015_Jun_18_1005	s	s	23	4	Capacity	30	ABS	0	1	08RD 16RO	0	1	9.85831904411	None	None	None	None	1
2.7	2015_Jun_18_1005	s	s	23	4	Capacity	31	RC	0	2	15RD 08RO	1	0	1.98857092857	314.0	388.0	314	395	1
2.7	2015_Jun_18_1005	s	s	23	4	Capacity	32	ABS	0	2	16RD 08RO	0	1	5.00193285942	None	None	None	None	1
2.7	2015_Jun_18_1005	s	s	23	4	Capacity	33	RC	0	1	08RD 15RO	1	0	2.30641293526	-433.0	-34.0	-433	-33	1
2.7	2015_Jun_18_1005	s	s	23	4	Capacity	34	ABS	0	2	16RD 08RO	0	1	6.30345392227	None	None	None	None	1
2.7	2015_Jun_18_1005	s	s	23	4	Capacity	35	RC	0	2	15RD 08RO	1	0	0.935328960419	-58.0	-97.0	-65	-95	1
2.7	2015_Jun_18_1005	s	s	23	4	Capacity	36	ABS	0	1	08RD 16RO	0	1	7.64512395859	None	None	None	None	1
2.7	2015_Jun_18_1005	s	s	23	4	Capacity	37	ABS	0	2	16RD 08RO	0	1	5.28465199471	None	None	None	None	1
2.7	2015_Jun_18_1005	s	s	23	4	Capacity	38	RC	0	1	08RD 15RO	1	0	1.19712591171	-408.0	176.0	-405	175	1
2.7	2015_Jun_18_1005	s	s	23	4	Capacity	39	RC	0	2	15RD 08RO	1	0	2.97176504135	466.0	-372.0	465	-369	1
2.7	2015_Jun_18_1005	s	s	23	4	Capacity	40	ABS	0	1	08RD 16RO	0	1	7.98846411705	None	None	None	None	1
2.7	2015_Jun_18_1005	s	s	23	4	Capacity	41	ABS	0	1	08RD 16RO	0	1	7.71444416046	None	None	None	None	1
2.7	2015_Jun_18_1005	s	s	23	4	Capacity	42	ABS	0	2	16RD 08RO	0	1	5.54330801964	None	None	None	None	1
2.7	2015_Jun_18_1005	s	s	23	4	Capacity	43	RC	0	1	08RD 15RO	1	0	1.80027914047	200.0	-32.0	200	-31	1
2.7	2015_Jun_18_1005	s	s	23	4	Capacity	44	RC	0	2	15RD 08RO	1	0	2.07094812393	432.0	399.0	434	405	1
2.7	2015_Jun_18_1005	s	s	23	4	Capacity	45	RC	0	2	15RD 08RO	1	0	0.961229085922	-141.0	-147.0	-140	-139	1
2.7	2015_Jun_18_1005	s	s	23	4	Capacity	46	ABS	0	2	16RD 08RO	0	1	4.84887003899	None	None	None	None	1
2.7	2015_Jun_18_1005	s	s	23	4	Capacity	47	ABS	0	1	08RD 16RO	0	1	8.66936683655	None	None	None	None	1
2.7	2015_Jun_18_1005	s	s	23	4	Capacity	48	RC	0	1	08RD 15RO	1	0	5.51981401443	249.0	226.0	241	235	1
2.7	2015_Jun_18_1005	s	s	23	4	Capacity	49	RC	0	2	15RD 08RO	1	0	1.07056283951	-305.0	-57.0	-310	-55	1
2.7	2015_Jun_18_1005	s	s	23	4	Capacity	50	ABS	0	2	16RD 08RO	0	1	3.35029196739	None	None	None	None	1
2.7	2015_Jun_18_1005	s	s	23	4	Capacity	51	RC	0	1	08RD 15RO	1	0	2.08909893036	-78.0	392.0	-71	391	1
2.7	2015_Jun_18_1005	s	s	23	4	Capacity	52	ABS	0	1	08RD 16RO	0	1	7.02303600311	None	None	None	None	1
2.7	2015_Jun_18_1005	s	s	23	4	Capacity	53	ABS	0	1	08RD 16RO	0	1	6.5203139782	None	None	None	None	1
2.7	2015_Jun_18_1005	s	s	23	4	Capacity	54	ABS	0	2	16RD 08RO	0	1	4.95506501198	None	None	None	None	1
2.7	2015_Jun_18_1005	s	s	23	4	Capacity	55	RC	0	1	08RD 15RO	1	0	4.45347905159	120.0	333.0	121	340	1
2.7	2015_Jun_18_1005	s	s	23	4	Capacity	56	RC	0	2	15RD 08RO	1	0	1.79607510567	46.0	-367.0	48	-366	1
2.7	2015_Jun_18_1005	s	s	23	4	Capacity	57	ABS	0	1	08RD 16RO	0	1	8.51634502411	None	None	None	None	1
2.7	2015_Jun_18_1005	s	s	23	4	Capacity	58	RC	0	2	15RD 08RO	1	0	1.33885908127	-145.0	-244.0	-140	-241	1
2.7	2015_Jun_18_1005	s	s	23	4	Capacity	59	RC	0	1	08RD 15RO	1	0	4.0221619606	487.0	212.0	487	207	1
2.7	2015_Jun_18_1005	s	s	23	4	Capacity	60	ABS	0	2	16RD 08RO	0	1	2.66668796539	None	None	None	None	1
2.7	2015_Jun_18_1005	s	s	23	4	Capacity	61	ABS	0	1	08RD 16RO	0	1	6.06119513512	None	None	None	None	1
2.7	2015_Jun_18_1005	s	s	23	4	Capacity	62	ABS	0	2	16RD 08RO	0	1	2.48007512093	None	None	None	None	1
2.7	2015_Jun_18_1005	s	s	23	4	Capacity	63	RC	0	1	08RD 15RO	1	0	1.86578297615	315.0	205.0	311	204	1
2.7	2015_Jun_18_1005	s	s	23	4	Capacity	64	RC	0	2	15RD 08RO	1	0	2.28291296959	414.0	-165.0	415	-166	1
2.7	2015_Jun_18_1005	s	s	23	4	SIC	1	RC	1	2	02VD 02VO 02VC 09MD 02MO 02MC 02RD 02RO	1	0	1.47699999809	502.0	179.0	507	176	1
2.7	2015_Jun_18_1005	s	s	23	4	SIC	2	RC	0	2	02VD 02VO 02VC 02MD 02MO 02MC 09RD 02RO	1	0	2.9895260334	122.0	73.0	124	72	1
2.7	2015_Jun_18_1005	s	s	23	4	SIC	3	ABS	2	0	02VD 02VO 10VC 02MD 02MO 02MC 02RD 02RO	0	1	5.42575502396	None	None	None	None	1
2.7	2015_Jun_18_1005	s	s	23	4	SIC	4	RC	2	0	02VD 02VO 09VC 02MD 02MO 02MC 02RD 02RO	1	0	1.28237891197	-211.0	-253.0	-212	-254	1
2.7	2015_Jun_18_1005	s	s	23	4	SIC	5	ABS	0	2	02VD 02VO 02VC 02MD 02MO 02MC 10RD 02RO	0	1	5.22550415993	None	None	None	None	1
2.7	2015_Jun_18_1005	s	s	23	4	SIC	6	ABS	0	1	02VD 02VO 02VC 02MD 02MO 02MC 02RD 10RO	0	1	6.6262409687	None	None	None	None	1
2.7	2015_Jun_18_1005	s	s	23	4	SIC	7	ABS	1	0	02VD 02VO 02VC 02MD 02MO 10MC 02RD 02RO	0	1	8.90966296196	None	None	None	None	1
2.7	2015_Jun_18_1005	s	s	23	4	SIC	8	ABS	2	2	10VD 02VO 02VC 02MD 02MO 02MC 02RD 02RO	0	1	7.16795611382	None	None	None	None	1
2.7	2015_Jun_18_1005	s	s	23	4	SIC	9	RC	2	2	09VD 02VO 02VC 02MD 02MO 02MC 02RD 02RO	1	0	1.79544305801	435.0	259.0	433	267	1
2.7	2015_Jun_18_1005	s	s	23	4	SIC	10	RC	0	1	02VD 02VO 02VC 02MD 02MO 02MC 02RD 09RO	1	0	2.4005651474	168.0	-280.0	169	-288	1
2.7	2015_Jun_18_1005	s	s	23	4	SIC	11	ABS	1	2	02VD 02VO 02VC 10MD 02MO 02MC 02RD 02RO	0	1	3.80998301506	None	None	None	None	1
2.7	2015_Jun_18_1005	s	s	23	4	SIC	12	ABS	2	1	02VD 10VO 02VC 02MD 02MO 02MC 02RD 02RO	0	1	2.5714931488	None	None	None	None	1
2.7	2015_Jun_18_1005	s	s	23	4	SIC	13	ABS	1	1	02VD 02VO 02VC 02MD 10MO 02MC 02RD 02RO	0	1	5.24385786057	None	None	None	None	1
2.7	2015_Jun_18_1005	s	s	23	4	SIC	14	RC	1	1	02VD 02VO 02VC 02MD 09MO 02MC 02RD 02RO	1	0	1.70026683807	282.0	253.0	288	257	1
2.7	2015_Jun_18_1005	s	s	23	4	SIC	15	RC	1	0	02VD 02VO 02VC 02MD 02MO 09MC 02RD 02RO	1	0	1.31270885468	397.0	138.0	395	138	1
2.7	2015_Jun_18_1005	s	s	23	4	SIC	16	RC	2	1	02VD 09VO 02VC 02MD 02MO 02MC 02RD 02RO	1	0	1.97094798088	457.0	-261.0	460	-266	1
2.7	2015_Jun_18_1005	s	s	23	4	SIC	17	RC	0	1	02VD 02VO 02VC 02MD 02MO 02MC 02RD 09RO	1	0	2.04743695259	28.0	-262.0	26	-261	1
2.7	2015_Jun_18_1005	s	s	23	4	SIC	18	ABS	2	1	02VD 10VO 02VC 02MD 02MO 02MC 02RD 02RO	0	1	4.46643686295	None	None	None	None	1
2.7	2015_Jun_18_1005	s	s	23	4	SIC	19	RC	0	2	02VD 02VO 02VC 02MD 02MO 02MC 09RD 02RO	1	0	1.45369315147	232.0	65.0	233	63	1
2.7	2015_Jun_18_1005	s	s	23	4	SIC	20	RC	1	2	02VD 02VO 02VC 09MD 02MO 02MC 02RD 02RO	1	0	1.41866493225	223.0	-179.0	218	-178	1
2.7	2015_Jun_18_1005	s	s	23	4	SIC	21	ABS	1	2	02VD 02VO 02VC 10MD 02MO 02MC 02RD 02RO	0	1	6.73933792114	None	None	None	None	1
2.7	2015_Jun_18_1005	s	s	23	4	SIC	22	RC	1	0	02VD 02VO 02VC 02MD 02MO 09MC 02RD 02RO	1	0	0.756354093552	-47.0	182.0	-51	184	1
2.7	2015_Jun_18_1005	s	s	23	4	SIC	23	ABS	2	0	02VD 02VO 10VC 02MD 02MO 02MC 02RD 02RO	0	1	5.51490402222	None	None	None	None	1
2.7	2015_Jun_18_1005	s	s	23	4	SIC	24	RC	2	0	02VD 02VO 09VC 02MD 02MO 02MC 02RD 02RO	1	0	1.24218988419	351.0	218.0	351	217	1
2.7	2015_Jun_18_1005	s	s	23	4	SIC	25	ABS	2	2	10VD 02VO 02VC 02MD 02MO 02MC 02RD 02RO	0	1	3.66000914574	None	None	None	None	1
2.7	2015_Jun_18_1005	s	s	23	4	SIC	26	ABS	0	2	02VD 02VO 02VC 02MD 02MO 02MC 10RD 02RO	0	1	3.53074002266	None	None	None	None	1
2.7	2015_Jun_18_1005	s	s	23	4	SIC	27	ABS	1	1	02VD 02VO 02VC 02MD 10MO 02MC 02RD 02RO	0	1	6.34410905838	None	None	None	None	1
2.7	2015_Jun_18_1005	s	s	23	4	SIC	28	RC	1	1	02VD 02VO 02VC 02MD 09MO 02MC 02RD 02RO	1	0	1.20039200783	128.0	-28.0	131	-20	1
2.7	2015_Jun_18_1005	s	s	23	4	SIC	29	RC	2	1	02VD 09VO 02VC 02MD 02MO 02MC 02RD 02RO	1	0	2.79748892784	445.0	239.0	446	240	1
2.7	2015_Jun_18_1005	s	s	23	4	SIC	30	ABS	1	0	02VD 02VO 02VC 02MD 02MO 10MC 02RD 02RO	0	1	4.70288610458	None	None	None	None	1
2.7	2015_Jun_18_1005	s	s	23	4	SIC	31	RC	2	2	09VD 02VO 02VC 02MD 02MO 02MC 02RD 02RO	1	0	1.79599690437	207.0	-325.0	206	-323	1
2.7	2015_Jun_18_1005	s	s	23	4	SIC	32	ABS	0	1	02VD 02VO 02VC 02MD 02MO 02MC 02RD 10RO	0	1	5.51974177361	None	None	None	None	1
2.7	2015_Jun_18_1005	s	s	23	4	SIC	33	RC	2	0	02VD 02VO 09VC 02MD 02MO 02MC 02RD 02RO	1	0	0.867626905441	-345.0	72.0	-344	68	1
2.7	2015_Jun_18_1005	s	s	23	4	SIC	34	RC	0	1	02VD 02VO 02VC 02MD 02MO 02MC 02RD 09RO	1	0	2.31801891327	-487.0	332.0	-481	335	1
2.7	2015_Jun_18_1005	s	s	23	4	SIC	35	RC	2	2	09VD 02VO 02VC 02MD 02MO 02MC 02RD 02RO	1	0	1.16086292267	-205.0	-253.0	-206	-253	1
2.7	2015_Jun_18_1005	s	s	23	4	SIC	36	ABS	1	1	02VD 02VO 02VC 02MD 10MO 02MC 02RD 02RO	0	1	5.63489794731	None	None	None	None	1
2.7	2015_Jun_18_1005	s	s	23	4	SIC	37	ABS	0	1	02VD 02VO 02VC 02MD 02MO 02MC 02RD 10RO	0	1	9.18699407578	None	None	None	None	1
2.7	2015_Jun_18_1005	s	s	23	4	SIC	38	RC	0	2	02VD 02VO 02VC 02MD 02MO 02MC 09RD 02RO	1	0	3.0832760334	-229.0	345.0	-226	347	1
2.7	2015_Jun_18_1005	s	s	23	4	SIC	39	ABS	2	0	02VD 02VO 10VC 02MD 02MO 02MC 02RD 02RO	0	1	3.42459011078	None	None	None	None	1
2.7	2015_Jun_18_1005	s	s	23	4	SIC	40	RC	1	2	02VD 02VO 02VC 09MD 02MO 02MC 02RD 02RO	1	0	0.888736009598	-502.0	285.0	-506	286	1
2.7	2015_Jun_18_1005	s	s	23	4	SIC	41	ABS	1	0	02VD 02VO 02VC 02MD 02MO 10MC 02RD 02RO	0	1	4.87240409851	None	None	None	None	1
2.7	2015_Jun_18_1005	s	s	23	4	SIC	42	RC	1	0	02VD 02VO 02VC 02MD 02MO 09MC 02RD 02RO	1	0	1.05868291855	-166.0	204.0	-166	204	1
2.7	2015_Jun_18_1005	s	s	23	4	SIC	43	ABS	1	2	02VD 02VO 02VC 10MD 02MO 02MC 02RD 02RO	0	1	3.92619776726	None	None	None	None	1
2.7	2015_Jun_18_1005	s	s	23	4	SIC	44	RC	2	1	02VD 09VO 02VC 02MD 02MO 02MC 02RD 02RO	1	0	1.02715802193	-186.0	382.0	-192	386	1
2.7	2015_Jun_18_1005	s	s	23	4	SIC	45	RC	1	1	02VD 02VO 02VC 02MD 09MO 02MC 02RD 02RO	1	0	0.705705881119	-226.0	228.0	-221	232	1
2.7	2015_Jun_18_1005	s	s	23	4	SIC	46	ABS	0	2	02VD 02VO 02VC 02MD 02MO 02MC 10RD 02RO	0	1	3.47999787331	None	None	None	None	1
2.7	2015_Jun_18_1005	s	s	23	4	SIC	47	ABS	2	1	02VD 10VO 02VC 02MD 02MO 02MC 02RD 02RO	0	1	5.87998080254	None	None	None	None	1
2.7	2015_Jun_18_1005	s	s	23	4	SIC	48	ABS	2	2	10VD 02VO 02VC 02MD 02MO 02MC 02RD 02RO	0	1	3.6957628727	None	None	None	None	1
2.7	2015_Jun_18_1005	s	s	23	4	SIC	49	RC	2	2	09VD 02VO 02VC 02MD 02MO 02MC 02RD 02RO	1	0	0.929251909256	-98.0	40.0	-99	37	1
2.7	2015_Jun_18_1005	s	s	23	4	SIC	50	ABS	1	2	02VD 02VO 02VC 10MD 02MO 02MC 02RD 02RO	0	1	2.60068106651	None	None	None	None	1
2.7	2015_Jun_18_1005	s	s	23	4	SIC	51	RC	2	1	02VD 09VO 02VC 02MD 02MO 02MC 02RD 02RO	1	0	1.76147794724	386.0	-182.0	376	-179	1
2.7	2015_Jun_18_1005	s	s	23	4	SIC	52	RC	0	2	02VD 02VO 02VC 02MD 02MO 02MC 09RD 02RO	1	0	1.38824009895	-233.0	279.0	-229	278	1
2.7	2015_Jun_18_1005	s	s	23	4	SIC	53	ABS	0	1	02VD 02VO 02VC 02MD 02MO 02MC 02RD 10RO	0	1	7.17935299873	None	None	None	None	1
2.7	2015_Jun_18_1005	s	s	23	4	SIC	54	ABS	2	2	10VD 02VO 02VC 02MD 02MO 02MC 02RD 02RO	0	1	4.57397794724	None	None	None	None	1
2.7	2015_Jun_18_1005	s	s	23	4	SIC	55	ABS	2	0	02VD 02VO 10VC 02MD 02MO 02MC 02RD 02RO	0	1	3.98459100723	None	None	None	None	1
2.7	2015_Jun_18_1005	s	s	23	4	SIC	56	RC	2	0	02VD 02VO 09VC 02MD 02MO 02MC 02RD 02RO	1	0	0.74090886116	257.0	-12.0	252	-20	1
2.7	2015_Jun_18_1005	s	s	23	4	SIC	57	RC	1	2	02VD 02VO 02VC 09MD 02MO 02MC 02RD 02RO	1	0	1.16200590134	210.0	232.0	215	232	1
2.7	2015_Jun_18_1005	s	s	23	4	SIC	58	RC	1	1	02VD 02VO 02VC 02MD 09MO 02MC 02RD 02RO	1	0	1.58562803268	-449.0	-368.0	-444	-369	1
2.7	2015_Jun_18_1005	s	s	23	4	SIC	59	ABS	2	1	02VD 10VO 02VC 02MD 02MO 02MC 02RD 02RO	0	1	3.31864500046	None	None	None	None	1
2.7	2015_Jun_18_1005	s	s	23	4	SIC	60	ABS	1	0	02VD 02VO 02VC 02MD 02MO 10MC 02RD 02RO	0	1	7.03816604614	None	None	None	None	1
2.7	2015_Jun_18_1005	s	s	23	4	SIC	61	RC	1	0	02VD 02VO 02VC 02MD 02MO 09MC 02RD 02RO	1	0	1.45399212837	269.0	323.0	268	325	1
2.7	2015_Jun_18_1005	s	s	23	4	SIC	62	RC	0	1	02VD 02VO 02VC 02MD 02MO 02MC 02RD 09RO	1	0	4.51930212975	-324.0	291.0	-330	291	1
2.7	2015_Jun_18_1005	s	s	23	4	SIC	63	ABS	1	1	02VD 02VO 02VC 02MD 10MO 02MC 02RD 02RO	0	1	4.83403110504	None	None	None	None	1
2.7	2015_Jun_18_1005	s	s	23	4	SIC	64	ABS	0	2	02VD 02VO 02VC 02MD 02MO 02MC 10RD 02RO	0	1	5.3387260437	None	None	None	None	1
2.7	2015_Jun_18_1005	s	s	23	4	SIC	65	ABS	1	2	02VD 02VO 02VC 10MD 02MO 02MC 02RD 02RO	0	1	4.71933913231	None	None	None	None	1
2.7	2015_Jun_18_1005	s	s	23	4	SIC	66	ABS	2	1	02VD 10VO 02VC 02MD 02MO 02MC 02RD 02RO	0	1	3.52771186829	None	None	None	None	1
2.7	2015_Jun_18_1005	s	s	23	4	SIC	67	RC	2	0	02VD 02VO 09VC 02MD 02MO 02MC 02RD 02RO	1	0	0.949482917786	-369.0	64.0	-368	66	1
2.7	2015_Jun_18_1005	s	s	23	4	SIC	68	RC	0	1	02VD 02VO 02VC 02MD 02MO 02MC 02RD 09RO	1	0	1.862803936	438.0	263.0	430	266	1
2.7	2015_Jun_18_1005	s	s	23	4	SIC	69	RC	2	1	02VD 09VO 02VC 02MD 02MO 02MC 02RD 02RO	1	0	0.806731939316	219.0	90.0	213	89	1
2.7	2015_Jun_18_1005	s	s	23	4	SIC	70	RC	2	2	09VD 02VO 02VC 02MD 02MO 02MC 02RD 02RO	1	0	0.717334032059	234.0	-25.0	235	-30	1
2.7	2015_Jun_18_1005	s	s	23	4	SIC	71	ABS	2	2	10VD 02VO 02VC 02MD 02MO 02MC 02RD 02RO	0	1	2.85394310951	None	None	None	None	1
2.7	2015_Jun_18_1005	s	s	23	4	SIC	72	RC	1	1	02VD 02VO 02VC 02MD 09MO 02MC 02RD 02RO	1	0	1.55311703682	338.0	407.0	337	403	1
2.7	2015_Jun_18_1005	s	s	23	4	SIC	73	ABS	0	1	02VD 02VO 02VC 02MD 02MO 02MC 02RD 10RO	0	1	6.04951190948	None	None	None	None	1
2.7	2015_Jun_18_1005	s	s	23	4	SIC	74	ABS	2	0	02VD 02VO 10VC 02MD 02MO 02MC 02RD 02RO	0	1	4.03267812729	None	None	None	None	1
2.7	2015_Jun_18_1005	s	s	23	4	SIC	75	ABS	1	0	02VD 02VO 02VC 02MD 02MO 10MC 02RD 02RO	0	1	4.77821087837	None	None	None	None	1
2.7	2015_Jun_18_1005	s	s	23	4	SIC	76	ABS	0	2	02VD 02VO 02VC 02MD 02MO 02MC 10RD 02RO	0	1	5.4726729393	None	None	None	None	1
2.7	2015_Jun_18_1005	s	s	23	4	SIC	77	RC	0	2	02VD 02VO 02VC 02MD 02MO 02MC 09RD 02RO	1	0	1.9475979805	-441.0	-147.0	-435	-151	1
2.7	2015_Jun_18_1005	s	s	23	4	SIC	78	RC	1	0	02VD 02VO 02VC 02MD 02MO 09MC 02RD 02RO	1	0	1.52961015701	410.0	169.0	412	170	1
2.7	2015_Jun_18_1005	s	s	23	4	SIC	79	RC	1	2	02VD 02VO 02VC 09MD 02MO 02MC 02RD 02RO	1	0	1.12668609619	-434.0	269.0	-430	269	1
2.7	2015_Jun_18_1005	s	s	23	4	SIC	80	ABS	1	1	02VD 02VO 02VC 02MD 10MO 02MC 02RD 02RO	0	1	4.70300102234	None	None	None	None	1
2.7	2015_Jun_18_1005	s	s	23	4	SIC	81	RC	2	1	02VD 09VO 02VC 02MD 02MO 02MC 02RD 02RO	1	0	0.88224196434	239.0	256.0	237	251	1
2.7	2015_Jun_18_1005	s	s	23	4	SIC	82	RC	1	0	02VD 02VO 02VC 02MD 02MO 09MC 02RD 02RO	1	0	1.68942713737	-530.0	-143.0	-536	-136	1
2.7	2015_Jun_18_1005	s	s	23	4	SIC	83	ABS	1	2	02VD 02VO 02VC 10MD 02MO 02MC 02RD 02RO	0	1	3.4310901165	None	None	None	None	1
2.7	2015_Jun_18_1005	s	s	23	4	SIC	84	ABS	1	1	02VD 02VO 02VC 02MD 10MO 02MC 02RD 02RO	0	1	3.89064097404	None	None	None	None	1
2.7	2015_Jun_18_1005	s	s	23	4	SIC	85	ABS	2	0	02VD 02VO 10VC 02MD 02MO 02MC 02RD 02RO	0	1	3.72742915154	None	None	None	None	1
2.7	2015_Jun_18_1005	s	s	23	4	SIC	86	ABS	0	2	02VD 02VO 02VC 02MD 02MO 02MC 10RD 02RO	0	1	3.62209582329	None	None	None	None	1
2.7	2015_Jun_18_1005	s	s	23	4	SIC	87	ABS	2	2	10VD 02VO 02VC 02MD 02MO 02MC 02RD 02RO	0	1	3.26681804657	None	None	None	None	1
2.7	2015_Jun_18_1005	s	s	23	4	SIC	88	RC	2	2	09VD 02VO 02VC 02MD 02MO 02MC 02RD 02RO	1	0	1.58565616608	372.0	142.0	378	140	1
2.7	2015_Jun_18_1005	s	s	23	4	SIC	89	ABS	1	0	02VD 02VO 02VC 02MD 02MO 10MC 02RD 02RO	0	1	3.5187959671	None	None	None	None	1
2.7	2015_Jun_18_1005	s	s	23	4	SIC	90	RC	0	1	02VD 02VO 02VC 02MD 02MO 02MC 02RD 09RO	1	0	0.889094829559	57.0	-81.0	65	-80	1
2.7	2015_Jun_18_1005	s	s	23	4	SIC	91	RC	0	2	02VD 02VO 02VC 02MD 02MO 02MC 09RD 02RO	1	0	1.55306982994	-425.0	-68.0	-418	-58	1
2.7	2015_Jun_18_1005	s	s	23	4	SIC	92	RC	2	0	02VD 02VO 09VC 02MD 02MO 02MC 02RD 02RO	1	0	1.17387390137	240.0	-141.0	241	-136	1
2.7	2015_Jun_18_1005	s	s	23	4	SIC	93	RC	1	1	02VD 02VO 02VC 02MD 09MO 02MC 02RD 02RO	1	0	1.46577882767	-422.0	-349.0	-422	-350	1
2.7	2015_Jun_18_1005	s	s	23	4	SIC	94	ABS	0	1	02VD 02VO 02VC 02MD 02MO 02MC 02RD 10RO	0	1	5.10207796097	None	None	None	None	1
2.7	2015_Jun_18_1005	s	s	23	4	SIC	95	RC	1	2	02VD 02VO 02VC 09MD 02MO 02MC 02RD 02RO	1	0	0.717679023743	-198.0	265.0	-202	268	1
2.7	2015_Jun_18_1005	s	s	23	4	SIC	96	ABS	2	1	02VD 10VO 02VC 02MD 02MO 02MC 02RD 02RO	0	1	2.17145299911	None	None	None	None	1
2.7	2015_Jun_18_1005	s	s	23	4	SIC	97	RC	0	1	02VD 02VO 02VC 02MD 02MO 02MC 02RD 09RO	1	0	1.43036699295	140.0	139.0	140	144	1
2.7	2015_Jun_18_1005	s	s	23	4	SIC	98	RC	1	1	02VD 02VO 02VC 02MD 09MO 02MC 02RD 02RO	1	0	2.64773201942	-51.0	334.0	-43	329	1
2.7	2015_Jun_18_1005	s	s	23	4	SIC	99	ABS	2	0	02VD 02VO 10VC 02MD 02MO 02MC 02RD 02RO	0	1	3.89537501335	None	None	None	None	1
2.7	2015_Jun_18_1005	s	s	23	4	SIC	100	ABS	2	1	02VD 10VO 02VC 02MD 02MO 02MC 02RD 02RO	0	1	2.76548099518	None	None	None	None	1
2.7	2015_Jun_18_1005	s	s	23	4	SIC	101	ABS	1	0	02VD 02VO 02VC 02MD 02MO 10MC 02RD 02RO	0	1	5.94402217865	None	None	None	None	1
2.7	2015_Jun_18_1005	s	s	23	4	SIC	102	ABS	2	2	10VD 02VO 02VC 02MD 02MO 02MC 02RD 02RO	0	1	3.69532895088	None	None	None	None	1
2.7	2015_Jun_18_1005	s	s	23	4	SIC	103	RC	0	2	02VD 02VO 02VC 02MD 02MO 02MC 09RD 02RO	1	0	1.32938504219	523.0	60.0	516	59	1
2.7	2015_Jun_18_1005	s	s	23	4	SIC	104	RC	1	2	02VD 02VO 02VC 09MD 02MO 02MC 02RD 02RO	1	0	1.05389690399	-81.0	402.0	-78	404	1
2.7	2015_Jun_18_1005	s	s	23	4	SIC	105	RC	2	2	09VD 02VO 02VC 02MD 02MO 02MC 02RD 02RO	1	0	1.53561806679	440.0	-299.0	444	-297	1
2.7	2015_Jun_18_1005	s	s	23	4	SIC	106	RC	2	1	02VD 09VO 02VC 02MD 02MO 02MC 02RD 02RO	1	0	2.05418395996	-237.0	-308.0	-233	-308	1
2.7	2015_Jun_18_1005	s	s	23	4	SIC	107	ABS	1	2	02VD 02VO 02VC 10MD 02MO 02MC 02RD 02RO	0	1	2.45408320427	None	None	None	None	1
2.7	2015_Jun_18_1005	s	s	23	4	SIC	108	ABS	0	2	02VD 02VO 02VC 02MD 02MO 02MC 10RD 02RO	0	1	3.80796384811	None	None	None	None	1
2.7	2015_Jun_18_1005	s	s	23	4	SIC	109	RC	2	0	02VD 02VO 09VC 02MD 02MO 02MC 02RD 02RO	1	0	1.58598589897	60.0	-318.0	57	-309	1
2.7	2015_Jun_18_1005	s	s	23	4	SIC	110	ABS	1	1	02VD 02VO 02VC 02MD 10MO 02MC 02RD 02RO	0	1	5.31328582764	None	None	None	None	1
2.7	2015_Jun_18_1005	s	s	23	4	SIC	111	RC	1	0	02VD 02VO 02VC 02MD 02MO 09MC 02RD 02RO	1	0	1.65357208252	-130.0	-342.0	-128	-337	1
2.7	2015_Jun_18_1005	s	s	23	4	SIC	112	ABS	0	1	02VD 02VO 02VC 02MD 02MO 02MC 02RD 10RO	0	1	5.77321696281	None	None	None	None	1
2.7	2015_Jun_18_1005	s	s	23	4	SIC	113	RC	2	0	02VD 02VO 09VC 02MD 02MO 02MC 02RD 02RO	1	0	0.82980799675	-374.0	-257.0	-371	-251	1
2.7	2015_Jun_18_1005	s	s	23	4	SIC	114	RC	0	2	02VD 02VO 02VC 02MD 02MO 02MC 09RD 02RO	1	0	0.917390823364	-304.0	326.0	-301	326	1
2.7	2015_Jun_18_1005	s	s	23	4	SIC	115	ABS	1	0	02VD 02VO 02VC 02MD 02MO 10MC 02RD 02RO	0	1	7.02643799782	None	None	None	None	1
2.7	2015_Jun_18_1005	s	s	23	4	SIC	116	ABS	2	2	10VD 02VO 02VC 02MD 02MO 02MC 02RD 02RO	0	1	3.44276809692	None	None	None	None	1
2.7	2015_Jun_18_1005	s	s	23	4	SIC	117	RC	1	0	02VD 02VO 02VC 02MD 02MO 09MC 02RD 02RO	1	0	0.717333078384	-398.0	108.0	-388	109	1
2.7	2015_Jun_18_1005	s	s	23	4	SIC	118	ABS	1	1	02VD 02VO 02VC 02MD 10MO 02MC 02RD 02RO	0	1	3.96602988243	None	None	None	None	1
2.7	2015_Jun_18_1005	s	s	23	4	SIC	119	RC	0	1	02VD 02VO 02VC 02MD 02MO 02MC 02RD 09RO	1	0	1.99550294876	302.0	-178.0	295	-179	1
2.7	2015_Jun_18_1005	s	s	23	4	SIC	120	RC	2	2	09VD 02VO 02VC 02MD 02MO 02MC 02RD 02RO	1	0	1.61191391945	528.0	-122.0	531	-123	1
2.7	2015_Jun_18_1005	s	s	23	4	SIC	121	RC	1	2	02VD 02VO 02VC 09MD 02MO 02MC 02RD 02RO	1	0	1.50594711304	8.0	260.0	3	259	1
2.7	2015_Jun_18_1005	s	s	23	4	SIC	122	ABS	0	1	02VD 02VO 02VC 02MD 02MO 02MC 02RD 10RO	0	1	6.06693005562	None	None	None	None	1
2.7	2015_Jun_18_1005	s	s	23	4	SIC	123	ABS	2	1	02VD 10VO 02VC 02MD 02MO 02MC 02RD 02RO	0	1	3.24568009377	None	None	None	None	1
2.7	2015_Jun_18_1005	s	s	23	4	SIC	124	RC	2	1	02VD 09VO 02VC 02MD 02MO 02MC 02RD 02RO	1	0	1.21870112419	-148.0	-275.0	-148	-278	1
2.7	2015_Jun_18_1005	s	s	23	4	SIC	125	ABS	1	2	02VD 02VO 02VC 10MD 02MO 02MC 02RD 02RO	0	1	2.71825695038	None	None	None	None	1
2.7	2015_Jun_18_1005	s	s	23	4	SIC	126	ABS	2	0	02VD 02VO 10VC 02MD 02MO 02MC 02RD 02RO	0	1	2.76535415649	None	None	None	None	1
2.7	2015_Jun_18_1005	s	s	23	4	SIC	127	RC	1	1	02VD 02VO 02VC 02MD 09MO 02MC 02RD 02RO	1	0	1.25382781029	78.0	-361.0	84	-360	1
2.7	2015_Jun_18_1005	s	s	23	4	SIC	128	ABS	0	2	02VD 02VO 02VC 02MD 02MO 02MC 10RD 02RO	0	1	3.33650493622	None	None	None	None	1
2.7	2015_Jun_18_1005	s	s	23	4	SIC	129	ABS	1	0	02VD 02VO 02VC 02MD 02MO 10MC 02RD 02RO	0	1	4.31917214394	None	None	None	None	1
2.7	2015_Jun_18_1005	s	s	23	4	SIC	130	RC	2	1	02VD 09VO 02VC 02MD 02MO 02MC 02RD 02RO	1	0	0.93642115593	-356.0	-324.0	-360	-332	1
2.7	2015_Jun_18_1005	s	s	23	4	SIC	131	RC	2	2	09VD 02VO 02VC 02MD 02MO 02MC 02RD 02RO	1	0	1.12935018539	-483.0	387.0	-482	389	1
2.7	2015_Jun_18_1005	s	s	23	4	SIC	132	ABS	1	2	02VD 02VO 02VC 10MD 02MO 02MC 02RD 02RO	0	1	2.55357098579	None	None	None	None	1
2.7	2015_Jun_18_1005	s	s	23	4	SIC	133	ABS	1	1	02VD 02VO 02VC 02MD 10MO 02MC 02RD 02RO	0	1	3.8427131176	None	None	None	None	1
2.7	2015_Jun_18_1005	s	s	23	4	SIC	134	RC	1	0	02VD 02VO 02VC 02MD 02MO 09MC 02RD 02RO	1	0	2.03022003174	333.0	-76.0	331	-75	1
2.7	2015_Jun_18_1005	s	s	23	4	SIC	135	RC	2	0	02VD 02VO 09VC 02MD 02MO 02MC 02RD 02RO	1	0	0.693697929382	-340.0	-21.0	-330	-19	1
2.7	2015_Jun_18_1005	s	s	23	4	SIC	136	RC	1	1	02VD 02VO 02VC 02MD 09MO 02MC 02RD 02RO	1	0	0.607912063599	-171.0	205.0	-169	208	1
2.7	2015_Jun_18_1005	s	s	23	4	SIC	137	RC	0	1	02VD 02VO 02VC 02MD 02MO 02MC 02RD 09RO	1	0	1.81209802628	439.0	-55.0	445	-54	1
2.7	2015_Jun_18_1005	s	s	23	4	SIC	138	ABS	0	1	02VD 02VO 02VC 02MD 02MO 02MC 02RD 10RO	0	1	6.16722202301	None	None	None	None	1
2.7	2015_Jun_18_1005	s	s	23	4	SIC	139	ABS	2	1	02VD 10VO 02VC 02MD 02MO 02MC 02RD 02RO	0	1	3.13038706779	None	None	None	None	1
2.7	2015_Jun_18_1005	s	s	23	4	SIC	140	RC	0	2	02VD 02VO 02VC 02MD 02MO 02MC 09RD 02RO	1	0	1.32945680618	-240.0	372.0	-241	372	1
2.7	2015_Jun_18_1005	s	s	23	4	SIC	141	ABS	0	2	02VD 02VO 02VC 02MD 02MO 02MC 10RD 02RO	0	1	4.37379384041	None	None	None	None	1
2.7	2015_Jun_18_1005	s	s	23	4	SIC	142	ABS	2	0	02VD 02VO 10VC 02MD 02MO 02MC 02RD 02RO	0	1	3.46690797806	None	None	None	None	1
2.7	2015_Jun_18_1005	s	s	23	4	SIC	143	ABS	2	2	10VD 02VO 02VC 02MD 02MO 02MC 02RD 02RO	0	1	2.52739405632	None	None	None	None	1
2.7	2015_Jun_18_1005	s	s	23	4	SIC	144	RC	1	2	02VD 02VO 02VC 09MD 02MO 02MC 02RD 02RO	1	0	0.638646125793	-206.0	68.0	-215	69	1
2.7	2015_Jun_18_1005	s	s	23	4	SIC	145	ABS	1	0	02VD 02VO 02VC 02MD 02MO 10MC 02RD 02RO	0	1	3.83668804169	None	None	None	None	1
2.7	2015_Jun_18_1005	s	s	23	4	SIC	146	RC	1	1	02VD 02VO 02VC 02MD 09MO 02MC 02RD 02RO	1	0	0.705612897873	29.0	214.0	32	212	1
2.7	2015_Jun_18_1005	s	s	23	4	SIC	147	RC	0	2	02VD 02VO 02VC 02MD 02MO 02MC 09RD 02RO	1	0	1.13620686531	223.0	18.0	215	18	1
2.7	2015_Jun_18_1005	s	s	23	4	SIC	148	RC	2	2	09VD 02VO 02VC 02MD 02MO 02MC 02RD 02RO	1	0	1.28896307945	-517.0	389.0	-513	390	1
2.7	2015_Jun_18_1005	s	s	23	4	SIC	149	RC	1	2	02VD 02VO 02VC 09MD 02MO 02MC 02RD 02RO	1	0	0.885871171951	-289.0	-136.0	-289	-136	1
2.7	2015_Jun_18_1005	s	s	23	4	SIC	150	ABS	0	1	02VD 02VO 02VC 02MD 02MO 02MC 02RD 10RO	0	1	5.47963404655	None	None	None	None	1
2.7	2015_Jun_18_1005	s	s	23	4	SIC	151	RC	2	1	02VD 09VO 02VC 02MD 02MO 02MC 02RD 02RO	1	0	1.0351588726	422.0	278.0	429	279	1
2.7	2015_Jun_18_1005	s	s	23	4	SIC	152	ABS	1	2	02VD 02VO 02VC 10MD 02MO 02MC 02RD 02RO	0	1	2.87142086029	None	None	None	None	1
2.7	2015_Jun_18_1005	s	s	23	4	SIC	153	ABS	2	1	02VD 10VO 02VC 02MD 02MO 02MC 02RD 02RO	0	1	3.12594795227	None	None	None	None	1
2.7	2015_Jun_18_1005	s	s	23	4	SIC	154	ABS	2	0	02VD 02VO 10VC 02MD 02MO 02MC 02RD 02RO	0	1	2.26631903648	None	None	None	None	1
2.7	2015_Jun_18_1005	s	s	23	4	SIC	155	RC	1	0	02VD 02VO 02VC 02MD 02MO 09MC 02RD 02RO	1	0	1.4946668148	-256.0	-392.0	-257	-394	1
2.7	2015_Jun_18_1005	s	s	23	4	SIC	156	RC	2	0	02VD 02VO 09VC 02MD 02MO 02MC 02RD 02RO	1	0	1.43544697762	512.0	-289.0	511	-286	1
2.7	2015_Jun_18_1005	s	s	23	4	SIC	157	ABS	2	2	10VD 02VO 02VC 02MD 02MO 02MC 02RD 02RO	1	0	1.29950404167	None	None	295	196	0
2.7	2015_Jun_18_1005	s	s	23	4	SIC	158	ABS	1	1	02VD 02VO 02VC 02MD 10MO 02MC 02RD 02RO	0	1	2.19549894333	None	None	None	None	1
2.7	2015_Jun_18_1005	s	s	23	4	SIC	159	ABS	0	2	02VD 02VO 02VC 02MD 02MO 02MC 10RD 02RO	0	1	2.95382618904	None	None	None	None	1
2.7	2015_Jun_18_1005	s	s	23	4	SIC	160	RC	0	1	02VD 02VO 02VC 02MD 02MO 02MC 02RD 09RO	1	0	1.95323395729	-478.0	-175.0	-467	-174	1
2.7	2015_Jun_18_1005	s	s	23	4	SIC	161	ABS	2	1	02VD 10VO 02VC 02MD 02MO 02MC 02RD 02RO	0	1	1.98559308052	None	None	None	None	1
2.7	2015_Jun_18_1005	s	s	23	4	SIC	162	RC	1	1	02VD 02VO 02VC 02MD 09MO 02MC 02RD 02RO	1	0	1.32945299149	24.0	-360.0	20	-364	1
2.7	2015_Jun_18_1005	s	s	23	4	SIC	163	ABS	1	0	02VD 02VO 02VC 02MD 02MO 10MC 02RD 02RO	0	1	4.3779900074	None	None	None	None	1
2.7	2015_Jun_18_1005	s	s	23	4	SIC	164	RC	0	2	02VD 02VO 02VC 02MD 02MO 02MC 09RD 02RO	1	0	0.724315881729	-510.0	32.0	-506	39	1
2.7	2015_Jun_18_1005	s	s	23	4	SIC	165	RC	1	0	02VD 02VO 02VC 02MD 02MO 09MC 02RD 02RO	0	1	4.60985994339	-486.0	20.0	None	None	0
2.7	2015_Jun_18_1005	s	s	23	4	SIC	166	ABS	0	2	02VD 02VO 02VC 02MD 02MO 02MC 10RD 02RO	0	1	3.10198307037	None	None	None	None	1
2.7	2015_Jun_18_1005	s	s	23	4	SIC	167	RC	0	1	02VD 02VO 02VC 02MD 02MO 02MC 02RD 09RO	1	0	1.14119505882	-249.0	-233.0	-244	-235	1
2.7	2015_Jun_18_1005	s	s	23	4	SIC	168	RC	2	1	02VD 09VO 02VC 02MD 02MO 02MC 02RD 02RO	1	0	1.17641806602	74.0	261.0	71	256	1
2.7	2015_Jun_18_1005	s	s	23	4	SIC	169	ABS	1	1	02VD 02VO 02VC 02MD 10MO 02MC 02RD 02RO	0	1	4.44873094559	None	None	None	None	1
2.7	2015_Jun_18_1005	s	s	23	4	SIC	170	RC	2	2	09VD 02VO 02VC 02MD 02MO 02MC 02RD 02RO	1	0	1.34114217758	31.0	-155.0	31	-160	1
2.7	2015_Jun_18_1005	s	s	23	4	SIC	171	ABS	0	1	02VD 02VO 02VC 02MD 02MO 02MC 02RD 10RO	0	1	4.86062598228	None	None	None	None	1
2.7	2015_Jun_18_1005	s	s	23	4	SIC	172	ABS	2	0	02VD 02VO 10VC 02MD 02MO 02MC 02RD 02RO	0	1	2.71585011482	None	None	None	None	1
2.7	2015_Jun_18_1005	s	s	23	4	SIC	173	ABS	2	2	10VD 02VO 02VC 02MD 02MO 02MC 02RD 02RO	0	1	2.45943784714	None	None	None	None	1
2.7	2015_Jun_18_1005	s	s	23	4	SIC	174	ABS	1	2	02VD 02VO 02VC 10MD 02MO 02MC 02RD 02RO	0	1	2.43601202965	None	None	None	None	1
2.7	2015_Jun_18_1005	s	s	23	4	SIC	175	RC	2	0	02VD 02VO 09VC 02MD 02MO 02MC 02RD 02RO	1	0	0.677740097046	-61.0	100.0	-51	101	1
2.7	2015_Jun_18_1005	s	s	23	4	SIC	176	RC	1	2	02VD 02VO 02VC 09MD 02MO 02MC 02RD 02RO	1	0	1.30088114738	-406.0	-337.0	-413	-337	1
2.7	2015_Jun_18_1005	s	s	23	4	SIC	177	RC	2	2	09VD 02VO 02VC 02MD 02MO 02MC 02RD 02RO	1	0	1.44713902473	179.0	-184.0	180	-185	1
2.7	2015_Jun_18_1005	s	s	23	4	SIC	178	ABS	0	1	02VD 02VO 02VC 02MD 02MO 02MC 02RD 10RO	0	1	6.59766411781	None	None	None	None	1
2.7	2015_Jun_18_1005	s	s	23	4	SIC	179	ABS	2	1	02VD 10VO 02VC 02MD 02MO 02MC 02RD 02RO	0	1	3.43639206886	None	None	None	None	1
2.7	2015_Jun_18_1005	s	s	23	4	SIC	180	ABS	1	2	02VD 02VO 02VC 10MD 02MO 02MC 02RD 02RO	0	1	3.18399691582	None	None	None	None	1
2.7	2015_Jun_18_1005	s	s	23	4	SIC	181	RC	1	0	02VD 02VO 02VC 02MD 02MO 09MC 02RD 02RO	1	0	1.71280002594	44.0	178.0	36	176	1
2.7	2015_Jun_18_1005	s	s	23	4	SIC	182	RC	0	2	02VD 02VO 02VC 02MD 02MO 02MC 09RD 02RO	1	0	1.59531807899	244.0	-199.0	245	-201	1
2.7	2015_Jun_18_1005	s	s	23	4	SIC	183	RC	2	1	02VD 09VO 02VC 02MD 02MO 02MC 02RD 02RO	1	0	0.760901927948	-384.0	-246.0	-384	-240	1
2.7	2015_Jun_18_1005	s	s	23	4	SIC	184	RC	2	0	02VD 02VO 09VC 02MD 02MO 02MC 02RD 02RO	1	0	0.75269818306	-474.0	-232.0	-471	-235	1
2.7	2015_Jun_18_1005	s	s	23	4	SIC	185	RC	1	2	02VD 02VO 02VC 09MD 02MO 02MC 02RD 02RO	1	0	0.90566277504	-527.0	14.0	-528	14	1
2.7	2015_Jun_18_1005	s	s	23	4	SIC	186	RC	1	1	02VD 02VO 02VC 02MD 09MO 02MC 02RD 02RO	1	0	0.700161933899	-158.0	81.0	-159	65	1
2.7	2015_Jun_18_1005	s	s	23	4	SIC	187	ABS	0	2	02VD 02VO 02VC 02MD 02MO 02MC 10RD 02RO	0	1	3.89305496216	None	None	None	None	1
2.7	2015_Jun_18_1005	s	s	23	4	SIC	188	ABS	1	0	02VD 02VO 02VC 02MD 02MO 10MC 02RD 02RO	0	1	3.51383709908	None	None	None	None	1
2.7	2015_Jun_18_1005	s	s	23	4	SIC	189	ABS	2	2	10VD 02VO 02VC 02MD 02MO 02MC 02RD 02RO	0	1	3.0007879734	None	None	None	None	1
2.7	2015_Jun_18_1005	s	s	23	4	SIC	190	ABS	2	0	02VD 02VO 10VC 02MD 02MO 02MC 02RD 02RO	0	1	2.78398895264	None	None	None	None	1
2.7	2015_Jun_18_1005	s	s	23	4	SIC	191	RC	0	1	02VD 02VO 02VC 02MD 02MO 02MC 02RD 09RO	1	0	0.794748783112	-395.0	225.0	-403	223	1
2.7	2015_Jun_18_1005	s	s	23	4	SIC	192	ABS	1	1	02VD 02VO 02VC 02MD 10MO 02MC 02RD 02RO	0	1	3.53714299202	None	None	None	None	1
2.7	2015_Jun_18_1005	s	s	23	4	SIC	193	RC	2	0	02VD 02VO 09VC 02MD 02MO 02MC 02RD 02RO	1	0	0.840460062027	33.0	-136.0	36	-133	1
2.7	2015_Jun_18_1005	s	s	23	4	SIC	194	ABS	2	1	02VD 10VO 02VC 02MD 02MO 02MC 02RD 02RO	0	1	2.16255998611	None	None	None	None	1
2.7	2015_Jun_18_1005	s	s	23	4	SIC	195	ABS	1	2	02VD 02VO 02VC 10MD 02MO 02MC 02RD 02RO	0	1	3.61951398849	None	None	None	None	1
2.7	2015_Jun_18_1005	s	s	23	4	SIC	196	ABS	2	2	10VD 02VO 02VC 02MD 02MO 02MC 02RD 02RO	0	1	2.81931114197	None	None	None	None	1
2.7	2015_Jun_18_1005	s	s	23	4	SIC	197	RC	1	1	02VD 02VO 02VC 02MD 09MO 02MC 02RD 02RO	1	0	1.35973787308	521.0	-200.0	527	-195	1
2.7	2015_Jun_18_1005	s	s	23	4	SIC	198	ABS	1	1	02VD 02VO 02VC 02MD 10MO 02MC 02RD 02RO	0	1	3.1189930439	None	None	None	None	1
2.7	2015_Jun_18_1005	s	s	23	4	SIC	199	RC	2	2	09VD 02VO 02VC 02MD 02MO 02MC 02RD 02RO	1	0	1.0587348938	39.0	359.0	33	361	1
2.7	2015_Jun_18_1005	s	s	23	4	SIC	200	ABS	2	0	02VD 02VO 10VC 02MD 02MO 02MC 02RD 02RO	0	1	2.47113800049	None	None	None	None	1
2.7	2015_Jun_18_1005	s	s	23	4	SIC	201	RC	1	2	02VD 02VO 02VC 09MD 02MO 02MC 02RD 02RO	1	0	1.22354602814	-31.0	-208.0	-39	-205	1
2.7	2015_Jun_18_1005	s	s	23	4	SIC	202	ABS	0	2	02VD 02VO 02VC 02MD 02MO 02MC 10RD 02RO	0	1	2.71314001083	None	None	None	None	1
2.7	2015_Jun_18_1005	s	s	23	4	SIC	203	ABS	1	0	02VD 02VO 02VC 02MD 02MO 10MC 02RD 02RO	0	1	2.96553492546	None	None	None	None	1
2.7	2015_Jun_18_1005	s	s	23	4	SIC	204	RC	1	0	02VD 02VO 02VC 02MD 02MO 09MC 02RD 02RO	1	0	2.1484670639	506.0	235.0	511	237	1
2.7	2015_Jun_18_1005	s	s	23	4	SIC	205	RC	0	1	02VD 02VO 02VC 02MD 02MO 02MC 02RD 09RO	1	0	1.29102611542	-447.0	-314.0	-455	-318	1
2.7	2015_Jun_18_1005	s	s	23	4	SIC	206	RC	0	2	02VD 02VO 02VC 02MD 02MO 02MC 09RD 02RO	1	0	1.39439201355	414.0	-343.0	413	-348	1
2.7	2015_Jun_18_1005	s	s	23	4	SIC	207	RC	2	1	02VD 09VO 02VC 02MD 02MO 02MC 02RD 02RO	1	0	2.24270510674	-337.0	341.0	-344	342	1
2.7	2015_Jun_18_1005	s	s	23	4	SIC	208	ABS	0	1	02VD 02VO 02VC 02MD 02MO 02MC 02RD 10RO	0	1	3.52527999878	None	None	None	None	1
2.7	2015_Jun_18_1005	s	s	23	4	SIC	209	RC	2	1	02VD 09VO 02VC 02MD 02MO 02MC 02RD 02RO	1	0	1.78850793839	-214.0	-286.0	-211	-284	1
2.7	2015_Jun_18_1005	s	s	23	4	SIC	210	RC	0	1	02VD 02VO 02VC 02MD 02MO 02MC 02RD 09RO	1	0	1.12468600273	-152.0	-33.0	-150	-33	1
2.7	2015_Jun_18_1005	s	s	23	4	SIC	211	ABS	1	0	02VD 02VO 02VC 02MD 02MO 10MC 02RD 02RO	0	1	5.9031791687	None	None	None	None	1
2.7	2015_Jun_18_1005	s	s	23	4	SIC	212	RC	0	2	02VD 02VO 02VC 02MD 02MO 02MC 09RD 02RO	1	0	2.16182184219	331.0	-147.0	328	-152	1
2.7	2015_Jun_18_1005	s	s	23	4	SIC	213	RC	1	2	02VD 02VO 02VC 09MD 02MO 02MC 02RD 02RO	1	0	0.58545088768	-109.0	13.0	-115	15	1
2.7	2015_Jun_18_1005	s	s	23	4	SIC	214	ABS	1	2	02VD 02VO 02VC 10MD 02MO 02MC 02RD 02RO	0	1	2.53621006012	None	None	None	None	1
2.7	2015_Jun_18_1005	s	s	23	4	SIC	215	RC	1	1	02VD 02VO 02VC 02MD 09MO 02MC 02RD 02RO	1	0	1.15680193901	195.0	322.0	195	324	1
2.7	2015_Jun_18_1005	s	s	23	4	SIC	216	RC	1	0	02VD 02VO 02VC 02MD 02MO 09MC 02RD 02RO	1	0	0.658528804779	-79.0	-9.0	-76	-10	1
2.7	2015_Jun_18_1005	s	s	23	4	SIC	217	ABS	2	1	02VD 10VO 02VC 02MD 02MO 02MC 02RD 02RO	0	1	2.83618211746	None	None	None	None	1
2.7	2015_Jun_18_1005	s	s	23	4	SIC	218	ABS	0	1	02VD 02VO 02VC 02MD 02MO 02MC 02RD 10RO	0	1	7.83608388901	None	None	None	None	1
2.7	2015_Jun_18_1005	s	s	23	4	SIC	219	ABS	0	2	02VD 02VO 02VC 02MD 02MO 02MC 10RD 02RO	0	1	2.51345610619	None	None	None	None	1
2.7	2015_Jun_18_1005	s	s	23	4	SIC	220	ABS	1	1	02VD 02VO 02VC 02MD 10MO 02MC 02RD 02RO	0	1	2.91838288307	None	None	None	None	1
2.7	2015_Jun_18_1005	s	s	23	4	SIC	221	ABS	2	0	02VD 02VO 10VC 02MD 02MO 02MC 02RD 02RO	0	1	2.46846795082	None	None	None	None	1
2.7	2015_Jun_18_1005	s	s	23	4	SIC	222	ABS	2	2	10VD 02VO 02VC 02MD 02MO 02MC 02RD 02RO	0	1	2.56523394585	None	None	None	None	1
2.7	2015_Jun_18_1005	s	s	23	4	SIC	223	RC	2	2	09VD 02VO 02VC 02MD 02MO 02MC 02RD 02RO	1	0	0.741041183472	69.0	303.0	72	299	1
2.7	2015_Jun_18_1005	s	s	23	4	SIC	224	RC	2	0	02VD 02VO 09VC 02MD 02MO 02MC 02RD 02RO	1	0	1.75319004059	348.0	94.0	352	89	1
2.7	2015_Jun_18_1005	s	s	23	4	SIC	225	RC	1	0	02VD 02VO 02VC 02MD 02MO 09MC 02RD 02RO	1	0	0.740895986557	117.0	152.0	121	152	1
2.7	2015_Jun_18_1005	s	s	23	4	SIC	226	ABS	2	1	02VD 10VO 02VC 02MD 02MO 02MC 02RD 02RO	0	1	2.09474897385	None	None	None	None	1
2.7	2015_Jun_18_1005	s	s	23	4	SIC	227	RC	2	2	09VD 02VO 02VC 02MD 02MO 02MC 02RD 02RO	1	0	1.14787578583	-535.0	-253.0	-535	-256	1
2.7	2015_Jun_18_1005	s	s	23	4	SIC	228	ABS	1	2	02VD 02VO 02VC 10MD 02MO 02MC 02RD 02RO	0	1	2.59574794769	None	None	None	None	1
2.7	2015_Jun_18_1005	s	s	23	4	SIC	229	RC	2	0	02VD 02VO 09VC 02MD 02MO 02MC 02RD 02RO	1	0	2.12482190132	-240.0	32.0	-233	34	1
2.7	2015_Jun_18_1005	s	s	23	4	SIC	230	ABS	2	0	02VD 02VO 10VC 02MD 02MO 02MC 02RD 02RO	0	1	2.48290801048	None	None	None	None	1
2.7	2015_Jun_18_1005	s	s	23	4	SIC	231	ABS	0	2	02VD 02VO 02VC 02MD 02MO 02MC 10RD 02RO	0	1	2.41910910606	None	None	None	None	1
2.7	2015_Jun_18_1005	s	s	23	4	SIC	232	ABS	1	0	02VD 02VO 02VC 02MD 02MO 10MC 02RD 02RO	0	1	4.2721221447	None	None	None	None	1
2.7	2015_Jun_18_1005	s	s	23	4	SIC	233	ABS	2	2	10VD 02VO 02VC 02MD 02MO 02MC 02RD 02RO	0	1	2.81257081032	None	None	None	None	1
2.7	2015_Jun_18_1005	s	s	23	4	SIC	234	RC	0	1	02VD 02VO 02VC 02MD 02MO 02MC 02RD 09RO	1	0	1.21177005768	-386.0	158.0	-388	157	1
2.7	2015_Jun_18_1005	s	s	23	4	SIC	235	RC	1	1	02VD 02VO 02VC 02MD 09MO 02MC 02RD 02RO	1	0	0.823626041412	-262.0	-29.0	-258	-25	1
2.7	2015_Jun_18_1005	s	s	23	4	SIC	236	RC	1	2	02VD 02VO 02VC 09MD 02MO 02MC 02RD 02RO	1	0	0.705604076385	52.0	199.0	53	199	1
2.7	2015_Jun_18_1005	s	s	23	4	SIC	237	RC	0	2	02VD 02VO 02VC 02MD 02MO 02MC 09RD 02RO	1	0	1.20690488815	44.0	10.0	37	7	1
2.7	2015_Jun_18_1005	s	s	23	4	SIC	238	ABS	1	1	02VD 02VO 02VC 02MD 10MO 02MC 02RD 02RO	0	1	4.99628782272	None	None	None	None	1
2.7	2015_Jun_18_1005	s	s	23	4	SIC	239	RC	2	1	02VD 09VO 02VC 02MD 02MO 02MC 02RD 02RO	1	0	2.0239109993	55.0	-349.0	50	-347	1
2.7	2015_Jun_18_1005	s	s	23	4	SIC	240	ABS	0	1	02VD 02VO 02VC 02MD 02MO 02MC 02RD 10RO	0	1	5.69137692451	None	None	None	None	1
2.7	2015_Jun_18_1005	s	s	23	4	SIC	241	RC	1	1	02VD 02VO 02VC 02MD 09MO 02MC 02RD 02RO	1	0	4.1547460556	55.0	-208.0	43	-207	1
2.7	2015_Jun_18_1005	s	s	23	4	SIC	242	RC	2	0	02VD 02VO 09VC 02MD 02MO 02MC 02RD 02RO	1	0	2.13923883438	340.0	337.0	340	340	1
2.7	2015_Jun_18_1005	s	s	23	4	SIC	243	RC	1	0	02VD 02VO 02VC 02MD 02MO 09MC 02RD 02RO	1	0	1.53869104385	136.0	228.0	131	230	1
2.7	2015_Jun_18_1005	s	s	23	4	SIC	244	ABS	2	0	02VD 02VO 10VC 02MD 02MO 02MC 02RD 02RO	0	1	2.42050504684	None	None	None	None	1
2.7	2015_Jun_18_1005	s	s	23	4	SIC	245	RC	2	1	02VD 09VO 02VC 02MD 02MO 02MC 02RD 02RO	1	0	1.15965294838	183.0	390.0	191	395	1
2.7	2015_Jun_18_1005	s	s	23	4	SIC	246	RC	0	2	02VD 02VO 02VC 02MD 02MO 02MC 09RD 02RO	1	0	1.87085199356	-419.0	-27.0	-419	-31	1
2.7	2015_Jun_18_1005	s	s	23	4	SIC	247	RC	1	2	02VD 02VO 02VC 09MD 02MO 02MC 02RD 02RO	1	0	1.50084495544	296.0	298.0	296	302	1
2.7	2015_Jun_18_1005	s	s	23	4	SIC	248	RC	0	1	02VD 02VO 02VC 02MD 02MO 02MC 02RD 09RO	1	0	1.29407191277	240.0	-42.0	243	-41	1
2.7	2015_Jun_18_1005	s	s	23	4	SIC	249	ABS	1	0	02VD 02VO 02VC 02MD 02MO 10MC 02RD 02RO	0	1	3.77770900726	None	None	None	None	1
2.7	2015_Jun_18_1005	s	s	23	4	SIC	250	ABS	2	1	02VD 10VO 02VC 02MD 02MO 02MC 02RD 02RO	0	1	2.13640713692	None	None	None	None	1
2.7	2015_Jun_18_1005	s	s	23	4	SIC	251	ABS	0	1	02VD 02VO 02VC 02MD 02MO 02MC 02RD 10RO	0	1	5.73844814301	None	None	None	None	1
2.7	2015_Jun_18_1005	s	s	23	4	SIC	252	RC	2	2	09VD 02VO 02VC 02MD 02MO 02MC 02RD 02RO	1	0	1.49794507027	307.0	-121.0	312	-127	1
2.7	2015_Jun_18_1005	s	s	23	4	SIC	253	ABS	1	2	02VD 02VO 02VC 10MD 02MO 02MC 02RD 02RO	0	1	2.95146107674	None	None	None	None	1
2.7	2015_Jun_18_1005	s	s	23	4	SIC	254	ABS	2	2	10VD 02VO 02VC 02MD 02MO 02MC 02RD 02RO	0	1	3.45480895042	None	None	None	None	1
2.7	2015_Jun_18_1005	s	s	23	4	SIC	255	ABS	1	1	02VD 02VO 02VC 02MD 10MO 02MC 02RD 02RO	0	1	4.11640787125	None	None	None	None	1
2.7	2015_Jun_18_1005	s	s	23	4	SIC	256	ABS	0	2	02VD 02VO 02VC 02MD 02MO 02MC 10RD 02RO	0	1	3.41960096359	None	None	None	None	1
2.7	2015_Jun_18_1005	s	s	23	4	SIC	257	RC	2	0	02VD 02VO 09VC 02MD 02MO 02MC 02RD 02RO	1	0	1.62373399734	276.0	-186.0	278	-184	1
2.7	2015_Jun_18_1005	s	s	23	4	SIC	258	RC	0	2	02VD 02VO 02VC 02MD 02MO 02MC 09RD 02RO	1	0	1.4187271595	-111.0	-330.0	-107	-331	1
2.7	2015_Jun_18_1005	s	s	23	4	SIC	259	RC	1	0	02VD 02VO 02VC 02MD 02MO 09MC 02RD 02RO	1	0	0.7526679039	-204.0	-220.0	-199	-217	1
2.7	2015_Jun_18_1005	s	s	23	4	SIC	260	RC	1	1	02VD 02VO 02VC 02MD 09MO 02MC 02RD 02RO	1	0	1.99474287033	301.0	-41.0	304	-39	1
2.7	2015_Jun_18_1005	s	s	23	4	SIC	261	ABS	2	2	10VD 02VO 02VC 02MD 02MO 02MC 02RD 02RO	0	1	2.23010206223	None	None	None	None	1
2.7	2015_Jun_18_1005	s	s	23	4	SIC	262	ABS	2	1	02VD 10VO 02VC 02MD 02MO 02MC 02RD 02RO	0	1	1.98854708672	None	None	None	None	1
2.7	2015_Jun_18_1005	s	s	23	4	SIC	263	ABS	0	2	02VD 02VO 02VC 02MD 02MO 02MC 10RD 02RO	0	1	5.28436803818	None	None	None	None	1
2.7	2015_Jun_18_1005	s	s	23	4	SIC	264	ABS	1	1	02VD 02VO 02VC 02MD 10MO 02MC 02RD 02RO	0	1	3.59575676918	None	None	None	None	1
2.7	2015_Jun_18_1005	s	s	23	4	SIC	265	ABS	2	0	02VD 02VO 10VC 02MD 02MO 02MC 02RD 02RO	0	1	2.96557402611	None	None	None	None	1
2.7	2015_Jun_18_1005	s	s	23	4	SIC	266	RC	2	2	09VD 02VO 02VC 02MD 02MO 02MC 02RD 02RO	1	0	1.25881385803	113.0	-184.0	107	-182	1
2.7	2015_Jun_18_1005	s	s	23	4	SIC	267	ABS	1	0	02VD 02VO 02VC 02MD 02MO 10MC 02RD 02RO	0	1	6.30030703545	None	None	None	None	1
2.7	2015_Jun_18_1005	s	s	23	4	SIC	268	RC	0	1	02VD 02VO 02VC 02MD 02MO 02MC 02RD 09RO	1	0	1.18819904327	-302.0	144.0	-303	137	1
2.7	2015_Jun_18_1005	s	s	23	4	SIC	269	RC	2	1	02VD 09VO 02VC 02MD 02MO 02MC 02RD 02RO	1	0	1.24211597443	283.0	-243.0	274	-240	1
2.7	2015_Jun_18_1005	s	s	23	4	SIC	270	RC	1	2	02VD 02VO 02VC 09MD 02MO 02MC 02RD 02RO	1	0	1.31762599945	-150.0	-238.0	-152	-235	1
2.7	2015_Jun_18_1005	s	s	23	4	SIC	271	ABS	0	1	02VD 02VO 02VC 02MD 02MO 02MC 02RD 10RO	0	1	3.81965494156	None	None	None	None	1
2.7	2015_Jun_18_1005	s	s	23	4	SIC	272	ABS	1	2	02VD 02VO 02VC 10MD 02MO 02MC 02RD 02RO	0	1	1.95960378647	None	None	None	None	1
2.7	2015_Jun_18_1005	s	s	23	4	SIC	273	ABS	1	0	02VD 02VO 02VC 02MD 02MO 10MC 02RD 02RO	0	1	4.48393416405	None	None	None	None	1
2.7	2015_Jun_18_1005	s	s	23	4	SIC	274	ABS	1	2	02VD 02VO 02VC 10MD 02MO 02MC 02RD 02RO	0	1	2.34168410301	None	None	None	None	1
2.7	2015_Jun_18_1005	s	s	23	4	SIC	275	RC	2	1	02VD 09VO 02VC 02MD 02MO 02MC 02RD 02RO	1	0	1.91316699982	371.0	-83.0	378	-87	1
2.7	2015_Jun_18_1005	s	s	23	4	SIC	276	RC	1	0	02VD 02VO 02VC 02MD 02MO 09MC 02RD 02RO	1	0	1.65338683128	377.0	-297.0	379	-290	1
2.7	2015_Jun_18_1005	s	s	23	4	SIC	277	ABS	2	2	10VD 02VO 02VC 02MD 02MO 02MC 02RD 02RO	0	1	2.53674507141	None	None	None	None	1
2.7	2015_Jun_18_1005	s	s	23	4	SIC	278	ABS	2	0	02VD 02VO 10VC 02MD 02MO 02MC 02RD 02RO	0	1	2.20781803131	None	None	None	None	1
2.7	2015_Jun_18_1005	s	s	23	4	SIC	279	RC	1	2	02VD 02VO 02VC 09MD 02MO 02MC 02RD 02RO	1	0	1.91311311722	-147.0	357.0	-146	359	1
2.7	2015_Jun_18_1005	s	s	23	4	SIC	280	ABS	0	2	02VD 02VO 02VC 02MD 02MO 02MC 10RD 02RO	0	1	3.83650112152	None	None	None	None	1
2.7	2015_Jun_18_1005	s	s	23	4	SIC	281	RC	0	1	02VD 02VO 02VC 02MD 02MO 02MC 02RD 09RO	1	0	3.08334112167	-480.0	-134.0	-479	-130	1
2.7	2015_Jun_18_1005	s	s	23	4	SIC	282	RC	2	0	02VD 02VO 09VC 02MD 02MO 02MC 02RD 02RO	1	0	2.12983107567	-324.0	357.0	-325	366	1
2.7	2015_Jun_18_1005	s	s	23	4	SIC	283	ABS	0	1	02VD 02VO 02VC 02MD 02MO 02MC 02RD 10RO	0	1	5.84932994843	None	None	None	None	1
2.7	2015_Jun_18_1005	s	s	23	4	SIC	284	ABS	1	1	02VD 02VO 02VC 02MD 10MO 02MC 02RD 02RO	0	1	4.13066506386	None	None	None	None	1
2.7	2015_Jun_18_1005	s	s	23	4	SIC	285	ABS	2	1	02VD 10VO 02VC 02MD 02MO 02MC 02RD 02RO	0	1	2.23578286171	None	None	None	None	1
2.7	2015_Jun_18_1005	s	s	23	4	SIC	286	RC	1	1	02VD 02VO 02VC 02MD 09MO 02MC 02RD 02RO	1	0	1.18821001053	17.0	-133.0	15	-125	1
2.7	2015_Jun_18_1005	s	s	23	4	SIC	287	RC	0	2	02VD 02VO 02VC 02MD 02MO 02MC 09RD 02RO	1	0	1.84144592285	428.0	344.0	426	344	1
2.7	2015_Jun_18_1005	s	s	23	4	SIC	288	RC	2	2	09VD 02VO 02VC 02MD 02MO 02MC 02RD 02RO	1	0	0.729127883911	-467.0	236.0	-472	234	1
2.7	2015_Jun_18_1005	s	s	23	4	SIC	289	ABS	1	0	02VD 02VO 02VC 02MD 02MO 10MC 02RD 02RO	0	1	4.08991312981	None	None	None	None	1
2.7	2015_Jun_18_1005	s	s	23	4	SIC	290	RC	1	2	02VD 02VO 02VC 09MD 02MO 02MC 02RD 02RO	1	0	1.36479401588	512.0	149.0	511	158	1
2.7	2015_Jun_18_1005	s	s	23	4	SIC	291	ABS	2	2	10VD 02VO 02VC 02MD 02MO 02MC 02RD 02RO	0	1	3.51245713234	None	None	None	None	1
2.7	2015_Jun_18_1005	s	s	23	4	SIC	292	RC	2	2	09VD 02VO 02VC 02MD 02MO 02MC 02RD 02RO	1	0	0.865849018097	-328.0	-36.0	-327	-36	1
2.7	2015_Jun_18_1005	s	s	23	4	SIC	293	RC	1	0	02VD 02VO 02VC 02MD 02MO 09MC 02RD 02RO	1	0	2.81947612762	495.0	-385.0	499	-383	1
2.7	2015_Jun_18_1005	s	s	23	4	SIC	294	ABS	1	2	02VD 02VO 02VC 10MD 02MO 02MC 02RD 02RO	0	1	2.10069012642	None	None	None	None	1
2.7	2015_Jun_18_1005	s	s	23	4	SIC	295	RC	2	1	02VD 09VO 02VC 02MD 02MO 02MC 02RD 02RO	1	0	1.54865694046	265.0	-2.0	271	2	1
2.7	2015_Jun_18_1005	s	s	23	4	SIC	296	ABS	1	1	02VD 02VO 02VC 02MD 10MO 02MC 02RD 02RO	0	1	3.36588716507	None	None	None	None	1
2.7	2015_Jun_18_1005	s	s	23	4	SIC	297	RC	0	1	02VD 02VO 02VC 02MD 02MO 02MC 02RD 09RO	1	0	1.11293506622	125.0	29.0	120	31	1
2.7	2015_Jun_18_1005	s	s	23	4	SIC	298	ABS	2	0	02VD 02VO 10VC 02MD 02MO 02MC 02RD 02RO	0	1	1.965020895	None	None	None	None	1
2.7	2015_Jun_18_1005	s	s	23	4	SIC	299	RC	0	2	02VD 02VO 02VC 02MD 02MO 02MC 09RD 02RO	1	0	0.885847806931	-297.0	132.0	-294	136	1
2.7	2015_Jun_18_1005	s	s	23	4	SIC	300	ABS	2	1	02VD 10VO 02VC 02MD 02MO 02MC 02RD 02RO	0	1	2.05358982086	None	None	None	None	1
2.7	2015_Jun_18_1005	s	s	23	4	SIC	301	RC	2	0	02VD 02VO 09VC 02MD 02MO 02MC 02RD 02RO	1	0	1.24706697464	316.0	225.0	323	230	1
2.7	2015_Jun_18_1005	s	s	23	4	SIC	302	ABS	0	2	02VD 02VO 02VC 02MD 02MO 02MC 10RD 02RO	0	1	2.99843382835	None	None	None	None	1
2.7	2015_Jun_18_1005	s	s	23	4	SIC	303	RC	1	1	02VD 02VO 02VC 02MD 09MO 02MC 02RD 02RO	1	0	2.03568100929	281.0	-232.0	276	-243	1
2.7	2015_Jun_18_1005	s	s	23	4	SIC	304	ABS	0	1	02VD 02VO 02VC 02MD 02MO 02MC 02RD 10RO	0	1	6.45629191399	None	None	None	None	1
2.7	2015_Jun_18_1005	s	s	23	4	SIC	305	ABS	0	1	02VD 02VO 02VC 02MD 02MO 02MC 02RD 10RO	0	1	6.28485584259	None	None	None	None	1
2.7	2015_Jun_18_1005	s	s	23	4	SIC	306	RC	0	2	02VD 02VO 02VC 02MD 02MO 02MC 09RD 02RO	1	0	2.43031191826	407.0	379.0	401	385	1
2.7	2015_Jun_18_1005	s	s	23	4	SIC	307	ABS	1	2	02VD 02VO 02VC 10MD 02MO 02MC 02RD 02RO	0	1	3.86688804626	None	None	None	None	1
2.7	2015_Jun_18_1005	s	s	23	4	SIC	308	RC	2	1	02VD 09VO 02VC 02MD 02MO 02MC 02RD 02RO	1	0	0.835046768188	-314.0	-194.0	-316	-201	1
2.7	2015_Jun_18_1005	s	s	23	4	SIC	309	ABS	2	2	10VD 02VO 02VC 02MD 02MO 02MC 02RD 02RO	0	1	2.08265304565	None	None	None	None	1
2.7	2015_Jun_18_1005	s	s	23	4	SIC	310	ABS	1	1	02VD 02VO 02VC 02MD 10MO 02MC 02RD 02RO	0	1	4.57318282127	None	None	None	None	1
2.7	2015_Jun_18_1005	s	s	23	4	SIC	311	RC	1	1	02VD 02VO 02VC 02MD 09MO 02MC 02RD 02RO	1	0	0.717382907867	7.0	184.0	8	175	1
2.7	2015_Jun_18_1005	s	s	23	4	SIC	312	ABS	0	2	02VD 02VO 02VC 02MD 02MO 02MC 10RD 02RO	0	1	3.86380195618	None	None	None	None	1
2.7	2015_Jun_18_1005	s	s	23	4	SIC	313	RC	1	0	02VD 02VO 02VC 02MD 02MO 09MC 02RD 02RO	1	0	1.37140202522	427.0	362.0	427	361	1
2.7	2015_Jun_18_1005	s	s	23	4	SIC	314	ABS	2	1	02VD 10VO 02VC 02MD 02MO 02MC 02RD 02RO	0	1	2.47113800049	None	None	None	None	1
2.7	2015_Jun_18_1005	s	s	23	4	SIC	315	RC	1	2	02VD 02VO 02VC 09MD 02MO 02MC 02RD 02RO	1	0	1.6310198307	494.0	-87.0	485	-89	1
2.7	2015_Jun_18_1005	s	s	23	4	SIC	316	RC	2	2	09VD 02VO 02VC 02MD 02MO 02MC 02RD 02RO	1	0	2.9610748291	531.0	-63.0	534	-58	1
2.7	2015_Jun_18_1005	s	s	23	4	SIC	317	ABS	1	0	02VD 02VO 02VC 02MD 02MO 10MC 02RD 02RO	0	1	6.55602002144	None	None	None	None	1
2.7	2015_Jun_18_1005	s	s	23	4	SIC	318	RC	2	0	02VD 02VO 09VC 02MD 02MO 02MC 02RD 02RO	1	0	1.34783411026	-210.0	308.0	-217	311	1
2.7	2015_Jun_18_1005	s	s	23	4	SIC	319	RC	0	1	02VD 02VO 02VC 02MD 02MO 02MC 02RD 09RO	1	0	3.07153296471	-398.0	73.0	-390	78	1
2.7	2015_Jun_18_1005	s	s	23	4	SIC	320	ABS	2	0	02VD 02VO 10VC 02MD 02MO 02MC 02RD 02RO	0	1	3.17243099213	None	None	None	None	1
2.7	2015_Jun_18_1005	s	s	23	4	SIC	321	ABS	2	1	02VD 10VO 02VC 02MD 02MO 02MC 02RD 02RO	0	1	2.7604842186	None	None	None	None	1
2.7	2015_Jun_18_1005	s	s	23	4	SIC	322	RC	1	1	02VD 02VO 02VC 02MD 09MO 02MC 02RD 02RO	1	0	1.53668808937	383.0	-232.0	390	-230	1
2.7	2015_Jun_18_1005	s	s	23	4	SIC	323	RC	2	0	02VD 02VO 09VC 02MD 02MO 02MC 02RD 02RO	1	0	0.771034955978	-45.0	-22.0	-40	-27	1
2.7	2015_Jun_18_1005	s	s	23	4	SIC	324	ABS	2	0	02VD 02VO 10VC 02MD 02MO 02MC 02RD 02RO	0	1	2.43088293076	None	None	None	None	1
2.7	2015_Jun_18_1005	s	s	23	4	SIC	325	ABS	0	1	02VD 02VO 02VC 02MD 02MO 02MC 02RD 10RO	0	1	3.71523284912	None	None	None	None	1
2.7	2015_Jun_18_1005	s	s	23	4	SIC	326	RC	0	1	02VD 02VO 02VC 02MD 02MO 02MC 02RD 09RO	1	0	1.42383909225	-133.0	-234.0	-131	-234	1
2.7	2015_Jun_18_1005	s	s	23	4	SIC	327	RC	2	2	09VD 02VO 02VC 02MD 02MO 02MC 02RD 02RO	1	0	1.1126499176	-305.0	-287.0	-310	-295	1
2.7	2015_Jun_18_1005	s	s	23	4	SIC	328	RC	1	0	02VD 02VO 02VC 02MD 02MO 09MC 02RD 02RO	1	0	0.93499994278	-492.0	-157.0	-491	-160	1
2.7	2015_Jun_18_1005	s	s	23	4	SIC	329	ABS	1	2	02VD 02VO 02VC 10MD 02MO 02MC 02RD 02RO	0	1	2.27771902084	None	None	None	None	1
2.7	2015_Jun_18_1005	s	s	23	4	SIC	330	RC	0	2	02VD 02VO 02VC 02MD 02MO 02MC 09RD 02RO	1	0	1.9011900425	408.0	-338.0	411	-333	1
2.7	2015_Jun_18_1005	s	s	23	4	SIC	331	ABS	1	0	02VD 02VO 02VC 02MD 02MO 10MC 02RD 02RO	0	1	3.29029512405	None	None	None	None	1
2.7	2015_Jun_18_1005	s	s	23	4	SIC	332	ABS	0	2	02VD 02VO 02VC 02MD 02MO 02MC 10RD 02RO	0	1	4.38973808289	None	None	None	None	1
2.7	2015_Jun_18_1005	s	s	23	4	SIC	333	ABS	1	1	02VD 02VO 02VC 02MD 10MO 02MC 02RD 02RO	0	1	5.06073093414	None	None	None	None	1
2.7	2015_Jun_18_1005	s	s	23	4	SIC	334	RC	1	2	02VD 02VO 02VC 09MD 02MO 02MC 02RD 02RO	1	0	0.65854883194	38.0	137.0	36	136	1
2.7	2015_Jun_18_1005	s	s	23	4	SIC	335	ABS	2	2	10VD 02VO 02VC 02MD 02MO 02MC 02RD 02RO	0	1	1.92701005936	None	None	None	None	1
2.7	2015_Jun_18_1005	s	s	23	4	SIC	336	RC	2	1	02VD 09VO 02VC 02MD 02MO 02MC 02RD 02RO	1	0	1.3474240303	240.0	408.0	240	407	1
2.7	2015_Jun_18_1005	s	s	23	4	SIC	337	ABS	0	2	02VD 02VO 02VC 02MD 02MO 02MC 10RD 02RO	0	1	3.02441215515	None	None	None	None	1
2.7	2015_Jun_18_1005	s	s	23	4	SIC	338	RC	2	2	09VD 02VO 02VC 02MD 02MO 02MC 02RD 02RO	1	0	0.940968036652	-53.0	-178.0	-58	-176	1
2.7	2015_Jun_18_1005	s	s	23	4	SIC	339	RC	1	2	02VD 02VO 02VC 09MD 02MO 02MC 02RD 02RO	1	0	1.8321750164	406.0	172.0	404	173	1
2.7	2015_Jun_18_1005	s	s	23	4	SIC	340	RC	0	2	02VD 02VO 02VC 02MD 02MO 02MC 09RD 02RO	1	0	0.858649969101	-22.0	-141.0	-26	-143	1
2.7	2015_Jun_18_1005	s	s	23	4	SIC	341	ABS	2	1	02VD 10VO 02VC 02MD 02MO 02MC 02RD 02RO	0	1	2.44284391403	None	None	None	None	1
2.7	2015_Jun_18_1005	s	s	23	4	SIC	342	ABS	1	0	02VD 02VO 02VC 02MD 02MO 10MC 02RD 02RO	0	1	2.65444302559	None	None	None	None	1
2.7	2015_Jun_18_1005	s	s	23	4	SIC	343	ABS	0	1	02VD 02VO 02VC 02MD 02MO 02MC 02RD 10RO	0	1	4.342689991	None	None	None	None	1
2.7	2015_Jun_18_1005	s	s	23	4	SIC	344	ABS	2	0	02VD 02VO 10VC 02MD 02MO 02MC 02RD 02RO	0	1	1.8826379776	None	None	None	None	1
2.7	2015_Jun_18_1005	s	s	23	4	SIC	345	ABS	2	2	10VD 02VO 02VC 02MD 02MO 02MC 02RD 02RO	0	1	2.80758595467	None	None	None	None	1
2.7	2015_Jun_18_1005	s	s	23	4	SIC	346	ABS	1	2	02VD 02VO 02VC 10MD 02MO 02MC 02RD 02RO	0	1	1.98861002922	None	None	None	None	1
2.7	2015_Jun_18_1005	s	s	23	4	SIC	347	RC	1	0	02VD 02VO 02VC 02MD 02MO 09MC 02RD 02RO	1	0	0.832274913788	50.0	44.0	53	49	1
2.7	2015_Jun_18_1005	s	s	23	4	SIC	348	RC	0	1	02VD 02VO 02VC 02MD 02MO 02MC 02RD 09RO	1	0	2.13666176796	-474.0	-162.0	-475	-155	1
2.7	2015_Jun_18_1005	s	s	23	4	SIC	349	RC	2	1	02VD 09VO 02VC 02MD 02MO 02MC 02RD 02RO	1	0	0.889004230499	72.0	163.0	70	159	1
2.7	2015_Jun_18_1005	s	s	23	4	SIC	350	RC	1	1	02VD 02VO 02VC 02MD 09MO 02MC 02RD 02RO	1	0	0.948379993439	-306.0	-256.0	-301	-252	1
2.7	2015_Jun_18_1005	s	s	23	4	SIC	351	ABS	1	1	02VD 02VO 02VC 02MD 10MO 02MC 02RD 02RO	0	1	4.18971896172	None	None	None	None	1
2.7	2015_Jun_18_1005	s	s	23	4	SIC	352	RC	2	0	02VD 02VO 09VC 02MD 02MO 02MC 02RD 02RO	1	0	1.29162788391	212.0	-136.0	217	-137	1
2.7	2015_Jun_18_1005	s	s	23	4	SIC	353	RC	0	2	02VD 02VO 02VC 02MD 02MO 02MC 09RD 02RO	1	0	0.806691884995	-139.0	378.0	-146	378	1
2.7	2015_Jun_18_1005	s	s	23	4	SIC	354	RC	1	1	02VD 02VO 02VC 02MD 09MO 02MC 02RD 02RO	1	0	1.70314502716	-531.0	-128.0	-538	-129	1
2.7	2015_Jun_18_1005	s	s	23	4	SIC	355	RC	0	1	02VD 02VO 02VC 02MD 02MO 02MC 02RD 09RO	1	0	5.55511903763	-29.0	-260.0	-30	-263	1
2.7	2015_Jun_18_1005	s	s	23	4	SIC	356	ABS	2	0	02VD 02VO 10VC 02MD 02MO 02MC 02RD 02RO	0	1	2.50415110588	None	None	None	None	1
2.7	2015_Jun_18_1005	s	s	23	4	SIC	357	RC	2	1	02VD 09VO 02VC 02MD 02MO 02MC 02RD 02RO	1	0	1.46470999718	-393.0	-74.0	-389	-73	1
2.7	2015_Jun_18_1005	s	s	23	4	SIC	358	ABS	1	1	02VD 02VO 02VC 02MD 10MO 02MC 02RD 02RO	0	1	2.78370594978	None	None	None	None	1
2.7	2015_Jun_18_1005	s	s	23	4	SIC	359	RC	1	0	02VD 02VO 02VC 02MD 02MO 09MC 02RD 02RO	1	0	1.38307905197	268.0	-148.0	274	-147	1
2.7	2015_Jun_18_1005	s	s	23	4	SIC	360	ABS	0	2	02VD 02VO 02VC 02MD 02MO 02MC 10RD 02RO	0	1	2.60059809685	None	None	None	None	1
2.7	2015_Jun_18_1005	s	s	23	4	SIC	361	ABS	2	2	10VD 02VO 02VC 02MD 02MO 02MC 02RD 02RO	0	1	2.84431910515	None	None	None	None	1
2.7	2015_Jun_18_1005	s	s	23	4	SIC	362	RC	1	2	02VD 02VO 02VC 09MD 02MO 02MC 02RD 02RO	1	0	0.99178314209	-29.0	-83.0	-33	-85	1
2.7	2015_Jun_18_1005	s	s	23	4	SIC	363	ABS	1	0	02VD 02VO 02VC 02MD 02MO 10MC 02RD 02RO	0	1	3.50692486763	None	None	None	None	1
2.7	2015_Jun_18_1005	s	s	23	4	SIC	364	RC	2	2	09VD 02VO 02VC 02MD 02MO 02MC 02RD 02RO	1	0	1.69449806213	-540.0	322.0	-539	319	1
2.7	2015_Jun_18_1005	s	s	23	4	SIC	365	RC	2	0	02VD 02VO 09VC 02MD 02MO 02MC 02RD 02RO	1	0	1.26736688614	286.0	-193.0	287	-191	1
2.7	2015_Jun_18_1005	s	s	23	4	SIC	366	ABS	1	2	02VD 02VO 02VC 10MD 02MO 02MC 02RD 02RO	0	1	3.09500098228	None	None	None	None	1
2.7	2015_Jun_18_1005	s	s	23	4	SIC	367	ABS	0	1	02VD 02VO 02VC 02MD 02MO 02MC 02RD 10RO	0	1	8.46924209595	None	None	None	None	1
2.7	2015_Jun_18_1005	s	s	23	4	SIC	368	ABS	2	1	02VD 10VO 02VC 02MD 02MO 02MC 02RD 02RO	0	1	2.69486308098	None	None	None	None	1
2.7	2015_Jun_18_1005	s	s	23	4	SIC	369	RC	2	0	02VD 02VO 09VC 02MD 02MO 02MC 02RD 02RO	1	0	2.38884401321	-236.0	-380.0	-239	-376	1
2.7	2015_Jun_18_1005	s	s	23	4	SIC	370	ABS	2	2	10VD 02VO 02VC 02MD 02MO 02MC 02RD 02RO	0	1	2.56538295746	None	None	None	None	1
2.7	2015_Jun_18_1005	s	s	23	4	SIC	371	ABS	0	2	02VD 02VO 02VC 02MD 02MO 02MC 10RD 02RO	0	1	2.75368595123	None	None	None	None	1
2.7	2015_Jun_18_1005	s	s	23	4	SIC	372	RC	0	1	02VD 02VO 02VC 02MD 02MO 02MC 02RD 09RO	1	0	0.670271873474	-142.0	222.0	-140	222	1
2.7	2015_Jun_18_1005	s	s	23	4	SIC	373	RC	2	1	02VD 09VO 02VC 02MD 02MO 02MC 02RD 02RO	1	0	1.49430203438	203.0	-220.0	203	-218	1
2.7	2015_Jun_18_1005	s	s	23	4	SIC	374	ABS	1	2	02VD 02VO 02VC 10MD 02MO 02MC 02RD 02RO	0	1	2.18374705315	None	None	None	None	1
2.7	2015_Jun_18_1005	s	s	23	4	SIC	375	ABS	2	1	02VD 10VO 02VC 02MD 02MO 02MC 02RD 02RO	0	1	2.53011894226	None	None	None	None	1
2.7	2015_Jun_18_1005	s	s	23	4	SIC	376	RC	2	2	09VD 02VO 02VC 02MD 02MO 02MC 02RD 02RO	1	0	0.855710029602	294.0	189.0	292	188	1
2.7	2015_Jun_18_1005	s	s	23	4	SIC	377	ABS	2	0	02VD 02VO 10VC 02MD 02MO 02MC 02RD 02RO	0	1	1.79557180405	None	None	None	None	1
2.7	2015_Jun_18_1005	s	s	23	4	SIC	378	RC	1	0	02VD 02VO 02VC 02MD 02MO 09MC 02RD 02RO	1	0	1.54132795334	432.0	181.0	427	182	1
2.7	2015_Jun_18_1005	s	s	23	4	SIC	379	RC	0	2	02VD 02VO 02VC 02MD 02MO 02MC 09RD 02RO	1	0	0.705604791641	106.0	93.0	112	92	1
2.7	2015_Jun_18_1005	s	s	23	4	SIC	380	RC	1	1	02VD 02VO 02VC 02MD 09MO 02MC 02RD 02RO	1	0	0.835106134415	-14.0	238.0	-12	236	1
2.7	2015_Jun_18_1005	s	s	23	4	SIC	381	ABS	1	0	02VD 02VO 02VC 02MD 02MO 10MC 02RD 02RO	0	1	3.11342906952	None	None	None	None	1
2.7	2015_Jun_18_1005	s	s	23	4	SIC	382	ABS	0	1	02VD 02VO 02VC 02MD 02MO 02MC 02RD 10RO	0	1	5.21377301216	None	None	None	None	1
2.7	2015_Jun_18_1005	s	s	23	4	SIC	383	ABS	1	1	02VD 02VO 02VC 02MD 10MO 02MC 02RD 02RO	0	1	4.23676609993	None	None	None	None	1
2.7	2015_Jun_18_1005	s	s	23	4	SIC	384	RC	1	2	02VD 02VO 02VC 09MD 02MO 02MC 02RD 02RO	1	0	8.33664393425	360.0	-357.0	361	-351	1
2.7	2015_Jun_18_1005	s	s	23	4	SIC	385	ABS	2	1	02VD 10VO 02VC 02MD 02MO 02MC 02RD 02RO	0	1	1.85268187523	None	None	None	None	1
2.7	2015_Jun_18_1005	s	s	23	4	SIC	386	RC	1	0	02VD 02VO 02VC 02MD 02MO 09MC 02RD 02RO	1	0	1.21849489212	-513.0	278.0	-519	283	1
2.7	2015_Jun_18_1005	s	s	23	4	SIC	387	RC	2	0	02VD 02VO 09VC 02MD 02MO 02MC 02RD 02RO	1	0	1.24734687805	169.0	-74.0	169	-73	1
2.7	2015_Jun_18_1005	s	s	23	4	SIC	388	ABS	2	0	02VD 02VO 10VC 02MD 02MO 02MC 02RD 02RO	0	1	2.46610689163	None	None	None	None	1
2.7	2015_Jun_18_1005	s	s	23	4	SIC	389	ABS	1	1	02VD 02VO 02VC 02MD 10MO 02MC 02RD 02RO	0	1	3.80993795395	None	None	None	None	1
2.7	2015_Jun_18_1005	s	s	23	4	SIC	390	ABS	0	2	02VD 02VO 02VC 02MD 02MO 02MC 10RD 02RO	0	1	2.57697701454	None	None	None	None	1
2.7	2015_Jun_18_1005	s	s	23	4	SIC	391	RC	0	2	02VD 02VO 02VC 02MD 02MO 02MC 09RD 02RO	1	0	1.13301086426	-161.0	-343.0	-156	-344	1
2.7	2015_Jun_18_1005	s	s	23	4	SIC	392	ABS	1	0	02VD 02VO 02VC 02MD 02MO 10MC 02RD 02RO	0	1	3.51375198364	None	None	None	None	1
2.7	2015_Jun_18_1005	s	s	23	4	SIC	393	RC	2	2	09VD 02VO 02VC 02MD 02MO 02MC 02RD 02RO	1	0	2.17125797272	368.0	-259.0	362	-257	1
2.7	2015_Jun_18_1005	s	s	23	4	SIC	394	ABS	1	2	02VD 02VO 02VC 10MD 02MO 02MC 02RD 02RO	0	1	2.76019001007	None	None	None	None	1
2.7	2015_Jun_18_1005	s	s	23	4	SIC	395	RC	2	1	02VD 09VO 02VC 02MD 02MO 02MC 02RD 02RO	1	0	1.05553984642	351.0	64.0	348	58	1
2.7	2015_Jun_18_1005	s	s	23	4	SIC	396	ABS	0	1	02VD 02VO 02VC 02MD 02MO 02MC 02RD 10RO	0	1	3.10040903091	None	None	None	None	1
2.7	2015_Jun_18_1005	s	s	23	4	SIC	397	ABS	2	2	10VD 02VO 02VC 02MD 02MO 02MC 02RD 02RO	0	1	1.7363820076	None	None	None	None	1
2.7	2015_Jun_18_1005	s	s	23	4	SIC	398	RC	1	2	02VD 02VO 02VC 09MD 02MO 02MC 02RD 02RO	1	0	1.60675191879	437.0	-276.0	442	-270	1
2.7	2015_Jun_18_1005	s	s	23	4	SIC	399	RC	1	1	02VD 02VO 02VC 02MD 09MO 02MC 02RD 02RO	1	0	0.870367050171	-253.0	-36.0	-251	-37	1
2.7	2015_Jun_18_1005	s	s	23	4	SIC	400	RC	0	1	02VD 02VO 02VC 02MD 02MO 02MC 02RD 09RO	1	0	0.682092905045	-304.0	130.0	-306	132	1
2.7	2015_Jun_18_1005	s	s	23	4	SIC	401	RC	2	0	02VD 02VO 09VC 02MD 02MO 02MC 02RD 02RO	1	0	0.676836967468	-193.0	243.0	-196	246	1
2.7	2015_Jun_18_1005	s	s	23	4	SIC	402	RC	0	1	02VD 02VO 02VC 02MD 02MO 02MC 02RD 09RO	1	0	0.747189998627	-31.0	304.0	-22	307	1
2.7	2015_Jun_18_1005	s	s	23	4	SIC	403	RC	2	2	09VD 02VO 02VC 02MD 02MO 02MC 02RD 02RO	1	0	1.12349510193	-69.0	-332.0	-71	-331	1
2.7	2015_Jun_18_1005	s	s	23	4	SIC	404	ABS	2	0	02VD 02VO 10VC 02MD 02MO 02MC 02RD 02RO	0	1	2.64533114433	None	None	None	None	1
2.7	2015_Jun_18_1005	s	s	23	4	SIC	405	ABS	2	1	02VD 10VO 02VC 02MD 02MO 02MC 02RD 02RO	0	1	2.39247298241	None	None	None	None	1
2.7	2015_Jun_18_1005	s	s	23	4	SIC	406	RC	0	2	02VD 02VO 02VC 02MD 02MO 02MC 09RD 02RO	1	0	1.13304305077	78.0	-389.0	74	-394	1
2.7	2015_Jun_18_1005	s	s	23	4	SIC	407	ABS	1	1	02VD 02VO 02VC 02MD 10MO 02MC 02RD 02RO	0	1	2.16523909569	None	None	None	None	1
2.7	2015_Jun_18_1005	s	s	23	4	SIC	408	ABS	1	0	02VD 02VO 02VC 02MD 02MO 10MC 02RD 02RO	0	1	4.14881515503	None	None	None	None	1
2.7	2015_Jun_18_1005	s	s	23	4	SIC	409	ABS	0	2	02VD 02VO 02VC 02MD 02MO 02MC 10RD 02RO	0	1	2.62456393242	None	None	None	None	1
2.7	2015_Jun_18_1005	s	s	23	4	SIC	410	ABS	0	1	02VD 02VO 02VC 02MD 02MO 02MC 02RD 10RO	0	1	5.23200798035	None	None	None	None	1
2.7	2015_Jun_18_1005	s	s	23	4	SIC	411	RC	2	1	02VD 09VO 02VC 02MD 02MO 02MC 02RD 02RO	1	0	0.747167110443	-173.0	-99.0	-174	-90	1
2.7	2015_Jun_18_1005	s	s	23	4	SIC	412	RC	1	0	02VD 02VO 02VC 02MD 02MO 09MC 02RD 02RO	1	0	3.5490219593	-539.0	-82.0	-537	-81	1
2.7	2015_Jun_18_1005	s	s	23	4	SIC	413	ABS	1	2	02VD 02VO 02VC 10MD 02MO 02MC 02RD 02RO	0	1	2.1533768177	None	None	None	None	1
2.7	2015_Jun_18_1005	s	s	23	4	SIC	414	RC	1	1	02VD 02VO 02VC 02MD 09MO 02MC 02RD 02RO	1	0	1.82099103928	-161.0	-343.0	-160	-342	1
2.7	2015_Jun_18_1005	s	s	23	4	SIC	415	RC	1	2	02VD 02VO 02VC 09MD 02MO 02MC 02RD 02RO	1	0	0.705583095551	-109.0	87.0	-110	87	1
2.7	2015_Jun_18_1005	s	s	23	4	SIC	416	ABS	2	2	10VD 02VO 02VC 02MD 02MO 02MC 02RD 02RO	0	1	2.67136216164	None	None	None	None	1
2.7	2015_Jun_18_1005	s	s	23	4	SIC	417	RC	0	2	02VD 02VO 02VC 02MD 02MO 02MC 09RD 02RO	1	0	2.47118902206	506.0	-196.0	508	-203	1
2.7	2015_Jun_18_1005	s	s	23	4	SIC	418	RC	1	0	02VD 02VO 02VC 02MD 02MO 09MC 02RD 02RO	1	0	2.66328001022	395.0	390.0	395	393	1
2.7	2015_Jun_18_1005	s	s	23	4	SIC	419	RC	2	0	02VD 02VO 09VC 02MD 02MO 02MC 02RD 02RO	1	0	0.717337846756	-86.0	218.0	-88	221	1
2.7	2015_Jun_18_1005	s	s	23	4	SIC	420	ABS	1	1	02VD 02VO 02VC 02MD 10MO 02MC 02RD 02RO	0	1	3.03383302689	None	None	None	None	1
2.7	2015_Jun_18_1005	s	s	23	4	SIC	421	RC	1	1	02VD 02VO 02VC 02MD 09MO 02MC 02RD 02RO	1	0	2.10136699677	344.0	-259.0	335	-254	1
2.7	2015_Jun_18_1005	s	s	23	4	SIC	422	ABS	2	0	02VD 02VO 10VC 02MD 02MO 02MC 02RD 02RO	0	1	2.5840420723	None	None	None	None	1
2.7	2015_Jun_18_1005	s	s	23	4	SIC	423	ABS	0	2	02VD 02VO 02VC 02MD 02MO 02MC 10RD 02RO	0	1	2.842045784	None	None	None	None	1
2.7	2015_Jun_18_1005	s	s	23	4	SIC	424	RC	2	2	09VD 02VO 02VC 02MD 02MO 02MC 02RD 02RO	1	0	1.15294885635	452.0	367.0	451	367	1
2.7	2015_Jun_18_1005	s	s	23	4	SIC	425	ABS	2	2	10VD 02VO 02VC 02MD 02MO 02MC 02RD 02RO	0	1	2.23582196236	None	None	None	None	1
2.7	2015_Jun_18_1005	s	s	23	4	SIC	426	RC	2	1	02VD 09VO 02VC 02MD 02MO 02MC 02RD 02RO	1	0	0.929324865341	-501.0	306.0	-502	307	1
2.7	2015_Jun_18_1005	s	s	23	4	SIC	427	RC	0	1	02VD 02VO 02VC 02MD 02MO 02MC 02RD 09RO	1	0	0.949029922485	-524.0	169.0	-527	176	1
2.7	2015_Jun_18_1005	s	s	23	4	SIC	428	ABS	1	0	02VD 02VO 02VC 02MD 02MO 10MC 02RD 02RO	0	1	2.94194197655	None	None	None	None	1
2.7	2015_Jun_18_1005	s	s	23	4	SIC	429	RC	1	2	02VD 02VO 02VC 09MD 02MO 02MC 02RD 02RO	1	0	0.911293983459	39.0	341.0	43	342	1
2.7	2015_Jun_18_1005	s	s	23	4	SIC	430	ABS	0	1	02VD 02VO 02VC 02MD 02MO 02MC 02RD 10RO	0	1	5.10265612602	None	None	None	None	1
2.7	2015_Jun_18_1005	s	s	23	4	SIC	431	ABS	2	1	02VD 10VO 02VC 02MD 02MO 02MC 02RD 02RO	0	1	1.92972016335	None	None	None	None	1
2.7	2015_Jun_18_1005	s	s	23	4	SIC	432	ABS	1	2	02VD 02VO 02VC 10MD 02MO 02MC 02RD 02RO	0	1	2.07732105255	None	None	None	None	1
2.7	2015_Jun_18_1005	s	s	23	4	SIC	433	ABS	2	1	02VD 10VO 02VC 02MD 02MO 02MC 02RD 02RO	0	1	3.01633000374	None	None	None	None	1
2.7	2015_Jun_18_1005	s	s	23	4	SIC	434	ABS	1	2	02VD 02VO 02VC 10MD 02MO 02MC 02RD 02RO	0	1	2.22406506538	None	None	None	None	1
2.7	2015_Jun_18_1005	s	s	23	4	SIC	435	RC	0	2	02VD 02VO 02VC 02MD 02MO 02MC 09RD 02RO	1	0	1.75324583054	472.0	207.0	467	201	1
2.7	2015_Jun_18_1005	s	s	23	4	SIC	436	RC	0	1	02VD 02VO 02VC 02MD 02MO 02MC 02RD 09RO	1	0	4.56635594368	-8.0	-155.0	-4	-154	1
2.7	2015_Jun_18_1005	s	s	23	4	SIC	437	ABS	0	2	02VD 02VO 02VC 02MD 02MO 02MC 10RD 02RO	0	1	3.43142700195	None	None	None	None	1
2.7	2015_Jun_18_1005	s	s	23	4	SIC	438	ABS	1	0	02VD 02VO 02VC 02MD 02MO 10MC 02RD 02RO	0	1	4.79042100906	None	None	None	None	1
2.7	2015_Jun_18_1005	s	s	23	4	SIC	439	ABS	2	2	10VD 02VO 02VC 02MD 02MO 02MC 02RD 02RO	0	1	2.54861283302	None	None	None	None	1
2.7	2015_Jun_18_1005	s	s	23	4	SIC	440	ABS	1	1	02VD 02VO 02VC 02MD 10MO 02MC 02RD 02RO	0	1	3.17743492126	None	None	None	None	1
2.7	2015_Jun_18_1005	s	s	23	4	SIC	441	ABS	0	1	02VD 02VO 02VC 02MD 02MO 02MC 02RD 10RO	0	1	4.75468492508	None	None	None	None	1
2.7	2015_Jun_18_1005	s	s	23	4	SIC	442	RC	2	0	02VD 02VO 09VC 02MD 02MO 02MC 02RD 02RO	1	0	2.306401968	91.0	-260.0	89	-265	1
2.7	2015_Jun_18_1005	s	s	23	4	SIC	443	RC	1	1	02VD 02VO 02VC 02MD 09MO 02MC 02RD 02RO	1	0	0.879640102386	-81.0	217.0	-81	219	1
2.7	2015_Jun_18_1005	s	s	23	4	SIC	444	RC	1	0	02VD 02VO 02VC 02MD 02MO 09MC 02RD 02RO	1	0	1.75911998749	423.0	-364.0	423	-366	1
2.7	2015_Jun_18_1005	s	s	23	4	SIC	445	RC	2	1	02VD 09VO 02VC 02MD 02MO 02MC 02RD 02RO	1	0	1.43535399437	-340.0	383.0	-345	383	1
2.7	2015_Jun_18_1005	s	s	23	4	SIC	446	RC	2	2	09VD 02VO 02VC 02MD 02MO 02MC 02RD 02RO	1	0	1.99769902229	506.0	-244.0	504	-242	1
2.7	2015_Jun_18_1005	s	s	23	4	SIC	447	ABS	2	0	02VD 02VO 10VC 02MD 02MO 02MC 02RD 02RO	0	1	2.03137207031	None	None	None	None	1
2.7	2015_Jun_18_1005	s	s	23	4	SIC	448	RC	1	2	02VD 02VO 02VC 09MD 02MO 02MC 02RD 02RO	1	0	1.53623890877	463.0	221.0	459	216	1
2.7	2015_Jun_18_1005	s	s	23	4	SIC	449	ABS	2	2	10VD 02VO 02VC 02MD 02MO 02MC 02RD 02RO	0	1	1.84252214432	None	None	None	None	1
2.7	2015_Jun_18_1005	s	s	23	4	SIC	450	RC	0	1	02VD 02VO 02VC 02MD 02MO 02MC 02RD 09RO	1	0	1.9953649044	375.0	225.0	369	217	1
2.7	2015_Jun_18_1005	s	s	23	4	SIC	451	RC	2	0	02VD 02VO 09VC 02MD 02MO 02MC 02RD 02RO	1	0	1.28936100006	-223.0	-341.0	-229	-341	1
2.7	2015_Jun_18_1005	s	s	23	4	SIC	452	ABS	1	0	02VD 02VO 02VC 02MD 02MO 10MC 02RD 02RO	0	1	4.69584393501	None	None	None	None	1
2.7	2015_Jun_18_1005	s	s	23	4	SIC	453	ABS	2	1	02VD 10VO 02VC 02MD 02MO 02MC 02RD 02RO	0	1	2.64294481277	None	None	None	None	1
2.7	2015_Jun_18_1005	s	s	23	4	SIC	454	ABS	2	0	02VD 02VO 10VC 02MD 02MO 02MC 02RD 02RO	0	1	2.49516987801	None	None	None	None	1
2.7	2015_Jun_18_1005	s	s	23	4	SIC	455	ABS	1	1	02VD 02VO 02VC 02MD 10MO 02MC 02RD 02RO	0	1	4.11444807053	None	None	None	None	1
2.7	2015_Jun_18_1005	s	s	23	4	SIC	456	RC	2	2	09VD 02VO 02VC 02MD 02MO 02MC 02RD 02RO	1	0	2.21897602081	532.0	-358.0	535	-357	1
2.7	2015_Jun_18_1005	s	s	23	4	SIC	457	RC	0	2	02VD 02VO 02VC 02MD 02MO 02MC 09RD 02RO	1	0	1.50091004372	514.0	219.0	517	219	1
2.7	2015_Jun_18_1005	s	s	23	4	SIC	458	ABS	1	2	02VD 02VO 02VC 10MD 02MO 02MC 02RD 02RO	0	1	1.82991790771	None	None	None	None	1
2.7	2015_Jun_18_1005	s	s	23	4	SIC	459	RC	1	2	02VD 02VO 02VC 09MD 02MO 02MC 02RD 02RO	1	0	0.677073001862	24.0	23.0	18	25	1
2.7	2015_Jun_18_1005	s	s	23	4	SIC	460	ABS	0	2	02VD 02VO 02VC 02MD 02MO 02MC 10RD 02RO	0	1	3.06644582748	None	None	None	None	1
2.7	2015_Jun_18_1005	s	s	23	4	SIC	461	ABS	0	1	02VD 02VO 02VC 02MD 02MO 02MC 02RD 10RO	0	1	5.26068902016	None	None	None	None	1
2.7	2015_Jun_18_1005	s	s	23	4	SIC	462	RC	2	1	02VD 09VO 02VC 02MD 02MO 02MC 02RD 02RO	1	0	1.12439107895	153.0	288.0	150	291	1
2.7	2015_Jun_18_1005	s	s	23	4	SIC	463	RC	1	1	02VD 02VO 02VC 02MD 09MO 02MC 02RD 02RO	1	0	1.10226893425	-354.0	288.0	-350	291	1
2.7	2015_Jun_18_1005	s	s	23	4	SIC	464	RC	1	0	02VD 02VO 02VC 02MD 02MO 09MC 02RD 02RO	1	0	0.932848930359	-403.0	-275.0	-410	-279	1
2.7	2015_Jun_18_1005	s	s	23	4	SIC	465	RC	2	1	02VD 09VO 02VC 02MD 02MO 02MC 02RD 02RO	1	0	2.30645799637	-423.0	297.0	-420	299	1
2.7	2015_Jun_18_1005	s	s	23	4	SIC	466	ABS	2	0	02VD 02VO 10VC 02MD 02MO 02MC 02RD 02RO	0	1	3.18115401268	None	None	None	None	1
2.7	2015_Jun_18_1005	s	s	23	4	SIC	467	RC	1	0	02VD 02VO 02VC 02MD 02MO 09MC 02RD 02RO	1	0	1.76495599747	-332.0	378.0	-335	378	1
2.7	2015_Jun_18_1005	s	s	23	4	SIC	468	RC	0	2	02VD 02VO 02VC 02MD 02MO 02MC 09RD 02RO	1	0	0.729192018509	-285.0	-117.0	-280	-116	1
2.7	2015_Jun_18_1005	s	s	23	4	SIC	469	ABS	0	1	02VD 02VO 02VC 02MD 02MO 02MC 02RD 10RO	0	1	4.67598581314	None	None	None	None	1
2.7	2015_Jun_18_1005	s	s	23	4	SIC	470	ABS	2	2	10VD 02VO 02VC 02MD 02MO 02MC 02RD 02RO	0	1	3.25486803055	None	None	None	None	1
2.7	2015_Jun_18_1005	s	s	23	4	SIC	471	RC	2	0	02VD 02VO 09VC 02MD 02MO 02MC 02RD 02RO	1	0	1.62961697578	500.0	372.0	498	369	1
2.7	2015_Jun_18_1005	s	s	23	4	SIC	472	ABS	2	1	02VD 10VO 02VC 02MD 02MO 02MC 02RD 02RO	0	1	2.06523799896	None	None	None	None	1
2.7	2015_Jun_18_1005	s	s	23	4	SIC	473	RC	2	2	09VD 02VO 02VC 02MD 02MO 02MC 02RD 02RO	1	0	2.24501395226	466.0	385.0	454	387	1
2.7	2015_Jun_18_1005	s	s	23	4	SIC	474	ABS	1	2	02VD 02VO 02VC 10MD 02MO 02MC 02RD 02RO	0	1	2.67130017281	None	None	None	None	1
2.7	2015_Jun_18_1005	s	s	23	4	SIC	475	ABS	1	1	02VD 02VO 02VC 02MD 10MO 02MC 02RD 02RO	0	1	5.37044000626	None	None	None	None	1
2.7	2015_Jun_18_1005	s	s	23	4	SIC	476	ABS	1	0	02VD 02VO 02VC 02MD 02MO 10MC 02RD 02RO	0	1	11.2992098331	None	None	None	None	1
2.7	2015_Jun_18_1005	s	s	23	4	SIC	477	RC	1	1	02VD 02VO 02VC 02MD 09MO 02MC 02RD 02RO	1	0	1.16462302208	-297.0	-343.0	-295	-339	1
2.7	2015_Jun_18_1005	s	s	23	4	SIC	478	RC	0	1	02VD 02VO 02VC 02MD 02MO 02MC 02RD 09RO	1	0	3.63627314568	53.0	296.0	49	298	1
2.7	2015_Jun_18_1005	s	s	23	4	SIC	479	RC	1	2	02VD 02VO 02VC 09MD 02MO 02MC 02RD 02RO	1	0	0.682035923004	-116.0	244.0	-121	249	1
2.7	2015_Jun_18_1005	s	s	23	4	SIC	480	ABS	0	2	02VD 02VO 02VC 02MD 02MO 02MC 10RD 02RO	0	1	5.72660708427	None	None	None	None	1
