Version	Date	Stimuli	Method	Subject	Session	Condition	Trial	Target	Channel1	Channel2	Distractors	LMouseButton	RMouseButton	RT	TargetX	TargetY	ResponseX	ResponseY	Correct
2.7	2015_Jun_16_1007	s	s	23	2	Capacity	1	ABS	2	0	16VC 08MC	1	0	3.35403609276	None	None	-318	276	0
2.7	2015_Jun_16_1007	s	s	23	2	Capacity	2	ABS	1	0	08VC 16MC	0	1	2.62419199944	None	None	None	None	1
2.7	2015_Jun_16_1007	s	s	23	2	Capacity	3	RC	2	0	15VC 08MC	1	0	1.717897892	390.0	-144.0	398	-150	1
2.7	2015_Jun_16_1007	s	s	23	2	Capacity	4	RC	1	0	08VC 15MC	1	0	1.88940215111	-500.0	275.0	-494	271	1
2.7	2015_Jun_16_1007	s	s	23	2	Capacity	5	RC	1	0	08VC 15MC	1	0	1.34816813469	-201.0	-155.0	-198	-152	1
2.7	2015_Jun_16_1007	s	s	23	2	Capacity	6	ABS	2	0	16VC 08MC	0	1	4.03200507164	None	None	None	None	1
2.7	2015_Jun_16_1007	s	s	23	2	Capacity	7	ABS	1	0	08VC 16MC	0	1	7.20333504677	None	None	None	None	1
2.7	2015_Jun_16_1007	s	s	23	2	Capacity	8	RC	2	0	15VC 08MC	1	0	0.894327878952	335.0	74.0	326	74	1
2.7	2015_Jun_16_1007	s	s	23	2	Capacity	9	RC	1	0	08VC 15MC	1	0	0.877311944962	-235.0	54.0	-230	55	1
2.7	2015_Jun_16_1007	s	s	23	2	Capacity	10	ABS	1	0	08VC 16MC	0	1	2.36518597603	None	None	None	None	1
2.7	2015_Jun_16_1007	s	s	23	2	Capacity	11	RC	2	0	15VC 08MC	1	0	0.7479429245	-230.0	173.0	-236	170	1
2.7	2015_Jun_16_1007	s	s	23	2	Capacity	12	ABS	2	0	16VC 08MC	0	1	1.85916090012	None	None	None	None	1
2.7	2015_Jun_16_1007	s	s	23	2	Capacity	13	ABS	2	0	16VC 08MC	0	1	1.87940716743	None	None	None	None	1
2.7	2015_Jun_16_1007	s	s	23	2	Capacity	14	RC	1	0	08VC 15MC	1	0	2.85641407967	343.0	-46.0	353	-44	1
2.7	2015_Jun_16_1007	s	s	23	2	Capacity	15	RC	2	0	15VC 08MC	1	0	2.08949398994	-391.0	292.0	-386	288	1
2.7	2015_Jun_16_1007	s	s	23	2	Capacity	16	ABS	1	0	08VC 16MC	0	1	2.59508705139	None	None	None	None	1
2.7	2015_Jun_16_1007	s	s	23	2	Capacity	17	RC	2	0	15VC 08MC	1	0	0.988082885742	-505.0	90.0	-497	93	1
2.7	2015_Jun_16_1007	s	s	23	2	Capacity	18	RC	1	0	08VC 15MC	1	0	1.10074496269	54.0	-105.0	52	-105	1
2.7	2015_Jun_16_1007	s	s	23	2	Capacity	19	ABS	1	0	08VC 16MC	0	1	2.39518690109	None	None	None	None	1
2.7	2015_Jun_16_1007	s	s	23	2	Capacity	20	ABS	2	0	16VC 08MC	0	1	2.33690810204	None	None	None	None	1
2.7	2015_Jun_16_1007	s	s	23	2	Capacity	21	ABS	2	0	16VC 08MC	0	1	2.34172105789	None	None	None	None	1
2.7	2015_Jun_16_1007	s	s	23	2	Capacity	22	ABS	1	0	08VC 16MC	0	1	2.60079097748	None	None	None	None	1
2.7	2015_Jun_16_1007	s	s	23	2	Capacity	23	RC	2	0	15VC 08MC	1	0	0.976207017899	281.0	90.0	280	93	1
2.7	2015_Jun_16_1007	s	s	23	2	Capacity	24	RC	1	0	08VC 15MC	1	0	1.06480813026	-25.0	-217.0	-20	-218	1
2.7	2015_Jun_16_1007	s	s	23	2	Capacity	25	RC	2	0	15VC 08MC	0	1	1.92972707748	460.0	-402.0	None	None	0
2.7	2015_Jun_16_1007	s	s	23	2	Capacity	26	ABS	2	0	16VC 08MC	0	1	1.88268685341	None	None	None	None	1
2.7	2015_Jun_16_1007	s	s	23	2	Capacity	27	RC	1	0	08VC 15MC	1	0	1.52960109711	150.0	-75.0	153	-66	1
2.7	2015_Jun_16_1007	s	s	23	2	Capacity	28	ABS	1	0	08VC 16MC	0	1	2.51541090012	None	None	None	None	1
2.7	2015_Jun_16_1007	s	s	23	2	Capacity	29	ABS	1	0	08VC 16MC	0	1	3.30744695663	None	None	None	None	1
2.7	2015_Jun_16_1007	s	s	23	2	Capacity	30	ABS	2	0	16VC 08MC	0	1	3.21945595741	None	None	None	None	1
2.7	2015_Jun_16_1007	s	s	23	2	Capacity	31	RC	1	0	08VC 15MC	1	0	0.929268121719	-224.0	-4.0	-229	2	1
2.7	2015_Jun_16_1007	s	s	23	2	Capacity	32	RC	2	0	15VC 08MC	1	0	1.15294981003	214.0	355.0	216	354	1
2.7	2015_Jun_16_1007	s	s	23	2	Capacity	33	ABS	2	0	16VC 08MC	0	1	2.1014611721	None	None	None	None	1
2.7	2015_Jun_16_1007	s	s	23	2	Capacity	34	RC	1	0	08VC 15MC	1	0	2.63102698326	-257.0	-355.0	-257	-356	1
2.7	2015_Jun_16_1007	s	s	23	2	Capacity	35	ABS	1	0	08VC 16MC	0	1	1.91327619553	None	None	None	None	1
2.7	2015_Jun_16_1007	s	s	23	2	Capacity	36	RC	2	0	15VC 08MC	1	0	1.29961299896	263.0	-152.0	261	-144	1
2.7	2015_Jun_16_1007	s	s	23	2	Capacity	37	RC	1	0	08VC 15MC	1	0	0.735599040985	-114.0	-34.0	-112	-37	1
2.7	2015_Jun_16_1007	s	s	23	2	Capacity	38	ABS	1	0	08VC 16MC	0	1	1.90623307228	None	None	None	None	1
2.7	2015_Jun_16_1007	s	s	23	2	Capacity	39	RC	2	0	15VC 08MC	1	0	1.03049302101	-505.0	-248.0	-513	-250	1
2.7	2015_Jun_16_1007	s	s	23	2	Capacity	40	ABS	2	0	16VC 08MC	0	1	2.03058505058	None	None	None	None	1
2.7	2015_Jun_16_1007	s	s	23	2	Capacity	41	RC	1	0	08VC 15MC	1	0	1.78847312927	202.0	150.0	209	158	1
2.7	2015_Jun_16_1007	s	s	23	2	Capacity	42	RC	2	0	15VC 08MC	1	0	1.15961813927	-172.0	409.0	-165	406	1
2.7	2015_Jun_16_1007	s	s	23	2	Capacity	43	ABS	1	0	08VC 16MC	0	1	1.51770091057	None	None	None	None	1
2.7	2015_Jun_16_1007	s	s	23	2	Capacity	44	ABS	2	0	16VC 08MC	0	1	1.30120515823	None	None	None	None	1
2.7	2015_Jun_16_1007	s	s	23	2	Capacity	45	RC	1	0	08VC 15MC	1	0	1.11760401726	-379.0	-340.0	-378	-331	1
2.7	2015_Jun_16_1007	s	s	23	2	Capacity	46	ABS	1	0	08VC 16MC	0	1	2.41887187958	None	None	None	None	1
2.7	2015_Jun_16_1007	s	s	23	2	Capacity	47	RC	2	0	15VC 08MC	1	0	0.92294883728	370.0	133.0	372	136	1
2.7	2015_Jun_16_1007	s	s	23	2	Capacity	48	ABS	2	0	16VC 08MC	0	1	1.22351193428	None	None	None	None	1
2.7	2015_Jun_16_1007	s	s	23	2	Capacity	49	ABS	2	0	16VC 08MC	0	1	1.65902996063	None	None	None	None	1
2.7	2015_Jun_16_1007	s	s	23	2	Capacity	50	RC	1	0	08VC 15MC	1	0	0.830243110657	-306.0	288.0	-308	285	1
2.7	2015_Jun_16_1007	s	s	23	2	Capacity	51	RC	2	0	15VC 08MC	1	0	1.97092294693	113.0	-379.0	111	-375	1
2.7	2015_Jun_16_1007	s	s	23	2	Capacity	52	ABS	1	0	08VC 16MC	0	1	2.12486004829	None	None	None	None	1
2.7	2015_Jun_16_1007	s	s	23	2	Capacity	53	ABS	2	0	16VC 08MC	0	1	1.99807906151	None	None	None	None	1
2.7	2015_Jun_16_1007	s	s	23	2	Capacity	54	ABS	1	0	08VC 16MC	0	1	1.92470097542	None	None	None	None	1
2.7	2015_Jun_16_1007	s	s	23	2	Capacity	55	RC	2	0	15VC 08MC	1	0	0.703106880188	183.0	229.0	180	232	1
2.7	2015_Jun_16_1007	s	s	23	2	Capacity	56	RC	1	0	08VC 15MC	0	1	1.25381088257	448.0	267.0	None	None	0
2.7	2015_Jun_16_1007	s	s	23	2	Capacity	57	ABS	1	0	08VC 16MC	0	1	1.62370586395	None	None	None	None	1
2.7	2015_Jun_16_1007	s	s	23	2	Capacity	58	RC	2	0	15VC 08MC	1	0	1.08938789368	519.0	355.0	518	359	1
2.7	2015_Jun_16_1007	s	s	23	2	Capacity	59	RC	1	0	08VC 15MC	1	0	0.900829792023	-120.0	314.0	-111	310	1
2.7	2015_Jun_16_1007	s	s	23	2	Capacity	60	ABS	2	0	16VC 08MC	0	1	1.60018706322	None	None	None	None	1
2.7	2015_Jun_16_1007	s	s	23	2	Capacity	61	ABS	1	0	08VC 16MC	0	1	2.25936484337	None	None	None	None	1
2.7	2015_Jun_16_1007	s	s	23	2	Capacity	62	ABS	2	0	16VC 08MC	0	1	1.63061499596	None	None	None	None	1
2.7	2015_Jun_16_1007	s	s	23	2	Capacity	63	RC	1	0	08VC 15MC	1	0	0.994745969772	539.0	264.0	542	265	1
2.7	2015_Jun_16_1007	s	s	23	2	Capacity	64	RC	2	0	15VC 08MC	1	0	0.729129076004	-63.0	290.0	-61	294	1
2.7	2015_Jun_16_1007	s	s	23	2	Capacity	1	ABS	0	2	16RD 08RO	0	1	3.11414909363	None	None	None	None	1
2.7	2015_Jun_16_1007	s	s	23	2	Capacity	2	RC	0	1	08RD 15RO	1	0	1.27740311623	375.0	393.0	381	397	1
2.7	2015_Jun_16_1007	s	s	23	2	Capacity	3	RC	0	2	15RD 08RO	1	0	2.53694796562	-229.0	368.0	-228	373	1
2.7	2015_Jun_16_1007	s	s	23	2	Capacity	4	ABS	0	1	08RD 16RO	0	1	6.12008500099	None	None	None	None	1
2.7	2015_Jun_16_1007	s	s	23	2	Capacity	5	RC	0	2	15RD 08RO	1	0	2.63602018356	192.0	-68.0	190	-72	1
2.7	2015_Jun_16_1007	s	s	23	2	Capacity	6	ABS	0	2	16RD 08RO	0	1	5.54358005524	None	None	None	None	1
2.7	2015_Jun_16_1007	s	s	23	2	Capacity	7	ABS	0	1	08RD 16RO	0	1	4.47815108299	None	None	None	None	1
2.7	2015_Jun_16_1007	s	s	23	2	Capacity	8	RC	0	1	08RD 15RO	0	1	4.03710794449	87.0	-204.0	None	None	0
2.7	2015_Jun_16_1007	s	s	23	2	Capacity	9	ABS	0	2	16RD 08RO	0	1	4.51630711555	None	None	None	None	1
2.7	2015_Jun_16_1007	s	s	23	2	Capacity	10	RC	0	2	15RD 08RO	0	1	3.66876387596	-274.0	-369.0	None	None	0
2.7	2015_Jun_16_1007	s	s	23	2	Capacity	11	RC	0	1	08RD 15RO	1	0	3.51877903938	-350.0	-340.0	-351	-338	1
2.7	2015_Jun_16_1007	s	s	23	2	Capacity	12	ABS	0	1	08RD 16RO	0	1	5.93860507011	None	None	None	None	1
2.7	2015_Jun_16_1007	s	s	23	2	Capacity	13	ABS	0	1	08RD 16RO	0	1	4.96651601791	None	None	None	None	1
2.7	2015_Jun_16_1007	s	s	23	2	Capacity	14	ABS	0	2	16RD 08RO	0	1	5.1548781395	None	None	None	None	1
2.7	2015_Jun_16_1007	s	s	23	2	Capacity	15	RC	0	1	08RD 15RO	1	0	2.6359398365	351.0	-57.0	348	-52	1
2.7	2015_Jun_16_1007	s	s	23	2	Capacity	16	RC	0	2	15RD 08RO	1	0	6.41439294815	21.0	57.0	26	63	1
2.7	2015_Jun_16_1007	s	s	23	2	Capacity	17	RC	0	1	08RD 15RO	1	0	3.46681499481	393.0	280.0	395	280	1
2.7	2015_Jun_16_1007	s	s	23	2	Capacity	18	ABS	0	2	16RD 08RO	0	1	6.31213498116	None	None	None	None	1
2.7	2015_Jun_16_1007	s	s	23	2	Capacity	19	RC	0	2	15RD 08RO	1	0	2.53686594963	161.0	-284.0	158	-288	1
2.7	2015_Jun_16_1007	s	s	23	2	Capacity	20	ABS	0	1	08RD 16RO	0	1	7.50899600983	None	None	None	None	1
2.7	2015_Jun_16_1007	s	s	23	2	Capacity	21	RC	0	1	08RD 15RO	1	0	3.4080119133	174.0	151.0	184	153	1
2.7	2015_Jun_16_1007	s	s	23	2	Capacity	22	RC	0	2	15RD 08RO	0	1	4.3494849205	-235.0	253.0	None	None	0
2.7	2015_Jun_16_1007	s	s	23	2	Capacity	23	ABS	0	1	08RD 16RO	0	1	7.95191287994	None	None	None	None	1
2.7	2015_Jun_16_1007	s	s	23	2	Capacity	24	ABS	0	2	16RD 08RO	0	1	3.3426861763	None	None	None	None	1
2.7	2015_Jun_16_1007	s	s	23	2	Capacity	25	ABS	0	2	16RD 08RO	0	1	5.48010802269	None	None	None	None	1
2.7	2015_Jun_16_1007	s	s	23	2	Capacity	26	RC	0	2	15RD 08RO	1	0	3.03314805031	385.0	-267.0	390	-267	1
2.7	2015_Jun_16_1007	s	s	23	2	Capacity	27	ABS	0	1	08RD 16RO	0	1	4.9198551178	None	None	None	None	1
2.7	2015_Jun_16_1007	s	s	23	2	Capacity	28	RC	0	1	08RD 15RO	1	0	1.22986102104	-442.0	241.0	-450	242	1
2.7	2015_Jun_16_1007	s	s	23	2	Capacity	29	ABS	0	1	08RD 16RO	0	1	6.19734978676	None	None	None	None	1
2.7	2015_Jun_16_1007	s	s	23	2	Capacity	30	ABS	0	2	16RD 08RO	0	1	3.16073513031	None	None	None	None	1
2.7	2015_Jun_16_1007	s	s	23	2	Capacity	31	RC	0	1	08RD 15RO	1	0	3.76599097252	118.0	407.0	119	404	1
2.7	2015_Jun_16_1007	s	s	23	2	Capacity	32	RC	0	2	15RD 08RO	1	0	1.61196112633	-415.0	-4.0	-420	-10	1
2.7	2015_Jun_16_1007	s	s	23	2	Capacity	33	RC	0	2	15RD 08RO	1	0	2.70140504837	271.0	-164.0	261	-159	1
2.7	2015_Jun_16_1007	s	s	23	2	Capacity	34	ABS	0	2	16RD 08RO	0	1	6.61445307732	None	None	None	None	1
2.7	2015_Jun_16_1007	s	s	23	2	Capacity	35	ABS	0	1	08RD 16RO	0	1	8.83580493927	None	None	None	None	1
2.7	2015_Jun_16_1007	s	s	23	2	Capacity	36	RC	0	1	08RD 15RO	1	0	0.841076135635	-171.0	122.0	-168	121	1
2.7	2015_Jun_16_1007	s	s	23	2	Capacity	37	RC	0	2	15RD 08RO	1	0	1.03518295288	-476.0	309.0	-475	306	1
2.7	2015_Jun_16_1007	s	s	23	2	Capacity	38	ABS	0	1	08RD 16RO	0	1	6.86847281456	None	None	None	None	1
2.7	2015_Jun_16_1007	s	s	23	2	Capacity	39	ABS	0	2	16RD 08RO	0	1	8.47421908379	None	None	None	None	1
2.7	2015_Jun_16_1007	s	s	23	2	Capacity	40	RC	0	1	08RD 15RO	1	0	2.04234695435	-443.0	-301.0	-439	-297	1
2.7	2015_Jun_16_1007	s	s	23	2	Capacity	41	RC	0	1	08RD 15RO	1	0	1.04446411133	-384.0	34.0	-382	36	1
2.7	2015_Jun_16_1007	s	s	23	2	Capacity	42	ABS	0	1	08RD 16RO	0	1	6.48492598534	None	None	None	None	1
2.7	2015_Jun_16_1007	s	s	23	2	Capacity	43	ABS	0	2	16RD 08RO	0	1	3.86689305305	None	None	None	None	1
2.7	2015_Jun_16_1007	s	s	23	2	Capacity	44	RC	0	2	15RD 08RO	1	0	2.98908877373	-476.0	-399.0	-479	-406	1
2.7	2015_Jun_16_1007	s	s	23	2	Capacity	45	ABS	0	1	08RD 16RO	0	1	6.89366912842	None	None	None	None	1
2.7	2015_Jun_16_1007	s	s	23	2	Capacity	46	RC	0	2	15RD 08RO	1	0	2.11169910431	-60.0	406.0	-62	404	1
2.7	2015_Jun_16_1007	s	s	23	2	Capacity	47	RC	0	1	08RD 15RO	1	0	3.18422698975	531.0	200.0	533	206	1
2.7	2015_Jun_16_1007	s	s	23	2	Capacity	48	ABS	0	2	16RD 08RO	0	1	6.63801598549	None	None	None	None	1
2.7	2015_Jun_16_1007	s	s	23	2	Capacity	49	RC	0	2	15RD 08RO	1	0	2.05368590355	-44.0	-33.0	-52	-27	1
2.7	2015_Jun_16_1007	s	s	23	2	Capacity	50	RC	0	1	08RD 15RO	1	0	2.7837908268	227.0	-146.0	226	-147	1
2.7	2015_Jun_16_1007	s	s	23	2	Capacity	51	ABS	0	1	08RD 16RO	0	1	6.09153008461	None	None	None	None	1
2.7	2015_Jun_16_1007	s	s	23	2	Capacity	52	ABS	0	2	16RD 08RO	0	1	5.19833612442	None	None	None	None	1
2.7	2015_Jun_16_1007	s	s	23	2	Capacity	53	RC	0	2	15RD 08RO	1	0	1.39511013031	-455.0	332.0	-455	330	1
2.7	2015_Jun_16_1007	s	s	23	2	Capacity	54	RC	0	1	08RD 15RO	1	0	1.02330708504	-316.0	389.0	-315	388	1
2.7	2015_Jun_16_1007	s	s	23	2	Capacity	55	ABS	0	2	16RD 08RO	0	1	3.57765197754	None	None	None	None	1
2.7	2015_Jun_16_1007	s	s	23	2	Capacity	56	ABS	0	1	08RD 16RO	0	1	5.70809984207	None	None	None	None	1
2.7	2015_Jun_16_1007	s	s	23	2	Capacity	57	RC	0	2	15RD 08RO	1	0	2.93029880524	-214.0	-396.0	-215	-390	1
2.7	2015_Jun_16_1007	s	s	23	2	Capacity	58	ABS	0	1	08RD 16RO	0	1	7.66891503334	None	None	None	None	1
2.7	2015_Jun_16_1007	s	s	23	2	Capacity	59	ABS	0	2	16RD 08RO	0	1	3.1891849041	None	None	None	None	1
2.7	2015_Jun_16_1007	s	s	23	2	Capacity	60	RC	0	1	08RD 15RO	1	0	3.55442714691	80.0	-96.0	84	-97	1
2.7	2015_Jun_16_1007	s	s	23	2	Capacity	61	ABS	0	1	08RD 16RO	0	1	3.93687796593	None	None	None	None	1
2.7	2015_Jun_16_1007	s	s	23	2	Capacity	62	RC	0	1	08RD 15RO	1	0	2.56532692909	-66.0	281.0	-62	288	1
2.7	2015_Jun_16_1007	s	s	23	2	Capacity	63	RC	0	2	15RD 08RO	1	0	3.33710598946	221.0	40.0	215	32	1
2.7	2015_Jun_16_1007	s	s	23	2	Capacity	64	ABS	0	2	16RD 08RO	0	1	3.48021006584	None	None	None	None	1
2.7	2015_Jun_16_1007	s	s	23	2	SIC	1	ABS	1	1	02VD 02VO 02VC 02MD 10MO 02MC 02RD 02RO	0	1	7.36416506767	None	None	None	None	1
2.7	2015_Jun_16_1007	s	s	23	2	SIC	2	ABS	2	1	02VD 10VO 02VC 02MD 02MO 02MC 02RD 02RO	0	1	5.58531284332	None	None	None	None	1
2.7	2015_Jun_16_1007	s	s	23	2	SIC	3	RC	0	2	02VD 02VO 02VC 02MD 02MO 02MC 09RD 02RO	1	0	2.83612394333	130.0	302.0	128	300	1
2.7	2015_Jun_16_1007	s	s	23	2	SIC	4	RC	1	0	02VD 02VO 02VC 02MD 02MO 09MC 02RD 02RO	1	0	1.95695900917	-490.0	-359.0	-492	-368	1
2.7	2015_Jun_16_1007	s	s	23	2	SIC	5	RC	2	1	02VD 09VO 02VC 02MD 02MO 02MC 02RD 02RO	1	0	0.80762386322	-308.0	-143.0	-307	-134	1
2.7	2015_Jun_16_1007	s	s	23	2	SIC	6	ABS	2	2	10VD 02VO 02VC 02MD 02MO 02MC 02RD 02RO	0	1	2.78403186798	None	None	None	None	1
2.7	2015_Jun_16_1007	s	s	23	2	SIC	7	ABS	2	0	02VD 02VO 10VC 02MD 02MO 02MC 02RD 02RO	0	1	3.85510587692	None	None	None	None	1
2.7	2015_Jun_16_1007	s	s	23	2	SIC	8	ABS	0	2	02VD 02VO 02VC 02MD 02MO 02MC 10RD 02RO	0	1	3.65510582924	None	None	None	None	1
2.7	2015_Jun_16_1007	s	s	23	2	SIC	9	RC	1	2	02VD 02VO 02VC 09MD 02MO 02MC 02RD 02RO	1	0	1.23185610771	390.0	-253.0	392	-257	1
2.7	2015_Jun_16_1007	s	s	23	2	SIC	10	ABS	1	2	02VD 02VO 02VC 10MD 02MO 02MC 02RD 02RO	0	1	3.89539599419	None	None	None	None	1
2.7	2015_Jun_16_1007	s	s	23	2	SIC	11	RC	1	1	02VD 02VO 02VC 02MD 09MO 02MC 02RD 02RO	1	0	2.78904509544	509.0	-361.0	505	-360	1
2.7	2015_Jun_16_1007	s	s	23	2	SIC	12	ABS	0	1	02VD 02VO 02VC 02MD 02MO 02MC 02RD 10RO	0	1	8.61309885979	None	None	None	None	1
2.7	2015_Jun_16_1007	s	s	23	2	SIC	13	ABS	1	0	02VD 02VO 02VC 02MD 02MO 10MC 02RD 02RO	0	1	3.68128108978	None	None	None	None	1
2.7	2015_Jun_16_1007	s	s	23	2	SIC	14	RC	0	1	02VD 02VO 02VC 02MD 02MO 02MC 02RD 09RO	1	0	2.11313915253	341.0	-140.0	337	-139	1
2.7	2015_Jun_16_1007	s	s	23	2	SIC	15	RC	2	0	02VD 02VO 09VC 02MD 02MO 02MC 02RD 02RO	1	0	0.964581012726	-521.0	183.0	-521	177	1
2.7	2015_Jun_16_1007	s	s	23	2	SIC	16	RC	2	2	09VD 02VO 02VC 02MD 02MO 02MC 02RD 02RO	1	0	1.18818283081	-18.0	147.0	-25	149	1
2.7	2015_Jun_16_1007	s	s	23	2	SIC	17	RC	1	2	02VD 02VO 02VC 09MD 02MO 02MC 02RD 02RO	1	0	2.61909389496	307.0	6.0	314	3	1
2.7	2015_Jun_16_1007	s	s	23	2	SIC	18	ABS	1	1	02VD 02VO 02VC 02MD 10MO 02MC 02RD 02RO	0	1	5.40900301933	None	None	None	None	1
2.7	2015_Jun_16_1007	s	s	23	2	SIC	19	ABS	0	1	02VD 02VO 02VC 02MD 02MO 02MC 02RD 10RO	0	1	5.40581893921	None	None	None	None	1
2.7	2015_Jun_16_1007	s	s	23	2	SIC	20	RC	1	1	02VD 02VO 02VC 02MD 09MO 02MC 02RD 02RO	1	0	0.947880983353	-503.0	349.0	-499	349	1
2.7	2015_Jun_16_1007	s	s	23	2	SIC	21	RC	2	0	02VD 02VO 09VC 02MD 02MO 02MC 02RD 02RO	1	0	1.60703778267	-93.0	-140.0	-96	-134	1
2.7	2015_Jun_16_1007	s	s	23	2	SIC	22	RC	1	0	02VD 02VO 02VC 02MD 02MO 09MC 02RD 02RO	1	0	0.689275979996	-62.0	178.0	-63	184	1
2.7	2015_Jun_16_1007	s	s	23	2	SIC	23	ABS	2	2	10VD 02VO 02VC 02MD 02MO 02MC 02RD 02RO	0	1	4.18970179558	None	None	None	None	1
2.7	2015_Jun_16_1007	s	s	23	2	SIC	24	RC	2	2	09VD 02VO 02VC 02MD 02MO 02MC 02RD 02RO	1	0	1.07047605515	53.0	398.0	58	396	1
2.7	2015_Jun_16_1007	s	s	23	2	SIC	25	ABS	0	2	02VD 02VO 02VC 02MD 02MO 02MC 10RD 02RO	0	1	5.71216511726	None	None	None	None	1
2.7	2015_Jun_16_1007	s	s	23	2	SIC	26	ABS	1	2	02VD 02VO 02VC 10MD 02MO 02MC 02RD 02RO	0	1	4.34309196472	None	None	None	None	1
2.7	2015_Jun_16_1007	s	s	23	2	SIC	27	ABS	1	0	02VD 02VO 02VC 02MD 02MO 10MC 02RD 02RO	0	1	4.04359006882	None	None	None	None	1
2.7	2015_Jun_16_1007	s	s	23	2	SIC	28	RC	0	2	02VD 02VO 02VC 02MD 02MO 02MC 09RD 02RO	1	0	1.94826984406	-97.0	-148.0	-97	-147	1
2.7	2015_Jun_16_1007	s	s	23	2	SIC	29	RC	0	1	02VD 02VO 02VC 02MD 02MO 02MC 02RD 09RO	1	0	1.48899006844	439.0	158.0	437	159	1
2.7	2015_Jun_16_1007	s	s	23	2	SIC	30	ABS	2	0	02VD 02VO 10VC 02MD 02MO 02MC 02RD 02RO	0	1	4.43030309677	None	None	None	None	1
2.7	2015_Jun_16_1007	s	s	23	2	SIC	31	ABS	2	1	02VD 10VO 02VC 02MD 02MO 02MC 02RD 02RO	0	1	2.76062083244	None	None	None	None	1
2.7	2015_Jun_16_1007	s	s	23	2	SIC	32	RC	2	1	02VD 09VO 02VC 02MD 02MO 02MC 02RD 02RO	1	0	1.08962893486	370.0	346.0	359	346	1
2.7	2015_Jun_16_1007	s	s	23	2	SIC	33	ABS	0	2	02VD 02VO 02VC 02MD 02MO 02MC 10RD 02RO	0	1	5.8456788063	None	None	None	None	1
2.7	2015_Jun_16_1007	s	s	23	2	SIC	34	ABS	2	2	10VD 02VO 02VC 02MD 02MO 02MC 02RD 02RO	0	1	3.20781803131	None	None	None	None	1
2.7	2015_Jun_16_1007	s	s	23	2	SIC	35	RC	1	2	02VD 02VO 02VC 09MD 02MO 02MC 02RD 02RO	1	0	1.54166102409	-21.0	-214.0	-23	-212	1
2.7	2015_Jun_16_1007	s	s	23	2	SIC	36	RC	2	1	02VD 09VO 02VC 02MD 02MO 02MC 02RD 02RO	1	0	0.912528038025	-352.0	-129.0	-353	-130	1
2.7	2015_Jun_16_1007	s	s	23	2	SIC	37	RC	2	2	09VD 02VO 02VC 02MD 02MO 02MC 02RD 02RO	1	0	1.62371897697	-220.0	351.0	-214	358	1
2.7	2015_Jun_16_1007	s	s	23	2	SIC	38	ABS	2	1	02VD 10VO 02VC 02MD 02MO 02MC 02RD 02RO	0	1	3.44320893288	None	None	None	None	1
2.7	2015_Jun_16_1007	s	s	23	2	SIC	39	RC	1	0	02VD 02VO 02VC 02MD 02MO 09MC 02RD 02RO	1	0	0.879652023315	-24.0	380.0	-34	383	1
2.7	2015_Jun_16_1007	s	s	23	2	SIC	40	ABS	2	0	02VD 02VO 10VC 02MD 02MO 02MC 02RD 02RO	0	1	2.70198607445	None	None	None	None	1
2.7	2015_Jun_16_1007	s	s	23	2	SIC	41	ABS	1	2	02VD 02VO 02VC 10MD 02MO 02MC 02RD 02RO	0	1	2.78427290916	None	None	None	None	1
2.7	2015_Jun_16_1007	s	s	23	2	SIC	42	RC	1	1	02VD 02VO 02VC 02MD 09MO 02MC 02RD 02RO	1	0	1.6472530365	-526.0	-271.0	-525	-275	1
2.7	2015_Jun_16_1007	s	s	23	2	SIC	43	ABS	0	1	02VD 02VO 02VC 02MD 02MO 02MC 02RD 10RO	0	1	4.30414104462	None	None	None	None	1
2.7	2015_Jun_16_1007	s	s	23	2	SIC	44	RC	2	0	02VD 02VO 09VC 02MD 02MO 02MC 02RD 02RO	1	0	0.811482906342	38.0	-192.0	40	-192	1
2.7	2015_Jun_16_1007	s	s	23	2	SIC	45	ABS	1	0	02VD 02VO 02VC 02MD 02MO 10MC 02RD 02RO	0	1	4.74290895462	None	None	None	None	1
2.7	2015_Jun_16_1007	s	s	23	2	SIC	46	ABS	1	1	02VD 02VO 02VC 02MD 10MO 02MC 02RD 02RO	0	1	5.44363689423	None	None	None	None	1
2.7	2015_Jun_16_1007	s	s	23	2	SIC	47	RC	0	1	02VD 02VO 02VC 02MD 02MO 02MC 02RD 09RO	1	0	1.07048177719	50.0	-31.0	46	-35	1
2.7	2015_Jun_16_1007	s	s	23	2	SIC	48	RC	0	2	02VD 02VO 02VC 02MD 02MO 02MC 09RD 02RO	1	0	1.07051491737	-476.0	247.0	-471	249	1
2.7	2015_Jun_16_1007	s	s	23	2	SIC	49	ABS	2	1	02VD 10VO 02VC 02MD 02MO 02MC 02RD 02RO	0	1	4.16091609001	None	None	None	None	1
2.7	2015_Jun_16_1007	s	s	23	2	SIC	50	RC	2	0	02VD 02VO 09VC 02MD 02MO 02MC 02RD 02RO	1	0	1.03050684929	-162.0	-154.0	-162	-156	1
2.7	2015_Jun_16_1007	s	s	23	2	SIC	51	RC	1	1	02VD 02VO 02VC 02MD 09MO 02MC 02RD 02RO	1	0	0.912896871567	-253.0	116.0	-256	111	1
2.7	2015_Jun_16_1007	s	s	23	2	SIC	52	ABS	1	0	02VD 02VO 02VC 02MD 02MO 10MC 02RD 02RO	0	1	2.89488983154	None	None	None	None	1
2.7	2015_Jun_16_1007	s	s	23	2	SIC	53	ABS	0	1	02VD 02VO 02VC 02MD 02MO 02MC 02RD 10RO	0	1	7.13957285881	None	None	None	None	1
2.7	2015_Jun_16_1007	s	s	23	2	SIC	54	ABS	2	0	02VD 02VO 10VC 02MD 02MO 02MC 02RD 02RO	0	1	3.11865997314	None	None	None	None	1
2.7	2015_Jun_16_1007	s	s	23	2	SIC	55	ABS	2	2	10VD 02VO 02VC 02MD 02MO 02MC 02RD 02RO	0	1	3.43061518669	None	None	None	None	1
2.7	2015_Jun_16_1007	s	s	23	2	SIC	56	RC	1	2	02VD 02VO 02VC 09MD 02MO 02MC 02RD 02RO	1	0	1.56226396561	19.0	18.0	18	23	1
2.7	2015_Jun_16_1007	s	s	23	2	SIC	57	RC	2	2	09VD 02VO 02VC 02MD 02MO 02MC 02RD 02RO	1	0	1.57649183273	152.0	365.0	146	363	1
2.7	2015_Jun_16_1007	s	s	23	2	SIC	58	RC	1	0	02VD 02VO 02VC 02MD 02MO 09MC 02RD 02RO	1	0	2.53905391693	468.0	-176.0	470	-185	1
2.7	2015_Jun_16_1007	s	s	23	2	SIC	59	ABS	1	1	02VD 02VO 02VC 02MD 10MO 02MC 02RD 02RO	0	1	3.31342983246	None	None	None	None	1
2.7	2015_Jun_16_1007	s	s	23	2	SIC	60	RC	0	2	02VD 02VO 02VC 02MD 02MO 02MC 09RD 02RO	1	0	1.24472498894	363.0	4.0	368	2	1
2.7	2015_Jun_16_1007	s	s	23	2	SIC	61	RC	0	1	02VD 02VO 02VC 02MD 02MO 02MC 02RD 09RO	1	0	0.994822025299	-243.0	288.0	-249	289	1
2.7	2015_Jun_16_1007	s	s	23	2	SIC	62	RC	2	1	02VD 09VO 02VC 02MD 02MO 02MC 02RD 02RO	1	0	1.29964017868	-155.0	343.0	-154	342	1
2.7	2015_Jun_16_1007	s	s	23	2	SIC	63	ABS	0	2	02VD 02VO 02VC 02MD 02MO 02MC 10RD 02RO	0	1	4.71444606781	None	None	None	None	1
2.7	2015_Jun_16_1007	s	s	23	2	SIC	64	ABS	1	2	02VD 02VO 02VC 10MD 02MO 02MC 02RD 02RO	0	1	3.09502387047	None	None	None	None	1
2.7	2015_Jun_16_1007	s	s	23	2	SIC	65	ABS	2	2	10VD 02VO 02VC 02MD 02MO 02MC 02RD 02RO	0	1	3.42105484009	None	None	None	None	1
2.7	2015_Jun_16_1007	s	s	23	2	SIC	66	ABS	1	2	02VD 02VO 02VC 10MD 02MO 02MC 02RD 02RO	0	1	3.36579608917	None	None	None	None	1
2.7	2015_Jun_16_1007	s	s	23	2	SIC	67	RC	2	0	02VD 02VO 09VC 02MD 02MO 02MC 02RD 02RO	1	0	1.21181607246	65.0	-272.0	71	-265	1
2.7	2015_Jun_16_1007	s	s	23	2	SIC	68	RC	1	1	02VD 02VO 02VC 02MD 09MO 02MC 02RD 02RO	1	0	1.03523993492	-169.0	106.0	-164	106	1
2.7	2015_Jun_16_1007	s	s	23	2	SIC	69	RC	0	2	02VD 02VO 02VC 02MD 02MO 02MC 09RD 02RO	1	0	0.646646022797	-322.0	211.0	-328	217	1
2.7	2015_Jun_16_1007	s	s	23	2	SIC	70	RC	0	1	02VD 02VO 02VC 02MD 02MO 02MC 02RD 09RO	1	0	2.70657300949	-205.0	-205.0	-204	-209	1
2.7	2015_Jun_16_1007	s	s	23	2	SIC	71	ABS	0	2	02VD 02VO 02VC 02MD 02MO 02MC 10RD 02RO	0	1	2.34864282608	None	None	None	None	1
2.7	2015_Jun_16_1007	s	s	23	2	SIC	72	ABS	1	0	02VD 02VO 02VC 02MD 02MO 10MC 02RD 02RO	0	1	3.87191104889	None	None	None	None	1
2.7	2015_Jun_16_1007	s	s	23	2	SIC	73	RC	1	2	02VD 02VO 02VC 09MD 02MO 02MC 02RD 02RO	1	0	2.19549012184	338.0	-156.0	337	-159	1
2.7	2015_Jun_16_1007	s	s	23	2	SIC	74	ABS	2	0	02VD 02VO 10VC 02MD 02MO 02MC 02RD 02RO	0	1	4.15476298332	None	None	None	None	1
2.7	2015_Jun_16_1007	s	s	23	2	SIC	75	ABS	2	1	02VD 10VO 02VC 02MD 02MO 02MC 02RD 02RO	0	1	2.87825083733	None	None	None	None	1
2.7	2015_Jun_16_1007	s	s	23	2	SIC	76	RC	2	1	02VD 09VO 02VC 02MD 02MO 02MC 02RD 02RO	1	0	0.856090068817	-486.0	-78.0	-479	-78	1
2.7	2015_Jun_16_1007	s	s	23	2	SIC	77	RC	1	0	02VD 02VO 02VC 02MD 02MO 09MC 02RD 02RO	1	0	1.64302921295	448.0	-22.0	459	-18	1
2.7	2015_Jun_16_1007	s	s	23	2	SIC	78	ABS	1	1	02VD 02VO 02VC 02MD 10MO 02MC 02RD 02RO	0	1	6.42111086845	None	None	None	None	1
2.7	2015_Jun_16_1007	s	s	23	2	SIC	79	RC	2	2	09VD 02VO 02VC 02MD 02MO 02MC 02RD 02RO	1	0	1.76489686966	-210.0	-367.0	-216	-367	1
2.7	2015_Jun_16_1007	s	s	23	2	SIC	80	ABS	0	1	02VD 02VO 02VC 02MD 02MO 02MC 02RD 10RO	0	1	6.41432714462	None	None	None	None	1
2.7	2015_Jun_16_1007	s	s	23	2	SIC	81	ABS	0	1	02VD 02VO 02VC 02MD 02MO 02MC 02RD 10RO	0	1	7.08527207375	None	None	None	None	1
2.7	2015_Jun_16_1007	s	s	23	2	SIC	82	RC	0	1	02VD 02VO 02VC 02MD 02MO 02MC 02RD 09RO	1	0	2.83601808548	130.0	-110.0	132	-107	1
2.7	2015_Jun_16_1007	s	s	23	2	SIC	83	RC	1	1	02VD 02VO 02VC 02MD 09MO 02MC 02RD 02RO	1	0	1.13604402542	-508.0	-31.0	-504	-29	1
2.7	2015_Jun_16_1007	s	s	23	2	SIC	84	RC	2	2	09VD 02VO 02VC 02MD 02MO 02MC 02RD 02RO	1	0	1.99565386772	337.0	37.0	334	34	1
2.7	2015_Jun_16_1007	s	s	23	2	SIC	85	ABS	1	1	02VD 02VO 02VC 02MD 10MO 02MC 02RD 02RO	0	1	4.09049487114	None	None	None	None	1
2.7	2015_Jun_16_1007	s	s	23	2	SIC	86	RC	0	2	02VD 02VO 02VC 02MD 02MO 02MC 09RD 02RO	1	0	0.988117933273	119.0	155.0	104	163	1
2.7	2015_Jun_16_1007	s	s	23	2	SIC	87	RC	1	2	02VD 02VO 02VC 09MD 02MO 02MC 02RD 02RO	1	0	1.12941408157	-294.0	-179.0	-290	-176	1
2.7	2015_Jun_16_1007	s	s	23	2	SIC	88	ABS	0	2	02VD 02VO 02VC 02MD 02MO 02MC 10RD 02RO	0	1	2.8245871067	None	None	None	None	1
2.7	2015_Jun_16_1007	s	s	23	2	SIC	89	ABS	1	2	02VD 02VO 02VC 10MD 02MO 02MC 02RD 02RO	0	1	4.15112900734	None	None	None	None	1
2.7	2015_Jun_16_1007	s	s	23	2	SIC	90	ABS	2	2	10VD 02VO 02VC 02MD 02MO 02MC 02RD 02RO	0	1	2.75372385979	None	None	None	None	1
2.7	2015_Jun_16_1007	s	s	23	2	SIC	91	RC	1	0	02VD 02VO 02VC 02MD 02MO 09MC 02RD 02RO	1	0	1.4421210289	168.0	-225.0	176	-224	1
2.7	2015_Jun_16_1007	s	s	23	2	SIC	92	RC	2	0	02VD 02VO 09VC 02MD 02MO 02MC 02RD 02RO	1	0	1.0468351841	44.0	299.0	35	298	1
2.7	2015_Jun_16_1007	s	s	23	2	SIC	93	RC	2	1	02VD 09VO 02VC 02MD 02MO 02MC 02RD 02RO	1	0	0.596431016922	-28.0	346.0	-26	351	1
2.7	2015_Jun_16_1007	s	s	23	2	SIC	94	ABS	1	0	02VD 02VO 02VC 02MD 02MO 10MC 02RD 02RO	0	1	5.83248710632	None	None	None	None	1
2.7	2015_Jun_16_1007	s	s	23	2	SIC	95	ABS	2	0	02VD 02VO 10VC 02MD 02MO 02MC 02RD 02RO	0	1	3.55069684982	None	None	None	None	1
2.7	2015_Jun_16_1007	s	s	23	2	SIC	96	ABS	2	1	02VD 10VO 02VC 02MD 02MO 02MC 02RD 02RO	0	1	3.20472002029	None	None	None	None	1
2.7	2015_Jun_16_1007	s	s	23	2	SIC	97	ABS	2	2	10VD 02VO 02VC 02MD 02MO 02MC 02RD 02RO	0	1	2.63103413582	None	None	None	None	1
2.7	2015_Jun_16_1007	s	s	23	2	SIC	98	RC	2	2	09VD 02VO 02VC 02MD 02MO 02MC 02RD 02RO	1	0	2.29464793205	527.0	154.0	514	163	1
2.7	2015_Jun_16_1007	s	s	23	2	SIC	99	ABS	1	0	02VD 02VO 02VC 02MD 02MO 10MC 02RD 02RO	0	1	3.94963407516	None	None	None	None	1
2.7	2015_Jun_16_1007	s	s	23	2	SIC	100	ABS	1	2	02VD 02VO 02VC 10MD 02MO 02MC 02RD 02RO	0	1	2.61247801781	None	None	None	None	1
2.7	2015_Jun_16_1007	s	s	23	2	SIC	101	ABS	2	0	02VD 02VO 10VC 02MD 02MO 02MC 02RD 02RO	0	1	6.68049192429	None	None	None	None	1
2.7	2015_Jun_16_1007	s	s	23	2	SIC	102	ABS	0	1	02VD 02VO 02VC 02MD 02MO 02MC 02RD 10RO	0	1	4.96362519264	None	None	None	None	1
2.7	2015_Jun_16_1007	s	s	23	2	SIC	103	RC	1	0	02VD 02VO 02VC 02MD 02MO 09MC 02RD 02RO	1	0	1.20685911179	194.0	51.0	190	59	1
2.7	2015_Jun_16_1007	s	s	23	2	SIC	104	RC	0	1	02VD 02VO 02VC 02MD 02MO 02MC 02RD 09RO	1	0	2.20052790642	262.0	23.0	260	28	1
2.7	2015_Jun_16_1007	s	s	23	2	SIC	105	ABS	1	1	02VD 02VO 02VC 02MD 10MO 02MC 02RD 02RO	0	1	5.96706104279	None	None	None	None	1
2.7	2015_Jun_16_1007	s	s	23	2	SIC	106	ABS	0	2	02VD 02VO 02VC 02MD 02MO 02MC 10RD 02RO	0	1	6.86804986	None	None	None	None	1
2.7	2015_Jun_16_1007	s	s	23	2	SIC	107	RC	1	2	02VD 02VO 02VC 09MD 02MO 02MC 02RD 02RO	1	0	0.941030025482	-343.0	263.0	-351	259	1
2.7	2015_Jun_16_1007	s	s	23	2	SIC	108	RC	0	2	02VD 02VO 02VC 02MD 02MO 02MC 09RD 02RO	1	0	2.71279501915	-102.0	-277.0	-100	-285	1
2.7	2015_Jun_16_1007	s	s	23	2	SIC	109	RC	1	1	02VD 02VO 02VC 02MD 09MO 02MC 02RD 02RO	1	0	2.51489901543	489.0	-82.0	487	-79	1
2.7	2015_Jun_16_1007	s	s	23	2	SIC	110	RC	2	0	02VD 02VO 09VC 02MD 02MO 02MC 02RD 02RO	1	0	2.68985199928	113.0	-197.0	105	-197	1
2.7	2015_Jun_16_1007	s	s	23	2	SIC	111	RC	2	1	02VD 09VO 02VC 02MD 02MO 02MC 02RD 02RO	1	0	0.818122148514	-333.0	176.0	-331	184	1
2.7	2015_Jun_16_1007	s	s	23	2	SIC	112	ABS	2	1	02VD 10VO 02VC 02MD 02MO 02MC 02RD 02RO	0	1	5.82586312294	None	None	None	None	1
2.7	2015_Jun_16_1007	s	s	23	2	SIC	113	RC	2	2	09VD 02VO 02VC 02MD 02MO 02MC 02RD 02RO	1	0	1.61196780205	-459.0	-266.0	-461	-262	1
2.7	2015_Jun_16_1007	s	s	23	2	SIC	114	ABS	0	1	02VD 02VO 02VC 02MD 02MO 02MC 02RD 10RO	0	1	7.34152007103	None	None	None	None	1
2.7	2015_Jun_16_1007	s	s	23	2	SIC	115	RC	1	1	02VD 02VO 02VC 02MD 09MO 02MC 02RD 02RO	1	0	1.68256187439	173.0	-224.0	174	-223	1
2.7	2015_Jun_16_1007	s	s	23	2	SIC	116	ABS	1	0	02VD 02VO 02VC 02MD 02MO 10MC 02RD 02RO	0	1	6.03261184692	None	None	None	None	1
2.7	2015_Jun_16_1007	s	s	23	2	SIC	117	RC	0	1	02VD 02VO 02VC 02MD 02MO 02MC 02RD 09RO	1	0	2.37222504616	282.0	-72.0	279	-65	1
2.7	2015_Jun_16_1007	s	s	23	2	SIC	118	RC	1	2	02VD 02VO 02VC 09MD 02MO 02MC 02RD 02RO	1	0	0.97300696373	-418.0	190.0	-425	189	1
2.7	2015_Jun_16_1007	s	s	23	2	SIC	119	RC	2	1	02VD 09VO 02VC 02MD 02MO 02MC 02RD 02RO	1	0	1.01820993423	-214.0	-244.0	-214	-241	1
2.7	2015_Jun_16_1007	s	s	23	2	SIC	120	ABS	0	2	02VD 02VO 02VC 02MD 02MO 02MC 10RD 02RO	0	1	3.62213897705	None	None	None	None	1
2.7	2015_Jun_16_1007	s	s	23	2	SIC	121	RC	0	2	02VD 02VO 02VC 02MD 02MO 02MC 09RD 02RO	1	0	1.12419104576	-448.0	289.0	-457	288	1
2.7	2015_Jun_16_1007	s	s	23	2	SIC	122	ABS	2	2	10VD 02VO 02VC 02MD 02MO 02MC 02RD 02RO	0	1	2.7136991024	None	None	None	None	1
2.7	2015_Jun_16_1007	s	s	23	2	SIC	123	RC	2	0	02VD 02VO 09VC 02MD 02MO 02MC 02RD 02RO	1	0	0.752706050873	-410.0	166.0	-403	168	1
2.7	2015_Jun_16_1007	s	s	23	2	SIC	124	ABS	2	0	02VD 02VO 10VC 02MD 02MO 02MC 02RD 02RO	0	1	2.12980699539	None	None	None	None	1
2.7	2015_Jun_16_1007	s	s	23	2	SIC	125	RC	1	0	02VD 02VO 02VC 02MD 02MO 09MC 02RD 02RO	1	0	1.59506106377	-92.0	-371.0	-100	-366	1
2.7	2015_Jun_16_1007	s	s	23	2	SIC	126	ABS	1	2	02VD 02VO 02VC 10MD 02MO 02MC 02RD 02RO	0	1	2.75370502472	None	None	None	None	1
2.7	2015_Jun_16_1007	s	s	23	2	SIC	127	ABS	1	1	02VD 02VO 02VC 02MD 10MO 02MC 02RD 02RO	0	1	3.84342598915	None	None	None	None	1
2.7	2015_Jun_16_1007	s	s	23	2	SIC	128	ABS	2	1	02VD 10VO 02VC 02MD 02MO 02MC 02RD 02RO	0	1	2.77718997002	None	None	None	None	1
2.7	2015_Jun_16_1007	s	s	23	2	SIC	129	ABS	1	1	02VD 02VO 02VC 02MD 10MO 02MC 02RD 02RO	0	1	3.13711810112	None	None	None	None	1
2.7	2015_Jun_16_1007	s	s	23	2	SIC	130	RC	2	1	02VD 09VO 02VC 02MD 02MO 02MC 02RD 02RO	1	0	0.729095935822	-226.0	-98.0	-222	-102	1
2.7	2015_Jun_16_1007	s	s	23	2	SIC	131	RC	1	2	02VD 02VO 02VC 09MD 02MO 02MC 02RD 02RO	1	0	1.24197697639	405.0	-44.0	405	-42	1
2.7	2015_Jun_16_1007	s	s	23	2	SIC	132	RC	0	2	02VD 02VO 02VC 02MD 02MO 02MC 09RD 02RO	1	0	1.09388613701	147.0	196.0	144	200	1
2.7	2015_Jun_16_1007	s	s	23	2	SIC	133	RC	1	1	02VD 02VO 02VC 02MD 09MO 02MC 02RD 02RO	1	0	1.70984506607	135.0	-11.0	139	-10	1
2.7	2015_Jun_16_1007	s	s	23	2	SIC	134	RC	2	0	02VD 02VO 09VC 02MD 02MO 02MC 02RD 02RO	1	0	1.72474002838	259.0	79.0	257	79	1
2.7	2015_Jun_16_1007	s	s	23	2	SIC	135	ABS	1	2	02VD 02VO 02VC 10MD 02MO 02MC 02RD 02RO	0	1	2.25934290886	None	None	None	None	1
2.7	2015_Jun_16_1007	s	s	23	2	SIC	136	RC	2	2	09VD 02VO 02VC 02MD 02MO 02MC 02RD 02RO	1	0	1.15031003952	115.0	-272.0	115	-271	1
2.7	2015_Jun_16_1007	s	s	23	2	SIC	137	ABS	2	1	02VD 10VO 02VC 02MD 02MO 02MC 02RD 02RO	0	1	2.12661194801	None	None	None	None	1
2.7	2015_Jun_16_1007	s	s	23	2	SIC	138	RC	0	1	02VD 02VO 02VC 02MD 02MO 02MC 02RD 09RO	1	0	1.8828098774	368.0	-124.0	369	-125	1
2.7	2015_Jun_16_1007	s	s	23	2	SIC	139	ABS	1	0	02VD 02VO 02VC 02MD 02MO 10MC 02RD 02RO	0	1	5.30303215981	None	None	None	None	1
2.7	2015_Jun_16_1007	s	s	23	2	SIC	140	RC	1	0	02VD 02VO 02VC 02MD 02MO 09MC 02RD 02RO	1	0	3.29510521889	453.0	55.0	456	62	1
2.7	2015_Jun_16_1007	s	s	23	2	SIC	141	ABS	2	2	10VD 02VO 02VC 02MD 02MO 02MC 02RD 02RO	0	1	2.40750408173	None	None	None	None	1
2.7	2015_Jun_16_1007	s	s	23	2	SIC	142	ABS	0	2	02VD 02VO 02VC 02MD 02MO 02MC 10RD 02RO	0	1	3.53742599487	None	None	None	None	1
2.7	2015_Jun_16_1007	s	s	23	2	SIC	143	ABS	2	0	02VD 02VO 10VC 02MD 02MO 02MC 02RD 02RO	0	1	2.31897091866	None	None	None	None	1
2.7	2015_Jun_16_1007	s	s	23	2	SIC	144	ABS	0	1	02VD 02VO 02VC 02MD 02MO 02MC 02RD 10RO	0	1	5.1902179718	None	None	None	None	1
2.7	2015_Jun_16_1007	s	s	23	2	SIC	145	ABS	1	0	02VD 02VO 02VC 02MD 02MO 10MC 02RD 02RO	0	1	5.35507202148	None	None	None	None	1
2.7	2015_Jun_16_1007	s	s	23	2	SIC	146	ABS	1	1	02VD 02VO 02VC 02MD 10MO 02MC 02RD 02RO	0	1	4.69099116325	None	None	None	None	1
2.7	2015_Jun_16_1007	s	s	23	2	SIC	147	ABS	0	2	02VD 02VO 02VC 02MD 02MO 02MC 10RD 02RO	0	1	2.73926210403	None	None	None	None	1
2.7	2015_Jun_16_1007	s	s	23	2	SIC	148	RC	1	1	02VD 02VO 02VC 02MD 09MO 02MC 02RD 02RO	1	0	1.10099506378	-275.0	-234.0	-276	-228	1
2.7	2015_Jun_16_1007	s	s	23	2	SIC	149	RC	2	2	09VD 02VO 02VC 02MD 02MO 02MC 02RD 02RO	1	0	0.841116905212	-70.0	-73.0	-70	-68	1
2.7	2015_Jun_16_1007	s	s	23	2	SIC	150	RC	2	1	02VD 09VO 02VC 02MD 02MO 02MC 02RD 02RO	1	0	1.4118039608	-330.0	407.0	-337	405	1
2.7	2015_Jun_16_1007	s	s	23	2	SIC	151	ABS	2	1	02VD 10VO 02VC 02MD 02MO 02MC 02RD 02RO	0	1	2.74894189835	None	None	None	None	1
2.7	2015_Jun_16_1007	s	s	23	2	SIC	152	RC	0	2	02VD 02VO 02VC 02MD 02MO 02MC 09RD 02RO	1	0	0.600095033646	-212.0	271.0	-205	267	1
2.7	2015_Jun_16_1007	s	s	23	2	SIC	153	RC	2	0	02VD 02VO 09VC 02MD 02MO 02MC 02RD 02RO	1	0	1.71790599823	383.0	298.0	376	301	1
2.7	2015_Jun_16_1007	s	s	23	2	SIC	154	ABS	1	2	02VD 02VO 02VC 10MD 02MO 02MC 02RD 02RO	0	1	2.9250869751	None	None	None	None	1
2.7	2015_Jun_16_1007	s	s	23	2	SIC	155	RC	1	2	02VD 02VO 02VC 09MD 02MO 02MC 02RD 02RO	1	0	1.25884413719	232.0	-55.0	235	-53	1
2.7	2015_Jun_16_1007	s	s	23	2	SIC	156	ABS	0	1	02VD 02VO 02VC 02MD 02MO 02MC 02RD 10RO	0	1	3.05459904671	None	None	None	None	1
2.7	2015_Jun_16_1007	s	s	23	2	SIC	157	ABS	2	0	02VD 02VO 10VC 02MD 02MO 02MC 02RD 02RO	0	1	2.69257998466	None	None	None	None	1
2.7	2015_Jun_16_1007	s	s	23	2	SIC	158	RC	0	1	02VD 02VO 02VC 02MD 02MO 02MC 02RD 09RO	1	0	0.618265867233	-41.0	87.0	-43	86	1
2.7	2015_Jun_16_1007	s	s	23	2	SIC	159	ABS	2	2	10VD 02VO 02VC 02MD 02MO 02MC 02RD 02RO	0	1	1.9364361763	None	None	None	None	1
2.7	2015_Jun_16_1007	s	s	23	2	SIC	160	RC	1	0	02VD 02VO 02VC 02MD 02MO 09MC 02RD 02RO	1	0	0.759491920471	-498.0	58.0	-499	57	1
2.7	2015_Jun_16_1007	s	s	23	2	SIC	161	RC	1	1	02VD 02VO 02VC 02MD 09MO 02MC 02RD 02RO	1	0	1.40008187294	35.0	237.0	28	238	1
2.7	2015_Jun_16_1007	s	s	23	2	SIC	162	RC	0	2	02VD 02VO 02VC 02MD 02MO 02MC 09RD 02RO	1	0	0.635020971298	-120.0	109.0	-128	111	1
2.7	2015_Jun_16_1007	s	s	23	2	SIC	163	ABS	1	1	02VD 02VO 02VC 02MD 10MO 02MC 02RD 02RO	0	1	2.16008806229	None	None	None	None	1
2.7	2015_Jun_16_1007	s	s	23	2	SIC	164	ABS	2	0	02VD 02VO 10VC 02MD 02MO 02MC 02RD 02RO	0	1	1.55982303619	None	None	None	None	1
2.7	2015_Jun_16_1007	s	s	23	2	SIC	165	RC	2	0	02VD 02VO 09VC 02MD 02MO 02MC 02RD 02RO	1	0	0.677057981491	-70.0	206.0	-68	215	1
2.7	2015_Jun_16_1007	s	s	23	2	SIC	166	ABS	2	2	10VD 02VO 02VC 02MD 02MO 02MC 02RD 02RO	0	1	1.91802000999	None	None	None	None	1
2.7	2015_Jun_16_1007	s	s	23	2	SIC	167	ABS	1	0	02VD 02VO 02VC 02MD 02MO 10MC 02RD 02RO	0	1	3.07588887215	None	None	None	None	1
2.7	2015_Jun_16_1007	s	s	23	2	SIC	168	RC	2	1	02VD 09VO 02VC 02MD 02MO 02MC 02RD 02RO	1	0	1.78345012665	453.0	-100.0	450	-95	1
2.7	2015_Jun_16_1007	s	s	23	2	SIC	169	ABS	0	2	02VD 02VO 02VC 02MD 02MO 02MC 10RD 02RO	0	1	2.3607070446	None	None	None	None	1
2.7	2015_Jun_16_1007	s	s	23	2	SIC	170	ABS	0	1	02VD 02VO 02VC 02MD 02MO 02MC 02RD 10RO	0	1	4.26718902588	None	None	None	None	1
2.7	2015_Jun_16_1007	s	s	23	2	SIC	171	ABS	2	1	02VD 10VO 02VC 02MD 02MO 02MC 02RD 02RO	0	1	3.77282905579	None	None	None	None	1
2.7	2015_Jun_16_1007	s	s	23	2	SIC	172	RC	0	1	02VD 02VO 02VC 02MD 02MO 02MC 02RD 09RO	1	0	1.38831591606	-19.0	263.0	-16	259	1
2.7	2015_Jun_16_1007	s	s	23	2	SIC	173	RC	1	2	02VD 02VO 02VC 09MD 02MO 02MC 02RD 02RO	1	0	1.28907895088	-204.0	-334.0	-211	-331	1
2.7	2015_Jun_16_1007	s	s	23	2	SIC	174	RC	2	2	09VD 02VO 02VC 02MD 02MO 02MC 02RD 02RO	1	0	2.07099485397	503.0	-122.0	513	-119	1
2.7	2015_Jun_16_1007	s	s	23	2	SIC	175	ABS	1	2	02VD 02VO 02VC 10MD 02MO 02MC 02RD 02RO	0	1	2.08942699432	None	None	None	None	1
2.7	2015_Jun_16_1007	s	s	23	2	SIC	176	RC	1	0	02VD 02VO 02VC 02MD 02MO 09MC 02RD 02RO	1	0	0.788059949875	-60.0	175.0	-53	178	1
2.7	2015_Jun_16_1007	s	s	23	2	SIC	177	RC	2	0	02VD 02VO 09VC 02MD 02MO 02MC 02RD 02RO	1	0	0.882191896439	86.0	-129.0	96	-130	1
2.7	2015_Jun_16_1007	s	s	23	2	SIC	178	ABS	1	0	02VD 02VO 02VC 02MD 02MO 10MC 02RD 02RO	0	1	4.30777311325	None	None	None	None	1
2.7	2015_Jun_16_1007	s	s	23	2	SIC	179	ABS	0	2	02VD 02VO 02VC 02MD 02MO 02MC 10RD 02RO	0	1	3.03661489487	None	None	None	None	1
2.7	2015_Jun_16_1007	s	s	23	2	SIC	180	ABS	2	2	10VD 02VO 02VC 02MD 02MO 02MC 02RD 02RO	0	1	2.16018509865	None	None	None	None	1
2.7	2015_Jun_16_1007	s	s	23	2	SIC	181	RC	1	2	02VD 02VO 02VC 09MD 02MO 02MC 02RD 02RO	1	0	1.06567907333	137.0	214.0	130	208	1
2.7	2015_Jun_16_1007	s	s	23	2	SIC	182	RC	0	1	02VD 02VO 02VC 02MD 02MO 02MC 02RD 09RO	1	0	2.40058898926	-311.0	-211.0	-317	-206	1
2.7	2015_Jun_16_1007	s	s	23	2	SIC	183	ABS	2	1	02VD 10VO 02VC 02MD 02MO 02MC 02RD 02RO	0	1	2.4308860302	None	None	None	None	1
2.7	2015_Jun_16_1007	s	s	23	2	SIC	184	RC	0	2	02VD 02VO 02VC 02MD 02MO 02MC 09RD 02RO	1	0	1.8440079689	445.0	179.0	448	186	1
2.7	2015_Jun_16_1007	s	s	23	2	SIC	185	RC	1	0	02VD 02VO 02VC 02MD 02MO 09MC 02RD 02RO	1	0	1.63549399376	13.0	-372.0	4	-365	1
2.7	2015_Jun_16_1007	s	s	23	2	SIC	186	ABS	0	1	02VD 02VO 02VC 02MD 02MO 02MC 02RD 10RO	0	1	3.21277809143	None	None	None	None	1
2.7	2015_Jun_16_1007	s	s	23	2	SIC	187	ABS	1	1	02VD 02VO 02VC 02MD 10MO 02MC 02RD 02RO	0	1	3.88008499146	None	None	None	None	1
2.7	2015_Jun_16_1007	s	s	23	2	SIC	188	RC	1	1	02VD 02VO 02VC 02MD 09MO 02MC 02RD 02RO	1	0	1.60831594467	72.0	-363.0	78	-365	1
2.7	2015_Jun_16_1007	s	s	23	2	SIC	189	ABS	1	2	02VD 02VO 02VC 10MD 02MO 02MC 02RD 02RO	0	1	2.81680703163	None	None	None	None	1
2.7	2015_Jun_16_1007	s	s	23	2	SIC	190	RC	2	1	02VD 09VO 02VC 02MD 02MO 02MC 02RD 02RO	1	0	1.36474895477	-524.0	313.0	-518	318	1
2.7	2015_Jun_16_1007	s	s	23	2	SIC	191	RC	2	2	09VD 02VO 02VC 02MD 02MO 02MC 02RD 02RO	1	0	0.808119058609	-90.0	80.0	-87	84	1
2.7	2015_Jun_16_1007	s	s	23	2	SIC	192	ABS	2	0	02VD 02VO 10VC 02MD 02MO 02MC 02RD 02RO	0	1	2.45947194099	None	None	None	None	1
2.7	2015_Jun_16_1007	s	s	23	2	SIC	193	RC	0	2	02VD 02VO 02VC 02MD 02MO 02MC 09RD 02RO	1	0	0.936133146286	-402.0	398.0	-402	394	1
2.7	2015_Jun_16_1007	s	s	23	2	SIC	194	RC	1	2	02VD 02VO 02VC 09MD 02MO 02MC 02RD 02RO	1	0	1.03301095963	-487.0	-216.0	-484	-207	1
2.7	2015_Jun_16_1007	s	s	23	2	SIC	195	RC	1	1	02VD 02VO 02VC 02MD 09MO 02MC 02RD 02RO	1	0	2.73013281822	506.0	-51.0	509	-49	1
2.7	2015_Jun_16_1007	s	s	23	2	SIC	196	ABS	0	1	02VD 02VO 02VC 02MD 02MO 02MC 02RD 10RO	0	1	3.35395598412	None	None	None	None	1
2.7	2015_Jun_16_1007	s	s	23	2	SIC	197	RC	2	0	02VD 02VO 09VC 02MD 02MO 02MC 02RD 02RO	1	0	1.78304004669	-452.0	-269.0	-449	-266	1
2.7	2015_Jun_16_1007	s	s	23	2	SIC	198	ABS	1	0	02VD 02VO 02VC 02MD 02MO 10MC 02RD 02RO	0	1	3.40120911598	None	None	None	None	1
2.7	2015_Jun_16_1007	s	s	23	2	SIC	199	RC	2	1	02VD 09VO 02VC 02MD 02MO 02MC 02RD 02RO	1	0	1.34976696968	240.0	-100.0	248	-98	1
2.7	2015_Jun_16_1007	s	s	23	2	SIC	200	ABS	2	1	02VD 10VO 02VC 02MD 02MO 02MC 02RD 02RO	0	1	3.39594006538	None	None	None	None	1
2.7	2015_Jun_16_1007	s	s	23	2	SIC	201	ABS	2	2	10VD 02VO 02VC 02MD 02MO 02MC 02RD 02RO	0	1	4.39667201042	None	None	None	None	1
2.7	2015_Jun_16_1007	s	s	23	2	SIC	202	ABS	0	2	02VD 02VO 02VC 02MD 02MO 02MC 10RD 02RO	0	1	3.05515599251	None	None	None	None	1
2.7	2015_Jun_16_1007	s	s	23	2	SIC	203	RC	2	2	09VD 02VO 02VC 02MD 02MO 02MC 02RD 02RO	1	0	1.7884991169	52.0	-222.0	59	-223	1
2.7	2015_Jun_16_1007	s	s	23	2	SIC	204	RC	1	0	02VD 02VO 02VC 02MD 02MO 09MC 02RD 02RO	1	0	1.15331912041	275.0	54.0	273	58	1
2.7	2015_Jun_16_1007	s	s	23	2	SIC	205	ABS	1	2	02VD 02VO 02VC 10MD 02MO 02MC 02RD 02RO	0	1	2.71033620834	None	None	None	None	1
2.7	2015_Jun_16_1007	s	s	23	2	SIC	206	ABS	1	1	02VD 02VO 02VC 02MD 10MO 02MC 02RD 02RO	0	1	4.93870186806	None	None	None	None	1
2.7	2015_Jun_16_1007	s	s	23	2	SIC	207	RC	0	1	02VD 02VO 02VC 02MD 02MO 02MC 02RD 09RO	1	0	2.5102660656	11.0	-278.0	7	-279	1
2.7	2015_Jun_16_1007	s	s	23	2	SIC	208	ABS	2	0	02VD 02VO 10VC 02MD 02MO 02MC 02RD 02RO	0	1	2.63120913506	None	None	None	None	1
2.7	2015_Jun_16_1007	s	s	23	2	SIC	209	ABS	1	0	02VD 02VO 02VC 02MD 02MO 10MC 02RD 02RO	0	1	4.46039605141	None	None	None	None	1
2.7	2015_Jun_16_1007	s	s	23	2	SIC	210	RC	1	2	02VD 02VO 02VC 09MD 02MO 02MC 02RD 02RO	1	0	1.32980298996	-445.0	-150.0	-444	-150	1
2.7	2015_Jun_16_1007	s	s	23	2	SIC	211	RC	0	1	02VD 02VO 02VC 02MD 02MO 02MC 02RD 09RO	1	0	4.91943907738	365.0	-337.0	366	-331	1
2.7	2015_Jun_16_1007	s	s	23	2	SIC	212	RC	2	0	02VD 02VO 09VC 02MD 02MO 02MC 02RD 02RO	1	0	2.00710201263	355.0	62.0	350	62	1
2.7	2015_Jun_16_1007	s	s	23	2	SIC	213	ABS	2	2	10VD 02VO 02VC 02MD 02MO 02MC 02RD 02RO	0	1	2.88059997559	None	None	None	None	1
2.7	2015_Jun_16_1007	s	s	23	2	SIC	214	RC	1	0	02VD 02VO 02VC 02MD 02MO 09MC 02RD 02RO	1	0	2.26788401604	345.0	-9.0	338	-6	1
2.7	2015_Jun_16_1007	s	s	23	2	SIC	215	ABS	0	2	02VD 02VO 02VC 02MD 02MO 02MC 10RD 02RO	0	1	2.61895394325	None	None	None	None	1
2.7	2015_Jun_16_1007	s	s	23	2	SIC	216	ABS	2	0	02VD 02VO 10VC 02MD 02MO 02MC 02RD 02RO	0	1	3.88408994675	None	None	None	None	1
2.7	2015_Jun_16_1007	s	s	23	2	SIC	217	RC	2	2	09VD 02VO 02VC 02MD 02MO 02MC 02RD 02RO	1	0	1.52511119843	-178.0	-141.0	-180	-147	1
2.7	2015_Jun_16_1007	s	s	23	2	SIC	218	ABS	0	1	02VD 02VO 02VC 02MD 02MO 02MC 02RD 10RO	0	1	6.77487015724	None	None	None	None	1
2.7	2015_Jun_16_1007	s	s	23	2	SIC	219	ABS	1	1	02VD 02VO 02VC 02MD 10MO 02MC 02RD 02RO	0	1	5.60890889168	None	None	None	None	1
2.7	2015_Jun_16_1007	s	s	23	2	SIC	220	RC	1	1	02VD 02VO 02VC 02MD 09MO 02MC 02RD 02RO	1	0	1.65900993347	-261.0	334.0	-260	336	1
2.7	2015_Jun_16_1007	s	s	23	2	SIC	221	RC	0	2	02VD 02VO 02VC 02MD 02MO 02MC 09RD 02RO	1	0	2.60684800148	111.0	267.0	116	271	1
2.7	2015_Jun_16_1007	s	s	23	2	SIC	222	RC	2	1	02VD 09VO 02VC 02MD 02MO 02MC 02RD 02RO	1	0	1.67937302589	315.0	-12.0	311	-6	1
2.7	2015_Jun_16_1007	s	s	23	2	SIC	223	ABS	1	2	02VD 02VO 02VC 10MD 02MO 02MC 02RD 02RO	0	1	2.77720499039	None	None	None	None	1
2.7	2015_Jun_16_1007	s	s	23	2	SIC	224	ABS	2	1	02VD 10VO 02VC 02MD 02MO 02MC 02RD 02RO	0	1	2.9252910614	None	None	None	None	1
2.7	2015_Jun_16_1007	s	s	23	2	SIC	225	RC	0	1	02VD 02VO 02VC 02MD 02MO 02MC 02RD 09RO	1	0	4.93800401688	41.0	317.0	46	315	1
2.7	2015_Jun_16_1007	s	s	23	2	SIC	226	ABS	1	1	02VD 02VO 02VC 02MD 10MO 02MC 02RD 02RO	0	1	3.57252597809	None	None	None	None	1
2.7	2015_Jun_16_1007	s	s	23	2	SIC	227	RC	1	0	02VD 02VO 02VC 02MD 02MO 09MC 02RD 02RO	1	0	1.01175999641	139.0	-38.0	131	-37	1
2.7	2015_Jun_16_1007	s	s	23	2	SIC	228	ABS	1	0	02VD 02VO 02VC 02MD 02MO 10MC 02RD 02RO	0	1	2.89484286308	None	None	None	None	1
2.7	2015_Jun_16_1007	s	s	23	2	SIC	229	RC	1	2	02VD 02VO 02VC 09MD 02MO 02MC 02RD 02RO	1	0	1.20681214333	10.0	-195.0	17	-194	1
2.7	2015_Jun_16_1007	s	s	23	2	SIC	230	RC	2	0	02VD 02VO 09VC 02MD 02MO 02MC 02RD 02RO	1	0	1.33626580238	-76.0	-262.0	-80	-266	1
2.7	2015_Jun_16_1007	s	s	23	2	SIC	231	ABS	0	1	02VD 02VO 02VC 02MD 02MO 02MC 02RD 10RO	0	1	6.04721999168	None	None	None	None	1
2.7	2015_Jun_16_1007	s	s	23	2	SIC	232	RC	2	2	09VD 02VO 02VC 02MD 02MO 02MC 02RD 02RO	1	0	1.6825928688	363.0	231.0	365	232	1
2.7	2015_Jun_16_1007	s	s	23	2	SIC	233	ABS	0	2	02VD 02VO 02VC 02MD 02MO 02MC 10RD 02RO	0	1	3.53085899353	None	None	None	None	1
2.7	2015_Jun_16_1007	s	s	23	2	SIC	234	RC	2	1	02VD 09VO 02VC 02MD 02MO 02MC 02RD 02RO	1	0	0.759197950363	27.0	70.0	27	72	1
2.7	2015_Jun_16_1007	s	s	23	2	SIC	235	ABS	2	0	02VD 02VO 10VC 02MD 02MO 02MC 02RD 02RO	0	1	3.2716729641	None	None	None	None	1
2.7	2015_Jun_16_1007	s	s	23	2	SIC	236	RC	0	2	02VD 02VO 02VC 02MD 02MO 02MC 09RD 02RO	1	0	1.38297009468	-519.0	42.0	-522	44	1
2.7	2015_Jun_16_1007	s	s	23	2	SIC	237	ABS	1	2	02VD 02VO 02VC 10MD 02MO 02MC 02RD 02RO	0	1	4.08372688293	None	None	None	None	1
2.7	2015_Jun_16_1007	s	s	23	2	SIC	238	ABS	2	2	10VD 02VO 02VC 02MD 02MO 02MC 02RD 02RO	0	1	3.44207715988	None	None	None	None	1
2.7	2015_Jun_16_1007	s	s	23	2	SIC	239	ABS	2	1	02VD 10VO 02VC 02MD 02MO 02MC 02RD 02RO	0	1	2.87893295288	None	None	None	None	1
2.7	2015_Jun_16_1007	s	s	23	2	SIC	240	RC	1	1	02VD 02VO 02VC 02MD 09MO 02MC 02RD 02RO	1	0	1.71786880493	159.0	-233.0	-176	174	0
2.7	2015_Jun_16_1007	s	s	23	2	SIC	241	ABS	0	1	02VD 02VO 02VC 02MD 02MO 02MC 02RD 10RO	0	1	6.26130700111	None	None	None	None	1
2.7	2015_Jun_16_1007	s	s	23	2	SIC	242	RC	2	0	02VD 02VO 09VC 02MD 02MO 02MC 02RD 02RO	1	0	1.47799801826	503.0	56.0	504	58	1
2.7	2015_Jun_16_1007	s	s	23	2	SIC	243	RC	1	0	02VD 02VO 02VC 02MD 02MO 09MC 02RD 02RO	1	0	0.927127122879	335.0	62.0	339	60	1
2.7	2015_Jun_16_1007	s	s	23	2	SIC	244	ABS	0	2	02VD 02VO 02VC 02MD 02MO 02MC 10RD 02RO	0	1	5.97553992271	None	None	None	None	1
2.7	2015_Jun_16_1007	s	s	23	2	SIC	245	ABS	1	1	02VD 02VO 02VC 02MD 10MO 02MC 02RD 02RO	0	1	3.96029210091	None	None	None	None	1
2.7	2015_Jun_16_1007	s	s	23	2	SIC	246	RC	0	1	02VD 02VO 02VC 02MD 02MO 02MC 02RD 09RO	1	0	1.78454399109	537.0	41.0	542	42	1
2.7	2015_Jun_16_1007	s	s	23	2	SIC	247	RC	2	1	02VD 09VO 02VC 02MD 02MO 02MC 02RD 02RO	1	0	2.04232287407	428.0	-324.0	426	-329	1
2.7	2015_Jun_16_1007	s	s	23	2	SIC	248	ABS	1	2	02VD 02VO 02VC 10MD 02MO 02MC 02RD 02RO	0	1	2.76038694382	None	None	None	None	1
2.7	2015_Jun_16_1007	s	s	23	2	SIC	249	RC	1	1	02VD 02VO 02VC 02MD 09MO 02MC 02RD 02RO	1	0	1.00642704964	62.0	145.0	64	146	1
2.7	2015_Jun_16_1007	s	s	23	2	SIC	250	ABS	2	2	10VD 02VO 02VC 02MD 02MO 02MC 02RD 02RO	0	1	3.34216403961	None	None	None	None	1
2.7	2015_Jun_16_1007	s	s	23	2	SIC	251	ABS	2	0	02VD 02VO 10VC 02MD 02MO 02MC 02RD 02RO	0	1	3.87875008583	None	None	None	None	1
2.7	2015_Jun_16_1007	s	s	23	2	SIC	252	ABS	2	1	02VD 10VO 02VC 02MD 02MO 02MC 02RD 02RO	0	1	3.13063788414	None	None	None	None	1
2.7	2015_Jun_16_1007	s	s	23	2	SIC	253	RC	0	2	02VD 02VO 02VC 02MD 02MO 02MC 09RD 02RO	1	0	1.8473110199	-451.0	-149.0	-451	-152	1
2.7	2015_Jun_16_1007	s	s	23	2	SIC	254	RC	1	2	02VD 02VO 02VC 09MD 02MO 02MC 02RD 02RO	1	0	1.65458607674	-442.0	-42.0	-441	-46	1
2.7	2015_Jun_16_1007	s	s	23	2	SIC	255	RC	2	2	09VD 02VO 02VC 02MD 02MO 02MC 02RD 02RO	1	0	2.00621509552	309.0	-142.0	311	-140	1
2.7	2015_Jun_16_1007	s	s	23	2	SIC	256	ABS	1	0	02VD 02VO 02VC 02MD 02MO 10MC 02RD 02RO	0	1	3.80127286911	None	None	None	None	1
2.7	2015_Jun_16_1007	s	s	23	2	SIC	257	RC	0	1	02VD 02VO 02VC 02MD 02MO 02MC 02RD 09RO	1	0	4.15430307388	406.0	342.0	402	343	1
2.7	2015_Jun_16_1007	s	s	23	2	SIC	258	ABS	1	2	02VD 02VO 02VC 10MD 02MO 02MC 02RD 02RO	0	1	2.66639113426	None	None	None	None	1
2.7	2015_Jun_16_1007	s	s	23	2	SIC	259	ABS	2	2	10VD 02VO 02VC 02MD 02MO 02MC 02RD 02RO	0	1	2.58889913559	None	None	None	None	1
2.7	2015_Jun_16_1007	s	s	23	2	SIC	260	RC	2	0	02VD 02VO 09VC 02MD 02MO 02MC 02RD 02RO	1	0	1.44728112221	-479.0	-338.0	-480	-341	1
2.7	2015_Jun_16_1007	s	s	23	2	SIC	261	ABS	2	1	02VD 10VO 02VC 02MD 02MO 02MC 02RD 02RO	0	1	2.518253088	None	None	None	None	1
2.7	2015_Jun_16_1007	s	s	23	2	SIC	262	ABS	0	2	02VD 02VO 02VC 02MD 02MO 02MC 10RD 02RO	0	1	2.87818312645	None	None	None	None	1
2.7	2015_Jun_16_1007	s	s	23	2	SIC	263	ABS	1	0	02VD 02VO 02VC 02MD 02MO 10MC 02RD 02RO	0	1	2.23083806038	None	None	None	None	1
2.7	2015_Jun_16_1007	s	s	23	2	SIC	264	ABS	2	0	02VD 02VO 10VC 02MD 02MO 02MC 02RD 02RO	0	1	2.53698515892	None	None	None	None	1
2.7	2015_Jun_16_1007	s	s	23	2	SIC	265	RC	1	1	02VD 02VO 02VC 02MD 09MO 02MC 02RD 02RO	1	0	1.08232212067	-365.0	264.0	-356	267	1
2.7	2015_Jun_16_1007	s	s	23	2	SIC	266	RC	2	1	02VD 09VO 02VC 02MD 02MO 02MC 02RD 02RO	1	0	1.0117161274	-307.0	261.0	-307	261	1
2.7	2015_Jun_16_1007	s	s	23	2	SIC	267	RC	2	2	09VD 02VO 02VC 02MD 02MO 02MC 02RD 02RO	1	0	2.33664894104	-434.0	-311.0	-429	-314	1
2.7	2015_Jun_16_1007	s	s	23	2	SIC	268	ABS	1	1	02VD 02VO 02VC 02MD 10MO 02MC 02RD 02RO	0	1	3.84835886955	None	None	None	None	1
2.7	2015_Jun_16_1007	s	s	23	2	SIC	269	RC	0	2	02VD 02VO 02VC 02MD 02MO 02MC 09RD 02RO	1	0	1.05383396149	157.0	210.0	146	214	1
2.7	2015_Jun_16_1007	s	s	23	2	SIC	270	ABS	0	1	02VD 02VO 02VC 02MD 02MO 02MC 02RD 10RO	0	1	4.54284405708	None	None	None	None	1
2.7	2015_Jun_16_1007	s	s	23	2	SIC	271	RC	1	0	02VD 02VO 02VC 02MD 02MO 09MC 02RD 02RO	1	0	1.45086598396	283.0	-101.0	273	-98	1
2.7	2015_Jun_16_1007	s	s	23	2	SIC	272	RC	1	2	02VD 02VO 02VC 09MD 02MO 02MC 02RD 02RO	1	0	1.14111208916	8.0	332.0	8	337	1
2.7	2015_Jun_16_1007	s	s	23	2	SIC	273	RC	2	1	02VD 09VO 02VC 02MD 02MO 02MC 02RD 02RO	1	0	1.35300803185	-1.0	-272.0	3	-276	1
2.7	2015_Jun_16_1007	s	s	23	2	SIC	274	ABS	0	2	02VD 02VO 02VC 02MD 02MO 02MC 10RD 02RO	0	1	2.80741000175	None	None	None	None	1
2.7	2015_Jun_16_1007	s	s	23	2	SIC	275	ABS	0	1	02VD 02VO 02VC 02MD 02MO 02MC 02RD 10RO	0	1	4.80229783058	None	None	None	None	1
2.7	2015_Jun_16_1007	s	s	23	2	SIC	276	ABS	1	2	02VD 02VO 02VC 10MD 02MO 02MC 02RD 02RO	0	1	3.25219798088	None	None	None	None	1
2.7	2015_Jun_16_1007	s	s	23	2	SIC	277	RC	2	2	09VD 02VO 02VC 02MD 02MO 02MC 02RD 02RO	1	0	1.34792709351	-518.0	-89.0	-520	-87	1
2.7	2015_Jun_16_1007	s	s	23	2	SIC	278	RC	0	1	02VD 02VO 02VC 02MD 02MO 02MC 02RD 09RO	1	0	1.8418211937	-403.0	96.0	-409	91	1
2.7	2015_Jun_16_1007	s	s	23	2	SIC	279	RC	1	2	02VD 02VO 02VC 09MD 02MO 02MC 02RD 02RO	0	1	2.76035499573	-121.0	-219.0	None	None	0
2.7	2015_Jun_16_1007	s	s	23	2	SIC	280	ABS	2	2	10VD 02VO 02VC 02MD 02MO 02MC 02RD 02RO	0	1	2.77716112137	None	None	None	None	1
2.7	2015_Jun_16_1007	s	s	23	2	SIC	281	ABS	2	1	02VD 10VO 02VC 02MD 02MO 02MC 02RD 02RO	0	1	1.91306710243	None	None	None	None	1
2.7	2015_Jun_16_1007	s	s	23	2	SIC	282	RC	1	1	02VD 02VO 02VC 02MD 09MO 02MC 02RD 02RO	1	0	1.05390119553	245.0	235.0	253	237	1
2.7	2015_Jun_16_1007	s	s	23	2	SIC	283	ABS	2	0	02VD 02VO 10VC 02MD 02MO 02MC 02RD 02RO	0	1	2.04243898392	None	None	None	None	1
2.7	2015_Jun_16_1007	s	s	23	2	SIC	284	RC	0	2	02VD 02VO 02VC 02MD 02MO 02MC 09RD 02RO	1	0	1.14116287231	-413.0	-206.0	-415	-210	1
2.7	2015_Jun_16_1007	s	s	23	2	SIC	285	RC	2	0	02VD 02VO 09VC 02MD 02MO 02MC 02RD 02RO	1	0	1.58349704742	-52.0	161.0	-50	163	1
2.7	2015_Jun_16_1007	s	s	23	2	SIC	286	RC	1	0	02VD 02VO 02VC 02MD 02MO 09MC 02RD 02RO	1	0	1.21816015244	-319.0	301.0	-327	295	1
2.7	2015_Jun_16_1007	s	s	23	2	SIC	287	ABS	1	0	02VD 02VO 02VC 02MD 02MO 10MC 02RD 02RO	0	1	2.49005079269	None	None	None	None	1
2.7	2015_Jun_16_1007	s	s	23	2	SIC	288	ABS	1	1	02VD 02VO 02VC 02MD 10MO 02MC 02RD 02RO	0	1	3.9307050705	None	None	None	None	1
2.7	2015_Jun_16_1007	s	s	23	2	SIC	289	ABS	0	1	02VD 02VO 02VC 02MD 02MO 02MC 02RD 10RO	0	1	4.03653883934	None	None	None	None	1
2.7	2015_Jun_16_1007	s	s	23	2	SIC	290	ABS	1	2	02VD 02VO 02VC 10MD 02MO 02MC 02RD 02RO	0	1	2.97767519951	None	None	None	None	1
2.7	2015_Jun_16_1007	s	s	23	2	SIC	291	RC	1	1	02VD 02VO 02VC 02MD 09MO 02MC 02RD 02RO	1	0	3.41287207603	-77.0	329.0	-84	328	1
2.7	2015_Jun_16_1007	s	s	23	2	SIC	292	RC	0	1	02VD 02VO 02VC 02MD 02MO 02MC 02RD 09RO	1	0	1.83052897453	-272.0	389.0	-271	389	1
2.7	2015_Jun_16_1007	s	s	23	2	SIC	293	RC	2	2	09VD 02VO 02VC 02MD 02MO 02MC 02RD 02RO	1	0	1.62412881851	-404.0	-267.0	-399	-266	1
2.7	2015_Jun_16_1007	s	s	23	2	SIC	294	ABS	2	2	10VD 02VO 02VC 02MD 02MO 02MC 02RD 02RO	0	1	2.64527797699	None	None	None	None	1
2.7	2015_Jun_16_1007	s	s	23	2	SIC	295	ABS	2	0	02VD 02VO 10VC 02MD 02MO 02MC 02RD 02RO	0	1	3.21943211555	None	None	None	None	1
2.7	2015_Jun_16_1007	s	s	23	2	SIC	296	ABS	1	0	02VD 02VO 02VC 02MD 02MO 10MC 02RD 02RO	0	1	5.68460011482	None	None	None	None	1
2.7	2015_Jun_16_1007	s	s	23	2	SIC	297	RC	2	1	02VD 09VO 02VC 02MD 02MO 02MC 02RD 02RO	1	0	1.46563220024	-217.0	-372.0	-211	-367	1
2.7	2015_Jun_16_1007	s	s	23	2	SIC	298	ABS	0	2	02VD 02VO 02VC 02MD 02MO 02MC 10RD 02RO	0	1	2.91853499413	None	None	None	None	1
2.7	2015_Jun_16_1007	s	s	23	2	SIC	299	RC	1	2	02VD 02VO 02VC 09MD 02MO 02MC 02RD 02RO	1	0	1.81867909431	-329.0	302.0	-329	306	1
2.7	2015_Jun_16_1007	s	s	23	2	SIC	300	ABS	1	1	02VD 02VO 02VC 02MD 10MO 02MC 02RD 02RO	0	1	4.50244688988	None	None	None	None	1
2.7	2015_Jun_16_1007	s	s	23	2	SIC	301	RC	2	0	02VD 02VO 09VC 02MD 02MO 02MC 02RD 02RO	1	0	2.08271288872	-439.0	376.0	260	-37	0
2.7	2015_Jun_16_1007	s	s	23	2	SIC	302	RC	1	0	02VD 02VO 02VC 02MD 02MO 09MC 02RD 02RO	1	0	1.51440405846	335.0	120.0	336	129	1
2.7	2015_Jun_16_1007	s	s	23	2	SIC	303	RC	0	2	02VD 02VO 02VC 02MD 02MO 02MC 09RD 02RO	1	0	1.94897198677	168.0	-208.0	168	-211	1
2.7	2015_Jun_16_1007	s	s	23	2	SIC	304	ABS	2	1	02VD 10VO 02VC 02MD 02MO 02MC 02RD 02RO	0	1	3.09496712685	None	None	None	None	1
2.7	2015_Jun_16_1007	s	s	23	2	SIC	305	RC	0	2	02VD 02VO 02VC 02MD 02MO 02MC 09RD 02RO	1	0	1.90657901764	77.0	-339.0	71	-346	1
2.7	2015_Jun_16_1007	s	s	23	2	SIC	306	ABS	1	1	02VD 02VO 02VC 02MD 10MO 02MC 02RD 02RO	0	1	7.65025806427	None	None	None	None	1
2.7	2015_Jun_16_1007	s	s	23	2	SIC	307	RC	2	2	09VD 02VO 02VC 02MD 02MO 02MC 02RD 02RO	1	0	0.952800035477	-281.0	284.0	-280	282	1
2.7	2015_Jun_16_1007	s	s	23	2	SIC	308	RC	2	0	02VD 02VO 09VC 02MD 02MO 02MC 02RD 02RO	1	0	0.817671060562	-424.0	151.0	-424	155	1
2.7	2015_Jun_16_1007	s	s	23	2	SIC	309	ABS	0	1	02VD 02VO 02VC 02MD 02MO 02MC 02RD 10RO	0	1	3.31396102905	None	None	None	None	1
2.7	2015_Jun_16_1007	s	s	23	2	SIC	310	ABS	2	2	10VD 02VO 02VC 02MD 02MO 02MC 02RD 02RO	0	1	1.9275970459	None	None	None	None	1
2.7	2015_Jun_16_1007	s	s	23	2	SIC	311	RC	1	0	02VD 02VO 02VC 02MD 02MO 09MC 02RD 02RO	1	0	1.39553284645	438.0	176.0	433	171	1
2.7	2015_Jun_16_1007	s	s	23	2	SIC	312	RC	2	1	02VD 09VO 02VC 02MD 02MO 02MC 02RD 02RO	1	0	1.14745783806	456.0	57.0	458	51	1
2.7	2015_Jun_16_1007	s	s	23	2	SIC	313	ABS	2	1	02VD 10VO 02VC 02MD 02MO 02MC 02RD 02RO	0	1	3.40809679031	None	None	None	None	1
2.7	2015_Jun_16_1007	s	s	23	2	SIC	314	ABS	1	0	02VD 02VO 02VC 02MD 02MO 10MC 02RD 02RO	0	1	3.80878710747	None	None	None	None	1
2.7	2015_Jun_16_1007	s	s	23	2	SIC	315	ABS	2	0	02VD 02VO 10VC 02MD 02MO 02MC 02RD 02RO	0	1	2.89494490623	None	None	None	None	1
2.7	2015_Jun_16_1007	s	s	23	2	SIC	316	ABS	0	2	02VD 02VO 02VC 02MD 02MO 02MC 10RD 02RO	0	1	2.30641508102	None	None	None	None	1
2.7	2015_Jun_16_1007	s	s	23	2	SIC	317	RC	1	2	02VD 02VO 02VC 09MD 02MO 02MC 02RD 02RO	1	0	1.27060413361	-299.0	-91.0	-295	-91	1
2.7	2015_Jun_16_1007	s	s	23	2	SIC	318	ABS	1	2	02VD 02VO 02VC 10MD 02MO 02MC 02RD 02RO	0	1	2.33674097061	None	None	None	None	1
2.7	2015_Jun_16_1007	s	s	23	2	SIC	319	RC	0	1	02VD 02VO 02VC 02MD 02MO 02MC 02RD 09RO	1	0	0.95280790329	-140.0	41.0	-139	44	1
2.7	2015_Jun_16_1007	s	s	23	2	SIC	320	RC	1	1	02VD 02VO 02VC 02MD 09MO 02MC 02RD 02RO	1	0	1.83053612709	-25.0	-351.0	-24	-355	1
2.7	2015_Jun_16_1007	s	s	23	2	SIC	321	ABS	0	1	02VD 02VO 02VC 02MD 02MO 02MC 02RD 10RO	0	1	3.29559206963	None	None	None	None	1
2.7	2015_Jun_16_1007	s	s	23	2	SIC	322	RC	2	2	09VD 02VO 02VC 02MD 02MO 02MC 02RD 02RO	1	0	4.99622702599	518.0	25.0	512	18	1
2.7	2015_Jun_16_1007	s	s	23	2	SIC	323	RC	1	0	02VD 02VO 02VC 02MD 02MO 09MC 02RD 02RO	1	0	0.787987947464	82.0	170.0	89	169	1
2.7	2015_Jun_16_1007	s	s	23	2	SIC	324	ABS	0	2	02VD 02VO 02VC 02MD 02MO 02MC 10RD 02RO	0	1	2.66621303558	None	None	None	None	1
2.7	2015_Jun_16_1007	s	s	23	2	SIC	325	ABS	1	2	02VD 02VO 02VC 10MD 02MO 02MC 02RD 02RO	0	1	2.5455391407	None	None	None	None	1
2.7	2015_Jun_16_1007	s	s	23	2	SIC	326	RC	1	2	02VD 02VO 02VC 09MD 02MO 02MC 02RD 02RO	1	0	0.723264932632	-376.0	206.0	-375	205	1
2.7	2015_Jun_16_1007	s	s	23	2	SIC	327	RC	0	2	02VD 02VO 02VC 02MD 02MO 02MC 09RD 02RO	1	0	2.1768758297	226.0	-104.0	222	-94	1
2.7	2015_Jun_16_1007	s	s	23	2	SIC	328	ABS	2	1	02VD 10VO 02VC 02MD 02MO 02MC 02RD 02RO	0	1	2.51346683502	None	None	None	None	1
2.7	2015_Jun_16_1007	s	s	23	2	SIC	329	ABS	2	2	10VD 02VO 02VC 02MD 02MO 02MC 02RD 02RO	0	1	2.18355512619	None	None	None	None	1
2.7	2015_Jun_16_1007	s	s	23	2	SIC	330	RC	0	1	02VD 02VO 02VC 02MD 02MO 02MC 02RD 09RO	1	0	1.31265187263	-374.0	151.0	-366	154	1
2.7	2015_Jun_16_1007	s	s	23	2	SIC	331	ABS	1	1	02VD 02VO 02VC 02MD 10MO 02MC 02RD 02RO	0	1	3.11420512199	None	None	None	None	1
2.7	2015_Jun_16_1007	s	s	23	2	SIC	332	ABS	2	0	02VD 02VO 10VC 02MD 02MO 02MC 02RD 02RO	0	1	3.3606710434	None	None	None	None	1
2.7	2015_Jun_16_1007	s	s	23	2	SIC	333	RC	2	1	02VD 09VO 02VC 02MD 02MO 02MC 02RD 02RO	1	0	0.740942001343	143.0	-45.0	147	-48	1
2.7	2015_Jun_16_1007	s	s	23	2	SIC	334	RC	1	1	02VD 02VO 02VC 02MD 09MO 02MC 02RD 02RO	1	0	1.31277799606	-467.0	153.0	-467	153	1
2.7	2015_Jun_16_1007	s	s	23	2	SIC	335	RC	2	0	02VD 02VO 09VC 02MD 02MO 02MC 02RD 02RO	1	0	1.93814587593	191.0	-128.0	193	-126	1
2.7	2015_Jun_16_1007	s	s	23	2	SIC	336	ABS	1	0	02VD 02VO 02VC 02MD 02MO 10MC 02RD 02RO	0	1	3.6127820015	None	None	None	None	1
2.7	2015_Jun_16_1007	s	s	23	2	SIC	337	RC	2	2	09VD 02VO 02VC 02MD 02MO 02MC 02RD 02RO	1	0	0.988153934479	414.0	230.0	409	232	1
2.7	2015_Jun_16_1007	s	s	23	2	SIC	338	RC	0	2	02VD 02VO 02VC 02MD 02MO 02MC 09RD 02RO	1	0	2.13857007027	490.0	-166.0	497	-164	1
2.7	2015_Jun_16_1007	s	s	23	2	SIC	339	RC	1	2	02VD 02VO 02VC 09MD 02MO 02MC 02RD 02RO	1	0	1.02342200279	-106.0	253.0	-108	254	1
2.7	2015_Jun_16_1007	s	s	23	2	SIC	340	RC	0	1	02VD 02VO 02VC 02MD 02MO 02MC 02RD 09RO	1	0	1.82150506973	423.0	115.0	425	113	1
2.7	2015_Jun_16_1007	s	s	23	2	SIC	341	RC	2	0	02VD 02VO 09VC 02MD 02MO 02MC 02RD 02RO	1	0	1.53631901741	-341.0	-241.0	-347	-245	1
2.7	2015_Jun_16_1007	s	s	23	2	SIC	342	ABS	1	2	02VD 02VO 02VC 10MD 02MO 02MC 02RD 02RO	0	1	2.32492899895	None	None	None	None	1
2.7	2015_Jun_16_1007	s	s	23	2	SIC	343	ABS	0	2	02VD 02VO 02VC 02MD 02MO 02MC 10RD 02RO	0	1	2.69005298615	None	None	None	None	1
2.7	2015_Jun_16_1007	s	s	23	2	SIC	344	RC	2	1	02VD 09VO 02VC 02MD 02MO 02MC 02RD 02RO	1	0	0.941040039062	-4.0	358.0	-6	360	1
2.7	2015_Jun_16_1007	s	s	23	2	SIC	345	RC	1	0	02VD 02VO 02VC 02MD 02MO 09MC 02RD 02RO	1	0	1.67097091675	-237.0	-111.0	-232	-118	1
2.7	2015_Jun_16_1007	s	s	23	2	SIC	346	ABS	0	1	02VD 02VO 02VC 02MD 02MO 02MC 02RD 10RO	0	1	4.87238001823	None	None	None	None	1
2.7	2015_Jun_16_1007	s	s	23	2	SIC	347	RC	1	1	02VD 02VO 02VC 02MD 09MO 02MC 02RD 02RO	1	0	1.05386996269	-539.0	-77.0	-534	-82	1
2.7	2015_Jun_16_1007	s	s	23	2	SIC	348	ABS	2	0	02VD 02VO 10VC 02MD 02MO 02MC 02RD 02RO	0	1	2.67129898071	None	None	None	None	1
2.7	2015_Jun_16_1007	s	s	23	2	SIC	349	ABS	2	1	02VD 10VO 02VC 02MD 02MO 02MC 02RD 02RO	0	1	2.36527895927	None	None	None	None	1
2.7	2015_Jun_16_1007	s	s	23	2	SIC	350	ABS	1	1	02VD 02VO 02VC 02MD 10MO 02MC 02RD 02RO	0	1	4.33752608299	None	None	None	None	1
2.7	2015_Jun_16_1007	s	s	23	2	SIC	351	ABS	2	2	10VD 02VO 02VC 02MD 02MO 02MC 02RD 02RO	0	1	2.09491491318	None	None	None	None	1
2.7	2015_Jun_16_1007	s	s	23	2	SIC	352	ABS	1	0	02VD 02VO 02VC 02MD 02MO 10MC 02RD 02RO	0	1	2.77250504494	None	None	None	None	1
2.7	2015_Jun_16_1007	s	s	23	2	SIC	353	ABS	2	2	10VD 02VO 02VC 02MD 02MO 02MC 02RD 02RO	0	1	2.25922083855	None	None	None	None	1
2.7	2015_Jun_16_1007	s	s	23	2	SIC	354	ABS	0	1	02VD 02VO 02VC 02MD 02MO 02MC 02RD 10RO	0	1	4.62015414238	None	None	None	None	1
2.7	2015_Jun_16_1007	s	s	23	2	SIC	355	ABS	1	0	02VD 02VO 02VC 02MD 02MO 10MC 02RD 02RO	0	1	3.07142305374	None	None	None	None	1
2.7	2015_Jun_16_1007	s	s	23	2	SIC	356	ABS	1	2	02VD 02VO 02VC 10MD 02MO 02MC 02RD 02RO	0	1	2.09464693069	None	None	None	None	1
2.7	2015_Jun_16_1007	s	s	23	2	SIC	357	RC	2	2	09VD 02VO 02VC 02MD 02MO 02MC 02RD 02RO	1	0	2.15343093872	380.0	-62.0	385	-62	1
2.7	2015_Jun_16_1007	s	s	23	2	SIC	358	RC	0	1	02VD 02VO 02VC 02MD 02MO 02MC 02RD 09RO	0	1	2.85464119911	470.0	-365.0	None	None	0
2.7	2015_Jun_16_1007	s	s	23	2	SIC	359	ABS	2	1	02VD 10VO 02VC 02MD 02MO 02MC 02RD 02RO	0	1	2.15104985237	None	None	None	None	1
2.7	2015_Jun_16_1007	s	s	23	2	SIC	360	RC	2	0	02VD 02VO 09VC 02MD 02MO 02MC 02RD 02RO	1	0	1.97674202919	515.0	366.0	518	370	1
2.7	2015_Jun_16_1007	s	s	23	2	SIC	361	ABS	0	2	02VD 02VO 02VC 02MD 02MO 02MC 10RD 02RO	0	1	2.6665661335	None	None	None	None	1
2.7	2015_Jun_16_1007	s	s	23	2	SIC	362	ABS	2	0	02VD 02VO 10VC 02MD 02MO 02MC 02RD 02RO	0	1	2.43585300446	None	None	None	None	1
2.7	2015_Jun_16_1007	s	s	23	2	SIC	363	ABS	1	1	02VD 02VO 02VC 02MD 10MO 02MC 02RD 02RO	0	1	4.31411600113	None	None	None	None	1
2.7	2015_Jun_16_1007	s	s	23	2	SIC	364	RC	1	1	02VD 02VO 02VC 02MD 09MO 02MC 02RD 02RO	1	0	1.73587393761	464.0	-37.0	460	-32	1
2.7	2015_Jun_16_1007	s	s	23	2	SIC	365	RC	0	2	02VD 02VO 02VC 02MD 02MO 02MC 09RD 02RO	1	0	2.0307328701	447.0	-159.0	444	-158	1
2.7	2015_Jun_16_1007	s	s	23	2	SIC	366	RC	1	2	02VD 02VO 02VC 09MD 02MO 02MC 02RD 02RO	1	0	1.04198598862	142.0	83.0	142	85	1
2.7	2015_Jun_16_1007	s	s	23	2	SIC	367	RC	2	1	02VD 09VO 02VC 02MD 02MO 02MC 02RD 02RO	1	0	1.57152700424	519.0	-384.0	510	-387	1
2.7	2015_Jun_16_1007	s	s	23	2	SIC	368	RC	1	0	02VD 02VO 02VC 02MD 02MO 09MC 02RD 02RO	1	0	0.815447092056	-197.0	360.0	-202	352	1
2.7	2015_Jun_16_1007	s	s	23	2	SIC	369	RC	1	0	02VD 02VO 02VC 02MD 02MO 09MC 02RD 02RO	1	0	1.6659219265	52.0	-336.0	48	-342	1
2.7	2015_Jun_16_1007	s	s	23	2	SIC	370	RC	0	1	02VD 02VO 02VC 02MD 02MO 02MC 02RD 09RO	1	0	1.23910593987	-195.0	372.0	-195	374	1
2.7	2015_Jun_16_1007	s	s	23	2	SIC	371	ABS	0	1	02VD 02VO 02VC 02MD 02MO 02MC 02RD 10RO	0	1	4.29305291176	None	None	None	None	1
2.7	2015_Jun_16_1007	s	s	23	2	SIC	372	RC	2	2	09VD 02VO 02VC 02MD 02MO 02MC 02RD 02RO	1	0	1.01701188087	161.0	49.0	163	51	1
2.7	2015_Jun_16_1007	s	s	23	2	SIC	373	ABS	2	2	10VD 02VO 02VC 02MD 02MO 02MC 02RD 02RO	0	1	2.44767308235	None	None	None	None	1
2.7	2015_Jun_16_1007	s	s	23	2	SIC	374	RC	2	0	02VD 02VO 09VC 02MD 02MO 02MC 02RD 02RO	1	0	1.11253404617	339.0	-54.0	334	-57	1
2.7	2015_Jun_16_1007	s	s	23	2	SIC	375	RC	2	1	02VD 09VO 02VC 02MD 02MO 02MC 02RD 02RO	1	0	1.27042889595	404.0	172.0	404	178	1
2.7	2015_Jun_16_1007	s	s	23	2	SIC	376	ABS	0	2	02VD 02VO 02VC 02MD 02MO 02MC 10RD 02RO	0	1	1.96506810188	None	None	None	None	1
2.7	2015_Jun_16_1007	s	s	23	2	SIC	377	ABS	1	1	02VD 02VO 02VC 02MD 10MO 02MC 02RD 02RO	0	1	2.083081007	None	None	None	None	1
2.7	2015_Jun_16_1007	s	s	23	2	SIC	378	ABS	1	2	02VD 02VO 02VC 10MD 02MO 02MC 02RD 02RO	0	1	2.1416580677	None	None	None	None	1
2.7	2015_Jun_16_1007	s	s	23	2	SIC	379	RC	1	1	02VD 02VO 02VC 02MD 09MO 02MC 02RD 02RO	1	0	1.20984506607	-498.0	-61.0	-503	-67	1
2.7	2015_Jun_16_1007	s	s	23	2	SIC	380	RC	1	2	02VD 02VO 02VC 09MD 02MO 02MC 02RD 02RO	1	0	0.913100004196	-36.0	-236.0	-30	-238	1
2.7	2015_Jun_16_1007	s	s	23	2	SIC	381	ABS	2	0	02VD 02VO 10VC 02MD 02MO 02MC 02RD 02RO	0	1	2.0709939003	None	None	None	None	1
2.7	2015_Jun_16_1007	s	s	23	2	SIC	382	RC	0	2	02VD 02VO 02VC 02MD 02MO 02MC 09RD 02RO	1	0	1.27057814598	97.0	389.0	92	380	1
2.7	2015_Jun_16_1007	s	s	23	2	SIC	383	ABS	2	1	02VD 10VO 02VC 02MD 02MO 02MC 02RD 02RO	0	1	1.72968411446	None	None	None	None	1
2.7	2015_Jun_16_1007	s	s	23	2	SIC	384	ABS	1	0	02VD 02VO 02VC 02MD 02MO 10MC 02RD 02RO	0	1	2.21734595299	None	None	None	None	1
2.7	2015_Jun_16_1007	s	s	23	2	SIC	385	RC	1	0	02VD 02VO 02VC 02MD 02MO 09MC 02RD 02RO	1	0	1.60758185387	-269.0	-231.0	-274	-225	1
2.7	2015_Jun_16_1007	s	s	23	2	SIC	386	ABS	1	2	02VD 02VO 02VC 10MD 02MO 02MC 02RD 02RO	0	1	1.88646292686	None	None	None	None	1
2.7	2015_Jun_16_1007	s	s	23	2	SIC	387	RC	2	1	02VD 09VO 02VC 02MD 02MO 02MC 02RD 02RO	1	0	0.700690984726	162.0	27.0	168	21	1
2.7	2015_Jun_16_1007	s	s	23	2	SIC	388	ABS	0	1	02VD 02VO 02VC 02MD 02MO 02MC 02RD 10RO	0	1	3.23635411263	None	None	None	None	1
2.7	2015_Jun_16_1007	s	s	23	2	SIC	389	RC	2	0	02VD 02VO 09VC 02MD 02MO 02MC 02RD 02RO	1	0	1.35674405098	-178.0	-142.0	-177	-144	1
2.7	2015_Jun_16_1007	s	s	23	2	SIC	390	ABS	2	2	10VD 02VO 02VC 02MD 02MO 02MC 02RD 02RO	0	1	2.78383994102	None	None	None	None	1
2.7	2015_Jun_16_1007	s	s	23	2	SIC	391	RC	2	2	09VD 02VO 02VC 02MD 02MO 02MC 02RD 02RO	1	0	2.35343718529	226.0	-174.0	229	-172	1
2.7	2015_Jun_16_1007	s	s	23	2	SIC	392	ABS	2	0	02VD 02VO 10VC 02MD 02MO 02MC 02RD 02RO	0	1	2.39573502541	None	None	None	None	1
2.7	2015_Jun_16_1007	s	s	23	2	SIC	393	ABS	0	2	02VD 02VO 02VC 02MD 02MO 02MC 10RD 02RO	0	1	3.83662104607	None	None	None	None	1
2.7	2015_Jun_16_1007	s	s	23	2	SIC	394	RC	1	2	02VD 02VO 02VC 09MD 02MO 02MC 02RD 02RO	1	0	1.16223216057	138.0	-365.0	148	-365	1
2.7	2015_Jun_16_1007	s	s	23	2	SIC	395	ABS	1	0	02VD 02VO 02VC 02MD 02MO 10MC 02RD 02RO	0	1	3.2597990036	None	None	None	None	1
2.7	2015_Jun_16_1007	s	s	23	2	SIC	396	RC	1	1	02VD 02VO 02VC 02MD 09MO 02MC 02RD 02RO	1	0	0.688855171204	-69.0	254.0	-74	256	1
2.7	2015_Jun_16_1007	s	s	23	2	SIC	397	ABS	1	1	02VD 02VO 02VC 02MD 10MO 02MC 02RD 02RO	0	1	3.08327889442	None	None	None	None	1
2.7	2015_Jun_16_1007	s	s	23	2	SIC	398	RC	0	2	02VD 02VO 02VC 02MD 02MO 02MC 09RD 02RO	1	0	2.07094788551	186.0	375.0	183	380	1
2.7	2015_Jun_16_1007	s	s	23	2	SIC	399	ABS	2	1	02VD 10VO 02VC 02MD 02MO 02MC 02RD 02RO	0	1	1.90624904633	None	None	None	None	1
2.7	2015_Jun_16_1007	s	s	23	2	SIC	400	RC	0	1	02VD 02VO 02VC 02MD 02MO 02MC 02RD 09RO	1	0	0.988121986389	-304.0	10.0	-313	6	1
2.7	2015_Jun_16_1007	s	s	23	2	SIC	401	RC	1	2	02VD 02VO 02VC 09MD 02MO 02MC 02RD 02RO	1	0	2.09444999695	424.0	411.0	422	415	1
2.7	2015_Jun_16_1007	s	s	23	2	SIC	402	RC	1	1	02VD 02VO 02VC 02MD 09MO 02MC 02RD 02RO	1	0	1.03033590317	5.0	54.0	14	55	1
2.7	2015_Jun_16_1007	s	s	23	2	SIC	403	ABS	1	1	02VD 02VO 02VC 02MD 10MO 02MC 02RD 02RO	0	1	3.06792020798	None	None	None	None	1
2.7	2015_Jun_16_1007	s	s	23	2	SIC	404	RC	2	0	02VD 02VO 09VC 02MD 02MO 02MC 02RD 02RO	1	0	0.88917016983	-454.0	331.0	-457	323	1
2.7	2015_Jun_16_1007	s	s	23	2	SIC	405	RC	0	1	02VD 02VO 02VC 02MD 02MO 02MC 02RD 09RO	1	0	0.923855066299	-263.0	-57.0	-267	-53	1
2.7	2015_Jun_16_1007	s	s	23	2	SIC	406	RC	1	0	02VD 02VO 02VC 02MD 02MO 09MC 02RD 02RO	1	0	0.891264915466	64.0	237.0	68	236	1
2.7	2015_Jun_16_1007	s	s	23	2	SIC	407	RC	0	2	02VD 02VO 02VC 02MD 02MO 02MC 09RD 02RO	1	0	5.57273697853	-73.0	403.0	-70	408	1
2.7	2015_Jun_16_1007	s	s	23	2	SIC	408	ABS	0	1	02VD 02VO 02VC 02MD 02MO 02MC 02RD 10RO	0	1	5.33138298988	None	None	None	None	1
2.7	2015_Jun_16_1007	s	s	23	2	SIC	409	RC	2	1	02VD 09VO 02VC 02MD 02MO 02MC 02RD 02RO	1	0	0.665628910065	-143.0	47.0	-146	46	1
2.7	2015_Jun_16_1007	s	s	23	2	SIC	410	ABS	2	1	02VD 10VO 02VC 02MD 02MO 02MC 02RD 02RO	0	1	2.64780497551	None	None	None	None	1
2.7	2015_Jun_16_1007	s	s	23	2	SIC	411	ABS	1	0	02VD 02VO 02VC 02MD 02MO 10MC 02RD 02RO	0	1	2.83116698265	None	None	None	None	1
2.7	2015_Jun_16_1007	s	s	23	2	SIC	412	ABS	2	0	02VD 02VO 10VC 02MD 02MO 02MC 02RD 02RO	0	1	3.27156400681	None	None	None	None	1
2.7	2015_Jun_16_1007	s	s	23	2	SIC	413	ABS	2	2	10VD 02VO 02VC 02MD 02MO 02MC 02RD 02RO	0	1	2.00675606728	None	None	None	None	1
2.7	2015_Jun_16_1007	s	s	23	2	SIC	414	ABS	1	2	02VD 02VO 02VC 10MD 02MO 02MC 02RD 02RO	0	1	2.91350197792	None	None	None	None	1
2.7	2015_Jun_16_1007	s	s	23	2	SIC	415	RC	2	2	09VD 02VO 02VC 02MD 02MO 02MC 02RD 02RO	1	0	2.57204699516	-307.0	190.0	-309	186	1
2.7	2015_Jun_16_1007	s	s	23	2	SIC	416	ABS	0	2	02VD 02VO 02VC 02MD 02MO 02MC 10RD 02RO	0	1	3.18662285805	None	None	None	None	1
2.7	2015_Jun_16_1007	s	s	23	2	SIC	417	ABS	2	0	02VD 02VO 10VC 02MD 02MO 02MC 02RD 02RO	0	1	2.23576498032	None	None	None	None	1
2.7	2015_Jun_16_1007	s	s	23	2	SIC	418	ABS	0	1	02VD 02VO 02VC 02MD 02MO 02MC 02RD 10RO	0	1	3.21973800659	None	None	None	None	1
2.7	2015_Jun_16_1007	s	s	23	2	SIC	419	RC	2	1	02VD 09VO 02VC 02MD 02MO 02MC 02RD 02RO	1	0	2.49475598335	498.0	143.0	498	143	1
2.7	2015_Jun_16_1007	s	s	23	2	SIC	420	ABS	2	1	02VD 10VO 02VC 02MD 02MO 02MC 02RD 02RO	0	1	2.71577811241	None	None	None	None	1
2.7	2015_Jun_16_1007	s	s	23	2	SIC	421	RC	1	1	02VD 02VO 02VC 02MD 09MO 02MC 02RD 02RO	1	0	3.0337638855	148.0	315.0	144	317	1
2.7	2015_Jun_16_1007	s	s	23	2	SIC	422	RC	0	2	02VD 02VO 02VC 02MD 02MO 02MC 09RD 02RO	1	0	2.3416891098	-107.0	-226.0	-108	-225	1
2.7	2015_Jun_16_1007	s	s	23	2	SIC	423	RC	0	1	02VD 02VO 02VC 02MD 02MO 02MC 02RD 09RO	1	0	2.10265207291	393.0	343.0	398	335	1
2.7	2015_Jun_16_1007	s	s	23	2	SIC	424	ABS	1	2	02VD 02VO 02VC 10MD 02MO 02MC 02RD 02RO	0	1	2.41610407829	None	None	None	None	1
2.7	2015_Jun_16_1007	s	s	23	2	SIC	425	ABS	1	1	02VD 02VO 02VC 02MD 10MO 02MC 02RD 02RO	0	1	2.43058800697	None	None	None	None	1
2.7	2015_Jun_16_1007	s	s	23	2	SIC	426	RC	2	2	09VD 02VO 02VC 02MD 02MO 02MC 02RD 02RO	1	0	1.00845599174	220.0	162.0	215	169	1
2.7	2015_Jun_16_1007	s	s	23	2	SIC	427	RC	1	2	02VD 02VO 02VC 09MD 02MO 02MC 02RD 02RO	1	0	0.782871007919	-191.0	367.0	-193	363	1
2.7	2015_Jun_16_1007	s	s	23	2	SIC	428	RC	2	0	02VD 02VO 09VC 02MD 02MO 02MC 02RD 02RO	1	0	1.43239402771	488.0	391.0	481	396	1
2.7	2015_Jun_16_1007	s	s	23	2	SIC	429	ABS	0	2	02VD 02VO 02VC 02MD 02MO 02MC 10RD 02RO	1	0	2.24751901627	None	None	279	-105	0
2.7	2015_Jun_16_1007	s	s	23	2	SIC	430	ABS	1	0	02VD 02VO 02VC 02MD 02MO 10MC 02RD 02RO	0	1	6.29208397865	None	None	None	None	1
2.7	2015_Jun_16_1007	s	s	23	2	SIC	431	ABS	2	2	10VD 02VO 02VC 02MD 02MO 02MC 02RD 02RO	0	1	3.81312203407	None	None	None	None	1
2.7	2015_Jun_16_1007	s	s	23	2	SIC	432	RC	1	0	02VD 02VO 02VC 02MD 02MO 09MC 02RD 02RO	1	0	1.41864585876	161.0	62.0	151	63	1
2.7	2015_Jun_16_1007	s	s	23	2	SIC	433	ABS	2	0	02VD 02VO 10VC 02MD 02MO 02MC 02RD 02RO	0	1	2.12984418869	None	None	None	None	1
2.7	2015_Jun_16_1007	s	s	23	2	SIC	434	ABS	1	0	02VD 02VO 02VC 02MD 02MO 10MC 02RD 02RO	0	1	7.93982410431	None	None	None	None	1
2.7	2015_Jun_16_1007	s	s	23	2	SIC	435	RC	1	0	02VD 02VO 02VC 02MD 02MO 09MC 02RD 02RO	1	0	3.20103907585	-107.0	-245.0	-107	-237	1
2.7	2015_Jun_16_1007	s	s	23	2	SIC	436	ABS	2	1	02VD 10VO 02VC 02MD 02MO 02MC 02RD 02RO	0	1	3.54931712151	None	None	None	None	1
2.7	2015_Jun_16_1007	s	s	23	2	SIC	437	RC	1	1	02VD 02VO 02VC 02MD 09MO 02MC 02RD 02RO	1	0	1.44223999977	-373.0	188.0	-375	188	1
2.7	2015_Jun_16_1007	s	s	23	2	SIC	438	ABS	1	2	02VD 02VO 02VC 10MD 02MO 02MC 02RD 02RO	0	1	2.51299619675	None	None	None	None	1
2.7	2015_Jun_16_1007	s	s	23	2	SIC	439	RC	0	1	02VD 02VO 02VC 02MD 02MO 02MC 02RD 09RO	1	0	1.61211705208	-388.0	-136.0	-384	-140	1
2.7	2015_Jun_16_1007	s	s	23	2	SIC	440	ABS	1	1	02VD 02VO 02VC 02MD 10MO 02MC 02RD 02RO	0	1	3.243090868	None	None	None	None	1
2.7	2015_Jun_16_1007	s	s	23	2	SIC	441	ABS	0	2	02VD 02VO 02VC 02MD 02MO 02MC 10RD 02RO	0	1	3.92524790764	None	None	None	None	1
2.7	2015_Jun_16_1007	s	s	23	2	SIC	442	RC	1	2	02VD 02VO 02VC 09MD 02MO 02MC 02RD 02RO	1	0	1.56025791168	-62.0	305.0	-61	308	1
2.7	2015_Jun_16_1007	s	s	23	2	SIC	443	ABS	2	2	10VD 02VO 02VC 02MD 02MO 02MC 02RD 02RO	0	1	2.5133600235	None	None	None	None	1
2.7	2015_Jun_16_1007	s	s	23	2	SIC	444	RC	2	0	02VD 02VO 09VC 02MD 02MO 02MC 02RD 02RO	1	0	0.853625059128	-118.0	277.0	-116	277	1
2.7	2015_Jun_16_1007	s	s	23	2	SIC	445	ABS	0	1	02VD 02VO 02VC 02MD 02MO 02MC 02RD 10RO	0	1	3.63142895699	None	None	None	None	1
2.7	2015_Jun_16_1007	s	s	23	2	SIC	446	RC	0	2	02VD 02VO 02VC 02MD 02MO 02MC 09RD 02RO	1	0	1.1718518734	33.0	249.0	38	248	1
2.7	2015_Jun_16_1007	s	s	23	2	SIC	447	RC	2	1	02VD 09VO 02VC 02MD 02MO 02MC 02RD 02RO	1	0	1.32941198349	-518.0	-9.0	-520	-8	1
2.7	2015_Jun_16_1007	s	s	23	2	SIC	448	RC	2	2	09VD 02VO 02VC 02MD 02MO 02MC 02RD 02RO	1	0	1.7366271019	375.0	-297.0	381	-297	1
2.7	2015_Jun_16_1007	s	s	23	2	SIC	449	RC	0	2	02VD 02VO 02VC 02MD 02MO 02MC 09RD 02RO	1	0	0.799765825272	137.0	-141.0	136	-135	1
2.7	2015_Jun_16_1007	s	s	23	2	SIC	450	RC	2	2	09VD 02VO 02VC 02MD 02MO 02MC 02RD 02RO	1	0	1.74513792992	235.0	-204.0	227	-205	1
2.7	2015_Jun_16_1007	s	s	23	2	SIC	451	ABS	0	2	02VD 02VO 02VC 02MD 02MO 02MC 10RD 02RO	0	1	2.62416791916	None	None	None	None	1
2.7	2015_Jun_16_1007	s	s	23	2	SIC	452	RC	2	0	02VD 02VO 09VC 02MD 02MO 02MC 02RD 02RO	1	0	1.25914907455	207.0	-197.0	209	-193	1
2.7	2015_Jun_16_1007	s	s	23	2	SIC	453	ABS	2	2	10VD 02VO 02VC 02MD 02MO 02MC 02RD 02RO	0	1	2.54184389114	None	None	None	None	1
2.7	2015_Jun_16_1007	s	s	23	2	SIC	454	RC	2	1	02VD 09VO 02VC 02MD 02MO 02MC 02RD 02RO	1	0	2.10627222061	378.0	-274.0	383	-273	1
2.7	2015_Jun_16_1007	s	s	23	2	SIC	455	RC	1	2	02VD 02VO 02VC 09MD 02MO 02MC 02RD 02RO	1	0	1.88269710541	412.0	-303.0	413	-299	1
2.7	2015_Jun_16_1007	s	s	23	2	SIC	456	ABS	1	1	02VD 02VO 02VC 02MD 10MO 02MC 02RD 02RO	0	1	2.75368094444	None	None	None	None	1
2.7	2015_Jun_16_1007	s	s	23	2	SIC	457	RC	1	0	02VD 02VO 02VC 02MD 02MO 09MC 02RD 02RO	1	0	1.03244996071	-332.0	-308.0	-336	-302	1
2.7	2015_Jun_16_1007	s	s	23	2	SIC	458	ABS	2	0	02VD 02VO 10VC 02MD 02MO 02MC 02RD 02RO	0	1	1.77349615097	None	None	None	None	1
2.7	2015_Jun_16_1007	s	s	23	2	SIC	459	RC	1	1	02VD 02VO 02VC 02MD 09MO 02MC 02RD 02RO	1	0	1.28986096382	-519.0	174.0	-505	179	1
2.7	2015_Jun_16_1007	s	s	23	2	SIC	460	ABS	0	1	02VD 02VO 02VC 02MD 02MO 02MC 02RD 10RO	0	1	3.25440406799	None	None	None	None	1
2.7	2015_Jun_16_1007	s	s	23	2	SIC	461	ABS	2	1	02VD 10VO 02VC 02MD 02MO 02MC 02RD 02RO	0	1	3.17744588852	None	None	None	None	1
2.7	2015_Jun_16_1007	s	s	23	2	SIC	462	RC	0	1	02VD 02VO 02VC 02MD 02MO 02MC 02RD 09RO	1	0	3.77334713936	419.0	166.0	428	169	1
2.7	2015_Jun_16_1007	s	s	23	2	SIC	463	ABS	1	2	02VD 02VO 02VC 10MD 02MO 02MC 02RD 02RO	0	1	2.41933202744	None	None	None	None	1
2.7	2015_Jun_16_1007	s	s	23	2	SIC	464	ABS	1	0	02VD 02VO 02VC 02MD 02MO 10MC 02RD 02RO	0	1	4.86748218536	None	None	None	None	1
2.7	2015_Jun_16_1007	s	s	23	2	SIC	465	RC	1	2	02VD 02VO 02VC 09MD 02MO 02MC 02RD 02RO	1	0	0.902400970459	-108.0	-87.0	-115	-87	1
2.7	2015_Jun_16_1007	s	s	23	2	SIC	466	ABS	0	1	02VD 02VO 02VC 02MD 02MO 02MC 02RD 10RO	0	1	3.9756000042	None	None	None	None	1
2.7	2015_Jun_16_1007	s	s	23	2	SIC	467	ABS	1	0	02VD 02VO 02VC 02MD 02MO 10MC 02RD 02RO	0	1	6.32683992386	None	None	None	None	1
2.7	2015_Jun_16_1007	s	s	23	2	SIC	468	ABS	2	0	02VD 02VO 10VC 02MD 02MO 02MC 02RD 02RO	0	1	2.16517615318	None	None	None	None	1
2.7	2015_Jun_16_1007	s	s	23	2	SIC	469	RC	2	2	09VD 02VO 02VC 02MD 02MO 02MC 02RD 02RO	1	0	1.08254599571	-259.0	22.0	-263	23	1
2.7	2015_Jun_16_1007	s	s	23	2	SIC	470	RC	0	2	02VD 02VO 02VC 02MD 02MO 02MC 09RD 02RO	1	0	2.73011088371	459.0	-294.0	465	-298	1
2.7	2015_Jun_16_1007	s	s	23	2	SIC	471	RC	1	0	02VD 02VO 02VC 02MD 02MO 09MC 02RD 02RO	1	0	2.04225516319	517.0	113.0	515	116	1
2.7	2015_Jun_16_1007	s	s	23	2	SIC	472	ABS	0	2	02VD 02VO 02VC 02MD 02MO 02MC 10RD 02RO	0	1	4.19611883163	None	None	None	None	1
2.7	2015_Jun_16_1007	s	s	23	2	SIC	473	RC	0	1	02VD 02VO 02VC 02MD 02MO 02MC 02RD 09RO	1	0	3.51368904114	299.0	-231.0	302	-233	1
2.7	2015_Jun_16_1007	s	s	23	2	SIC	474	ABS	1	1	02VD 02VO 02VC 02MD 10MO 02MC 02RD 02RO	0	1	3.81950187683	None	None	None	None	1
2.7	2015_Jun_16_1007	s	s	23	2	SIC	475	ABS	1	2	02VD 02VO 02VC 10MD 02MO 02MC 02RD 02RO	0	1	3.96600794792	None	None	None	None	1
2.7	2015_Jun_16_1007	s	s	23	2	SIC	476	ABS	2	2	10VD 02VO 02VC 02MD 02MO 02MC 02RD 02RO	0	1	3.46662211418	None	None	None	None	1
2.7	2015_Jun_16_1007	s	s	23	2	SIC	477	ABS	2	1	02VD 10VO 02VC 02MD 02MO 02MC 02RD 02RO	0	1	4.03666305542	None	None	None	None	1
2.7	2015_Jun_16_1007	s	s	23	2	SIC	478	RC	1	1	02VD 02VO 02VC 02MD 09MO 02MC 02RD 02RO	1	0	0.902729034424	11.0	190.0	10	185	1
2.7	2015_Jun_16_1007	s	s	23	2	SIC	479	RC	2	1	02VD 09VO 02VC 02MD 02MO 02MC 02RD 02RO	1	0	1.52507400513	-446.0	-339.0	-444	-339	1
2.7	2015_Jun_16_1007	s	s	23	2	SIC	480	RC	2	0	02VD 02VO 09VC 02MD 02MO 02MC 02RD 02RO	1	0	0.797245979309	-107.0	159.0	-106	160	1
