Version	Date	Stimuli	Method	Subject	Session	Condition	Trial	Target	Channel1	Channel2	Distractors	LMouseButton	RMouseButton	RT	TargetX	TargetY	ResponseX	ResponseY	Correct
2.7	2015_May_05_1203	s	s	2	3	Capacity	1	ABS	1	0	08VC 16MC	0	1	3.4905230999	None	None	None	None	1
2.7	2015_May_05_1203	s	s	2	3	Capacity	2	RC	2	0	15VC 08MC	1	0	1.24705004692	394.0	99.0	383	101	1
2.7	2015_May_05_1203	s	s	2	3	Capacity	3	RC	1	0	08VC 15MC	1	0	1.57660984993	527.0	266.0	521	257	1
2.7	2015_May_05_1203	s	s	2	3	Capacity	4	ABS	2	0	16VC 08MC	0	1	1.97253513336	None	None	None	None	1
2.7	2015_May_05_1203	s	s	2	3	Capacity	5	ABS	2	0	16VC 08MC	0	1	2.0206489563	None	None	None	None	1
2.7	2015_May_05_1203	s	s	2	3	Capacity	6	RC	2	0	15VC 08MC	1	0	0.752635002136	-469.0	76.0	-476	73	1
2.7	2015_May_05_1203	s	s	2	3	Capacity	7	ABS	1	0	08VC 16MC	0	1	3.43152999878	None	None	None	None	1
2.7	2015_May_05_1203	s	s	2	3	Capacity	8	RC	1	0	08VC 15MC	1	0	1.83060097694	245.0	-341.0	247	-336	1
2.7	2015_May_05_1203	s	s	2	3	Capacity	9	ABS	2	0	16VC 08MC	0	1	1.94142103195	None	None	None	None	1
2.7	2015_May_05_1203	s	s	2	3	Capacity	10	ABS	1	0	08VC 16MC	0	1	2.68979597092	None	None	None	None	1
2.7	2015_May_05_1203	s	s	2	3	Capacity	11	RC	1	0	08VC 15MC	1	0	0.870397090912	72.0	207.0	71	209	1
2.7	2015_May_05_1203	s	s	2	3	Capacity	12	RC	2	0	15VC 08MC	1	0	0.694195985794	-15.0	247.0	-20	247	1
2.7	2015_May_05_1203	s	s	2	3	Capacity	13	ABS	2	0	16VC 08MC	0	1	1.97197914124	None	None	None	None	1
2.7	2015_May_05_1203	s	s	2	3	Capacity	14	ABS	1	0	08VC 16MC	0	1	1.65904688835	None	None	None	None	1
2.7	2015_May_05_1203	s	s	2	3	Capacity	15	RC	1	0	08VC 15MC	1	0	0.64671087265	-60.0	350.0	-61	344	1
2.7	2015_May_05_1203	s	s	2	3	Capacity	16	RC	2	0	15VC 08MC	1	0	1.27055311203	-244.0	-351.0	-235	-346	1
2.7	2015_May_05_1203	s	s	2	3	Capacity	17	ABS	2	0	16VC 08MC	0	1	1.27050900459	None	None	None	None	1
2.7	2015_May_05_1203	s	s	2	3	Capacity	18	RC	2	0	15VC 08MC	1	0	0.929243087769	-316.0	242.0	-321	232	1
2.7	2015_May_05_1203	s	s	2	3	Capacity	19	ABS	1	0	08VC 16MC	0	1	2.65949296951	None	None	None	None	1
2.7	2015_May_05_1203	s	s	2	3	Capacity	20	RC	1	0	08VC 15MC	1	0	1.59613704681	296.0	-269.0	297	-265	1
2.7	2015_May_05_1203	s	s	2	3	Capacity	21	ABS	2	0	16VC 08MC	0	1	2.64284515381	None	None	None	None	1
2.7	2015_May_05_1203	s	s	2	3	Capacity	22	RC	1	0	08VC 15MC	1	0	1.40691304207	-420.0	-201.0	-421	-201	1
2.7	2015_May_05_1203	s	s	2	3	Capacity	23	RC	2	0	15VC 08MC	1	0	1.85543203354	484.0	-195.0	491	-196	1
2.7	2015_May_05_1203	s	s	2	3	Capacity	24	ABS	1	0	08VC 16MC	0	1	2.2711379528	None	None	None	None	1
2.7	2015_May_05_1203	s	s	2	3	Capacity	25	ABS	1	0	08VC 16MC	0	1	2.66621899605	None	None	None	None	1
2.7	2015_May_05_1203	s	s	2	3	Capacity	26	RC	2	0	15VC 08MC	1	0	0.870326042175	-413.0	-102.0	-411	-105	1
2.7	2015_May_05_1203	s	s	2	3	Capacity	27	ABS	2	0	16VC 08MC	0	1	2.25698685646	None	None	None	None	1
2.7	2015_May_05_1203	s	s	2	3	Capacity	28	RC	1	0	08VC 15MC	1	0	0.729103088379	25.0	-372.0	25	-370	1
2.7	2015_May_05_1203	s	s	2	3	Capacity	29	ABS	1	0	08VC 16MC	0	1	2.33936595917	None	None	None	None	1
2.7	2015_May_05_1203	s	s	2	3	Capacity	30	RC	2	0	15VC 08MC	1	0	1.1126639843	-308.0	-213.0	-293	-204	1
2.7	2015_May_05_1203	s	s	2	3	Capacity	31	ABS	2	0	16VC 08MC	0	1	1.78854298592	None	None	None	None	1
2.7	2015_May_05_1203	s	s	2	3	Capacity	32	RC	1	0	08VC 15MC	1	0	1.68853902817	399.0	131.0	398	130	1
2.7	2015_May_05_1203	s	s	2	3	Capacity	33	RC	2	0	15VC 08MC	1	0	0.799741029739	-75.0	243.0	-82	246	1
2.7	2015_May_05_1203	s	s	2	3	Capacity	34	ABS	1	0	08VC 16MC	0	1	2.44329094887	None	None	None	None	1
2.7	2015_May_05_1203	s	s	2	3	Capacity	35	ABS	2	0	16VC 08MC	0	1	1.82375597954	None	None	None	None	1
2.7	2015_May_05_1203	s	s	2	3	Capacity	36	RC	1	0	08VC 15MC	1	0	1.44237995148	370.0	381.0	368	375	1
2.7	2015_May_05_1203	s	s	2	3	Capacity	37	RC	1	0	08VC 15MC	1	0	0.670248985291	-322.0	138.0	-324	139	1
2.7	2015_May_05_1203	s	s	2	3	Capacity	38	ABS	2	0	16VC 08MC	0	1	2.05533003807	None	None	None	None	1
2.7	2015_May_05_1203	s	s	2	3	Capacity	39	RC	2	0	15VC 08MC	1	0	0.606945991516	-250.0	-24.0	-243	-27	1
2.7	2015_May_05_1203	s	s	2	3	Capacity	40	ABS	1	0	08VC 16MC	0	1	2.82426905632	None	None	None	None	1
2.7	2015_May_05_1203	s	s	2	3	Capacity	41	RC	1	0	08VC 15MC	1	0	0.776221036911	-325.0	298.0	-335	299	1
2.7	2015_May_05_1203	s	s	2	3	Capacity	42	ABS	1	0	08VC 16MC	0	1	2.27107810974	None	None	None	None	1
2.7	2015_May_05_1203	s	s	2	3	Capacity	43	ABS	2	0	16VC 08MC	0	1	1.75319695473	None	None	None	None	1
2.7	2015_May_05_1203	s	s	2	3	Capacity	44	RC	2	0	15VC 08MC	1	0	0.618178844452	54.0	213.0	54	216	1
2.7	2015_May_05_1203	s	s	2	3	Capacity	45	RC	1	0	08VC 15MC	1	0	1.26516103745	296.0	-257.0	295	-252	1
2.7	2015_May_05_1203	s	s	2	3	Capacity	46	ABS	2	0	16VC 08MC	0	1	1.00719881058	None	None	None	None	1
2.7	2015_May_05_1203	s	s	2	3	Capacity	47	RC	2	0	15VC 08MC	1	0	1.14787793159	-254.0	-383.0	-250	-388	1
2.7	2015_May_05_1203	s	s	2	3	Capacity	48	ABS	1	0	08VC 16MC	0	1	2.809278965	None	None	None	None	1
2.7	2015_May_05_1203	s	s	2	3	Capacity	49	RC	1	0	08VC 15MC	1	0	0.641248941422	207.0	77.0	205	71	1
2.7	2015_May_05_1203	s	s	2	3	Capacity	50	ABS	2	0	16VC 08MC	0	1	2.58890891075	None	None	None	None	1
2.7	2015_May_05_1203	s	s	2	3	Capacity	51	RC	2	0	15VC 08MC	1	0	1.21213889122	259.0	-136.0	251	-131	1
2.7	2015_May_05_1203	s	s	2	3	Capacity	52	ABS	1	0	08VC 16MC	0	1	3.41996788979	None	None	None	None	1
2.7	2015_May_05_1203	s	s	2	3	Capacity	53	ABS	2	0	16VC 08MC	0	1	1.54132199287	None	None	None	None	1
2.7	2015_May_05_1203	s	s	2	3	Capacity	54	RC	2	0	15VC 08MC	1	0	0.611458063126	-227.0	170.0	-234	166	1
2.7	2015_May_05_1203	s	s	2	3	Capacity	55	RC	1	0	08VC 15MC	1	0	0.912076950073	-447.0	-246.0	-448	-251	1
2.7	2015_May_05_1203	s	s	2	3	Capacity	56	ABS	1	0	08VC 16MC	0	1	3.14908504486	None	None	None	None	1
2.7	2015_May_05_1203	s	s	2	3	Capacity	57	RC	1	0	08VC 15MC	1	0	0.674478054047	76.0	189.0	78	186	1
2.7	2015_May_05_1203	s	s	2	3	Capacity	58	RC	2	0	15VC 08MC	1	0	1.04692912102	-393.0	-82.0	-399	-81	1
2.7	2015_May_05_1203	s	s	2	3	Capacity	59	ABS	2	0	16VC 08MC	0	1	1.8093650341	None	None	None	None	1
2.7	2015_May_05_1203	s	s	2	3	Capacity	60	ABS	1	0	08VC 16MC	0	1	1.84224104881	None	None	None	None	1
2.7	2015_May_05_1203	s	s	2	3	Capacity	61	ABS	1	0	08VC 16MC	0	1	3.3014330864	None	None	None	None	1
2.7	2015_May_05_1203	s	s	2	3	Capacity	62	RC	1	0	08VC 15MC	1	0	0.587918043137	-111.0	7.0	-120	5	1
2.7	2015_May_05_1203	s	s	2	3	Capacity	63	ABS	2	0	16VC 08MC	0	1	1.36473011971	None	None	None	None	1
2.7	2015_May_05_1203	s	s	2	3	Capacity	64	RC	2	0	15VC 08MC	1	0	1.03001594543	519.0	42.0	525	38	1
2.7	2015_May_05_1203	s	s	2	3	Capacity	1	RC	0	2	15RD 08RO	1	0	1.43037199974	-513.0	-27.0	-524	-24	1
2.7	2015_May_05_1203	s	s	2	3	Capacity	2	RC	0	1	08RD 15RO	1	0	1.03938007355	-249.0	288.0	-246	290	1
2.7	2015_May_05_1203	s	s	2	3	Capacity	3	ABS	0	1	08RD 16RO	0	1	4.1660130024	None	None	None	None	1
2.7	2015_May_05_1203	s	s	2	3	Capacity	4	ABS	0	2	16RD 08RO	0	1	2.32622694969	None	None	None	None	1
2.7	2015_May_05_1203	s	s	2	3	Capacity	5	RC	0	1	08RD 15RO	1	0	1.9415371418	371.0	-171.0	378	-166	1
2.7	2015_May_05_1203	s	s	2	3	Capacity	6	RC	0	2	15RD 08RO	1	0	1.29415488243	-483.0	-122.0	-479	-117	1
2.7	2015_May_05_1203	s	s	2	3	Capacity	7	ABS	0	1	08RD 16RO	0	1	3.48971199989	None	None	None	None	1
2.7	2015_May_05_1203	s	s	2	3	Capacity	8	ABS	0	2	16RD 08RO	0	1	2.34833693504	None	None	None	None	1
2.7	2015_May_05_1203	s	s	2	3	Capacity	9	RC	0	1	08RD 15RO	1	0	2.50631093979	451.0	287.0	455	278	1
2.7	2015_May_05_1203	s	s	2	3	Capacity	10	ABS	0	2	16RD 08RO	0	1	3.04228305817	None	None	None	None	1
2.7	2015_May_05_1203	s	s	2	3	Capacity	11	RC	0	2	15RD 08RO	1	0	1.22353601456	47.0	-122.0	42	-125	1
2.7	2015_May_05_1203	s	s	2	3	Capacity	12	ABS	0	1	08RD 16RO	0	1	3.24803519249	None	None	None	None	1
2.7	2015_May_05_1203	s	s	2	3	Capacity	13	ABS	0	1	08RD 16RO	0	1	4.18477392197	None	None	None	None	1
2.7	2015_May_05_1203	s	s	2	3	Capacity	14	RC	0	2	15RD 08RO	1	0	1.55999612808	335.0	220.0	336	214	1
2.7	2015_May_05_1203	s	s	2	3	Capacity	15	RC	0	1	08RD 15RO	1	0	2.82437491417	-80.0	-100.0	-86	-101	1
2.7	2015_May_05_1203	s	s	2	3	Capacity	16	ABS	0	2	16RD 08RO	0	1	2.35352301598	None	None	None	None	1
2.7	2015_May_05_1203	s	s	2	3	Capacity	17	ABS	0	1	08RD 16RO	0	1	2.9740228653	None	None	None	None	1
2.7	2015_May_05_1203	s	s	2	3	Capacity	18	RC	0	1	08RD 15RO	1	0	2.38877892494	337.0	-335.0	329	-331	1
2.7	2015_May_05_1203	s	s	2	3	Capacity	19	RC	0	2	15RD 08RO	1	0	2.79545307159	-540.0	-360.0	-541	-373	1
2.7	2015_May_05_1203	s	s	2	3	Capacity	20	ABS	0	2	16RD 08RO	0	1	2.15349197388	None	None	None	None	1
2.7	2015_May_05_1203	s	s	2	3	Capacity	21	RC	0	2	15RD 08RO	1	0	1.50630784035	445.0	-57.0	452	-56	1
2.7	2015_May_05_1203	s	s	2	3	Capacity	22	ABS	0	1	08RD 16RO	0	1	5.1968870163	None	None	None	None	1
2.7	2015_May_05_1203	s	s	2	3	Capacity	23	ABS	0	2	16RD 08RO	0	1	2.05400085449	None	None	None	None	1
2.7	2015_May_05_1203	s	s	2	3	Capacity	24	RC	0	1	08RD 15RO	0	1	3.84835910797	-73.0	-96.0	None	None	0
2.7	2015_May_05_1203	s	s	2	3	Capacity	25	RC	0	1	08RD 15RO	1	0	3.07823610306	103.0	-350.0	99	-350	1
2.7	2015_May_05_1203	s	s	2	3	Capacity	26	ABS	0	2	16RD 08RO	0	1	2.08632302284	None	None	None	None	1
2.7	2015_May_05_1203	s	s	2	3	Capacity	27	ABS	0	1	08RD 16RO	0	1	4.55463695526	None	None	None	None	1
2.7	2015_May_05_1203	s	s	2	3	Capacity	28	RC	0	2	15RD 08RO	1	0	1.72449493408	334.0	-105.0	325	-104	1
2.7	2015_May_05_1203	s	s	2	3	Capacity	29	ABS	0	1	08RD 16RO	0	1	4.23170495033	None	None	None	None	1
2.7	2015_May_05_1203	s	s	2	3	Capacity	30	RC	0	2	15RD 08RO	1	0	1.58842301369	383.0	-41.0	377	-42	1
2.7	2015_May_05_1203	s	s	2	3	Capacity	31	ABS	0	2	16RD 08RO	0	1	3.14205813408	None	None	None	None	1
2.7	2015_May_05_1203	s	s	2	3	Capacity	32	RC	0	1	08RD 15RO	1	0	2.14803409576	-438.0	309.0	-430	318	1
2.7	2015_May_05_1203	s	s	2	3	Capacity	33	ABS	0	2	16RD 08RO	0	1	2.12597203255	None	None	None	None	1
2.7	2015_May_05_1203	s	s	2	3	Capacity	34	RC	0	2	15RD 08RO	1	0	0.735911846161	93.0	254.0	89	253	1
2.7	2015_May_05_1203	s	s	2	3	Capacity	35	RC	0	1	08RD 15RO	1	0	1.44210600853	-422.0	-303.0	-423	-298	1
2.7	2015_May_05_1203	s	s	2	3	Capacity	36	ABS	0	1	08RD 16RO	0	1	4.93927288055	None	None	None	None	1
2.7	2015_May_05_1203	s	s	2	3	Capacity	37	ABS	0	2	16RD 08RO	0	1	4.56191587448	None	None	None	None	1
2.7	2015_May_05_1203	s	s	2	3	Capacity	38	RC	0	1	08RD 15RO	1	0	1.78849387169	508.0	-237.0	508	-245	1
2.7	2015_May_05_1203	s	s	2	3	Capacity	39	RC	0	2	15RD 08RO	1	0	1.74133396149	414.0	192.0	410	184	1
2.7	2015_May_05_1203	s	s	2	3	Capacity	40	ABS	0	1	08RD 16RO	0	1	6.32020282745	None	None	None	None	1
2.7	2015_May_05_1203	s	s	2	3	Capacity	41	RC	0	1	08RD 15RO	1	0	0.835083007812	-447.0	347.0	-442	354	1
2.7	2015_May_05_1203	s	s	2	3	Capacity	42	RC	0	2	15RD 08RO	1	0	1.40682315826	128.0	331.0	135	332	1
2.7	2015_May_05_1203	s	s	2	3	Capacity	43	ABS	0	2	16RD 08RO	0	1	2.79437017441	None	None	None	None	1
2.7	2015_May_05_1203	s	s	2	3	Capacity	44	ABS	0	1	08RD 16RO	0	1	4.96084904671	None	None	None	None	1
2.7	2015_May_05_1203	s	s	2	3	Capacity	45	ABS	0	1	08RD 16RO	0	1	6.58572387695	None	None	None	None	1
2.7	2015_May_05_1203	s	s	2	3	Capacity	46	ABS	0	2	16RD 08RO	0	1	1.78888607025	None	None	None	None	1
2.7	2015_May_05_1203	s	s	2	3	Capacity	47	RC	0	2	15RD 08RO	1	0	1.84764289856	202.0	102.0	201	105	1
2.7	2015_May_05_1203	s	s	2	3	Capacity	48	RC	0	1	08RD 15RO	1	0	1.59450006485	470.0	-339.0	459	-336	1
2.7	2015_May_05_1203	s	s	2	3	Capacity	49	RC	0	1	08RD 15RO	0	1	3.99652814865	-369.0	176.0	None	None	0
2.7	2015_May_05_1203	s	s	2	3	Capacity	50	RC	0	2	15RD 08RO	1	0	0.929669857025	-200.0	0.0	-191	10	1
2.7	2015_May_05_1203	s	s	2	3	Capacity	51	ABS	0	1	08RD 16RO	0	1	7.51268005371	None	None	None	None	1
2.7	2015_May_05_1203	s	s	2	3	Capacity	52	ABS	0	2	16RD 08RO	0	1	3.19596290588	None	None	None	None	1
2.7	2015_May_05_1203	s	s	2	3	Capacity	53	ABS	0	2	16RD 08RO	0	1	3.10655093193	None	None	None	None	1
2.7	2015_May_05_1203	s	s	2	3	Capacity	54	RC	0	2	15RD 08RO	1	0	1.33628702164	-129.0	-170.0	-135	-172	1
2.7	2015_May_05_1203	s	s	2	3	Capacity	55	ABS	0	1	08RD 16RO	0	1	4.05218291283	None	None	None	None	1
2.7	2015_May_05_1203	s	s	2	3	Capacity	56	RC	0	1	08RD 15RO	0	1	7.04485177994	231.0	-266.0	None	None	0
2.7	2015_May_05_1203	s	s	2	3	Capacity	57	RC	0	2	15RD 08RO	1	0	1.01892495155	-316.0	52.0	-315	56	1
2.7	2015_May_05_1203	s	s	2	3	Capacity	58	ABS	0	1	08RD 16RO	0	1	6.42125797272	None	None	None	None	1
2.7	2015_May_05_1203	s	s	2	3	Capacity	59	ABS	0	2	16RD 08RO	0	1	2.22396492958	None	None	None	None	1
2.7	2015_May_05_1203	s	s	2	3	Capacity	60	RC	0	1	08RD 15RO	1	0	1.09783792496	-189.0	-98.0	-174	-91	1
2.7	2015_May_05_1203	s	s	2	3	Capacity	61	RC	0	1	08RD 15RO	1	0	1.08228802681	-399.0	371.0	-406	376	1
2.7	2015_May_05_1203	s	s	2	3	Capacity	62	ABS	0	2	16RD 08RO	0	1	2.32686185837	None	None	None	None	1
2.7	2015_May_05_1203	s	s	2	3	Capacity	63	RC	0	2	15RD 08RO	1	0	1.24185299873	374.0	252.0	378	239	1
2.7	2015_May_05_1203	s	s	2	3	Capacity	64	ABS	0	1	08RD 16RO	0	1	6.1082341671	None	None	None	None	1
2.7	2015_May_05_1203	s	s	2	3	SIC	1	ABS	1	2	02VD 02VO 02VC 10MD 02MO 02MC 02RD 02RO	0	1	1.94142889977	None	None	None	None	1
2.7	2015_May_05_1203	s	s	2	3	SIC	2	RC	2	0	02VD 02VO 09VC 02MD 02MO 02MC 02RD 02RO	1	0	1.86720085144	399.0	146.0	401	138	1
2.7	2015_May_05_1203	s	s	2	3	SIC	3	ABS	1	1	02VD 02VO 02VC 02MD 10MO 02MC 02RD 02RO	0	1	1.62040114403	None	None	None	None	1
2.7	2015_May_05_1203	s	s	2	3	SIC	4	ABS	0	1	02VD 02VO 02VC 02MD 02MO 02MC 02RD 10RO	0	1	4.44884300232	None	None	None	None	1
2.7	2015_May_05_1203	s	s	2	3	SIC	5	ABS	2	1	02VD 10VO 02VC 02MD 02MO 02MC 02RD 02RO	0	1	1.5731010437	None	None	None	None	1
2.7	2015_May_05_1203	s	s	2	3	SIC	6	RC	2	2	09VD 02VO 02VC 02MD 02MO 02MC 02RD 02RO	1	0	0.529056787491	-140.0	125.0	-138	126	1
2.7	2015_May_05_1203	s	s	2	3	SIC	7	RC	0	1	02VD 02VO 02VC 02MD 02MO 02MC 02RD 09RO	1	0	2.79364299774	-307.0	-394.0	-311	-397	1
2.7	2015_May_05_1203	s	s	2	3	SIC	8	ABS	2	0	02VD 02VO 10VC 02MD 02MO 02MC 02RD 02RO	0	1	1.27059698105	None	None	None	None	1
2.7	2015_May_05_1203	s	s	2	3	SIC	9	RC	0	2	02VD 02VO 02VC 02MD 02MO 02MC 09RD 02RO	1	0	0.673963069916	-338.0	-26.0	-333	-34	1
2.7	2015_May_05_1203	s	s	2	3	SIC	10	RC	1	1	02VD 02VO 02VC 02MD 09MO 02MC 02RD 02RO	1	0	1.48934793472	259.0	-266.0	269	-260	1
2.7	2015_May_05_1203	s	s	2	3	SIC	11	RC	1	0	02VD 02VO 02VC 02MD 02MO 09MC 02RD 02RO	1	0	1.07045006752	186.0	362.0	185	361	1
2.7	2015_May_05_1203	s	s	2	3	SIC	12	RC	1	2	02VD 02VO 02VC 09MD 02MO 02MC 02RD 02RO	1	0	0.900934934616	294.0	-128.0	293	-125	1
2.7	2015_May_05_1203	s	s	2	3	SIC	13	ABS	0	2	02VD 02VO 02VC 02MD 02MO 02MC 10RD 02RO	0	1	2.05922484398	None	None	None	None	1
2.7	2015_May_05_1203	s	s	2	3	SIC	14	ABS	2	2	10VD 02VO 02VC 02MD 02MO 02MC 02RD 02RO	0	1	1.97299790382	None	None	None	None	1
2.7	2015_May_05_1203	s	s	2	3	SIC	15	RC	2	1	02VD 09VO 02VC 02MD 02MO 02MC 02RD 02RO	1	0	0.788424968719	313.0	75.0	312	78	1
2.7	2015_May_05_1203	s	s	2	3	SIC	16	ABS	1	0	02VD 02VO 02VC 02MD 02MO 10MC 02RD 02RO	0	1	1.94148302078	None	None	None	None	1
2.7	2015_May_05_1203	s	s	2	3	SIC	17	ABS	0	2	02VD 02VO 02VC 02MD 02MO 02MC 10RD 02RO	0	1	1.66578197479	None	None	None	None	1
2.7	2015_May_05_1203	s	s	2	3	SIC	18	ABS	2	2	10VD 02VO 02VC 02MD 02MO 02MC 02RD 02RO	0	1	1.70343613625	None	None	None	None	1
2.7	2015_May_05_1203	s	s	2	3	SIC	19	ABS	2	1	02VD 10VO 02VC 02MD 02MO 02MC 02RD 02RO	0	1	2.31813097	None	None	None	None	1
2.7	2015_May_05_1203	s	s	2	3	SIC	20	RC	2	2	09VD 02VO 02VC 02MD 02MO 02MC 02RD 02RO	1	0	1.01163387299	-494.0	50.0	-501	44	1
2.7	2015_May_05_1203	s	s	2	3	SIC	21	ABS	0	1	02VD 02VO 02VC 02MD 02MO 02MC 02RD 10RO	0	1	3.56585216522	None	None	None	None	1
2.7	2015_May_05_1203	s	s	2	3	SIC	22	ABS	1	2	02VD 02VO 02VC 10MD 02MO 02MC 02RD 02RO	0	1	1.67802500725	None	None	None	None	1
2.7	2015_May_05_1203	s	s	2	3	SIC	23	ABS	1	0	02VD 02VO 02VC 02MD 02MO 10MC 02RD 02RO	0	1	3.73059797287	None	None	None	None	1
2.7	2015_May_05_1203	s	s	2	3	SIC	24	RC	2	1	02VD 09VO 02VC 02MD 02MO 02MC 02RD 02RO	1	0	1.05369281769	-60.0	-127.0	-54	-123	1
2.7	2015_May_05_1203	s	s	2	3	SIC	25	RC	2	0	02VD 02VO 09VC 02MD 02MO 02MC 02RD 02RO	1	0	1.39710497856	418.0	167.0	420	175	1
2.7	2015_May_05_1203	s	s	2	3	SIC	26	RC	1	2	02VD 02VO 02VC 09MD 02MO 02MC 02RD 02RO	1	0	1.053855896	87.0	-212.0	74	-207	1
2.7	2015_May_05_1203	s	s	2	3	SIC	27	RC	1	1	02VD 02VO 02VC 02MD 09MO 02MC 02RD 02RO	1	0	0.787905931473	-290.0	132.0	-297	128	1
2.7	2015_May_05_1203	s	s	2	3	SIC	28	RC	0	1	02VD 02VO 02VC 02MD 02MO 02MC 02RD 09RO	1	0	2.7275660038	454.0	-196.0	460	-204	1
2.7	2015_May_05_1203	s	s	2	3	SIC	29	RC	1	0	02VD 02VO 02VC 02MD 02MO 09MC 02RD 02RO	1	0	0.988094091415	27.0	223.0	29	222	1
2.7	2015_May_05_1203	s	s	2	3	SIC	30	ABS	1	1	02VD 02VO 02VC 02MD 10MO 02MC 02RD 02RO	0	1	3.80128192902	None	None	None	None	1
2.7	2015_May_05_1203	s	s	2	3	SIC	31	ABS	2	0	02VD 02VO 10VC 02MD 02MO 02MC 02RD 02RO	0	1	2.37261605263	None	None	None	None	1
2.7	2015_May_05_1203	s	s	2	3	SIC	32	RC	0	2	02VD 02VO 02VC 02MD 02MO 02MC 09RD 02RO	1	0	1.12349510193	20.0	389.0	20	387	1
2.7	2015_May_05_1203	s	s	2	3	SIC	33	ABS	1	2	02VD 02VO 02VC 10MD 02MO 02MC 02RD 02RO	0	1	2.45976495743	None	None	None	None	1
2.7	2015_May_05_1203	s	s	2	3	SIC	34	RC	0	2	02VD 02VO 02VC 02MD 02MO 02MC 09RD 02RO	1	0	1.60011601448	473.0	377.0	475	380	1
2.7	2015_May_05_1203	s	s	2	3	SIC	35	ABS	2	0	02VD 02VO 10VC 02MD 02MO 02MC 02RD 02RO	0	1	2.17691898346	None	None	None	None	1
2.7	2015_May_05_1203	s	s	2	3	SIC	36	ABS	1	0	02VD 02VO 02VC 02MD 02MO 10MC 02RD 02RO	0	1	3.11351799965	None	None	None	None	1
2.7	2015_May_05_1203	s	s	2	3	SIC	37	RC	1	2	02VD 02VO 02VC 09MD 02MO 02MC 02RD 02RO	1	0	0.99417090416	380.0	-218.0	377	-220	1
2.7	2015_May_05_1203	s	s	2	3	SIC	38	RC	0	1	02VD 02VO 02VC 02MD 02MO 02MC 02RD 09RO	1	0	1.30585289001	421.0	209.0	420	208	1
2.7	2015_May_05_1203	s	s	2	3	SIC	39	RC	2	1	02VD 09VO 02VC 02MD 02MO 02MC 02RD 02RO	1	0	1.06561803818	-396.0	-201.0	-388	-194	1
2.7	2015_May_05_1203	s	s	2	3	SIC	40	ABS	2	1	02VD 10VO 02VC 02MD 02MO 02MC 02RD 02RO	0	1	1.88012695312	None	None	None	None	1
2.7	2015_May_05_1203	s	s	2	3	SIC	41	RC	2	2	09VD 02VO 02VC 02MD 02MO 02MC 02RD 02RO	1	0	1.10107278824	-416.0	-137.0	-417	-130	1
2.7	2015_May_05_1203	s	s	2	3	SIC	42	ABS	1	1	02VD 02VO 02VC 02MD 10MO 02MC 02RD 02RO	0	1	2.39536309242	None	None	None	None	1
2.7	2015_May_05_1203	s	s	2	3	SIC	43	RC	1	0	02VD 02VO 02VC 02MD 02MO 09MC 02RD 02RO	1	0	0.976711988449	-310.0	-355.0	-310	-357	1
2.7	2015_May_05_1203	s	s	2	3	SIC	44	RC	1	1	02VD 02VO 02VC 02MD 09MO 02MC 02RD 02RO	1	0	1.17366981506	521.0	-190.0	521	-199	1
2.7	2015_May_05_1203	s	s	2	3	SIC	45	ABS	0	1	02VD 02VO 02VC 02MD 02MO 02MC 02RD 10RO	0	1	4.79610896111	None	None	None	None	1
2.7	2015_May_05_1203	s	s	2	3	SIC	46	RC	2	0	02VD 02VO 09VC 02MD 02MO 02MC 02RD 02RO	1	0	0.811534881592	430.0	-30.0	426	-26	1
2.7	2015_May_05_1203	s	s	2	3	SIC	47	ABS	2	2	10VD 02VO 02VC 02MD 02MO 02MC 02RD 02RO	0	1	2.3587911129	None	None	None	None	1
2.7	2015_May_05_1203	s	s	2	3	SIC	48	ABS	0	2	02VD 02VO 02VC 02MD 02MO 02MC 10RD 02RO	0	1	2.26662993431	None	None	None	None	1
2.7	2015_May_05_1203	s	s	2	3	SIC	49	ABS	0	2	02VD 02VO 02VC 02MD 02MO 02MC 10RD 02RO	0	1	2.00887799263	None	None	None	None	1
2.7	2015_May_05_1203	s	s	2	3	SIC	50	ABS	0	1	02VD 02VO 02VC 02MD 02MO 02MC 02RD 10RO	0	1	4.11578297615	None	None	None	None	1
2.7	2015_May_05_1203	s	s	2	3	SIC	51	ABS	2	1	02VD 10VO 02VC 02MD 02MO 02MC 02RD 02RO	0	1	2.27109789848	None	None	None	None	1
2.7	2015_May_05_1203	s	s	2	3	SIC	52	ABS	2	0	02VD 02VO 10VC 02MD 02MO 02MC 02RD 02RO	0	1	1.92974495888	None	None	None	None	1
2.7	2015_May_05_1203	s	s	2	3	SIC	53	RC	1	1	02VD 02VO 02VC 02MD 09MO 02MC 02RD 02RO	1	0	1.64395713806	524.0	51.0	527	56	1
2.7	2015_May_05_1203	s	s	2	3	SIC	54	RC	1	0	02VD 02VO 02VC 02MD 02MO 09MC 02RD 02RO	1	0	0.691628932953	-175.0	-52.0	-181	-49	1
2.7	2015_May_05_1203	s	s	2	3	SIC	55	ABS	1	2	02VD 02VO 02VC 10MD 02MO 02MC 02RD 02RO	0	1	1.85392713547	None	None	None	None	1
2.7	2015_May_05_1203	s	s	2	3	SIC	56	RC	0	1	02VD 02VO 02VC 02MD 02MO 02MC 02RD 09RO	1	0	2.17207312584	375.0	-98.0	376	-89	1
2.7	2015_May_05_1203	s	s	2	3	SIC	57	ABS	2	2	10VD 02VO 02VC 02MD 02MO 02MC 02RD 02RO	0	1	1.7366399765	None	None	None	None	1
2.7	2015_May_05_1203	s	s	2	3	SIC	58	RC	2	2	09VD 02VO 02VC 02MD 02MO 02MC 02RD 02RO	1	0	0.923851966858	134.0	102.0	133	104	1
2.7	2015_May_05_1203	s	s	2	3	SIC	59	RC	2	0	02VD 02VO 09VC 02MD 02MO 02MC 02RD 02RO	1	0	1.8826379776	-462.0	-380.0	-465	-375	1
2.7	2015_May_05_1203	s	s	2	3	SIC	60	RC	0	2	02VD 02VO 02VC 02MD 02MO 02MC 09RD 02RO	1	0	1.4353621006	314.0	-269.0	310	-268	1
2.7	2015_May_05_1203	s	s	2	3	SIC	61	RC	2	1	02VD 09VO 02VC 02MD 02MO 02MC 02RD 02RO	1	0	0.670679092407	230.0	5.0	226	5	1
2.7	2015_May_05_1203	s	s	2	3	SIC	62	ABS	1	0	02VD 02VO 02VC 02MD 02MO 10MC 02RD 02RO	0	1	2.84782600403	None	None	None	None	1
2.7	2015_May_05_1203	s	s	2	3	SIC	63	RC	1	2	02VD 02VO 02VC 09MD 02MO 02MC 02RD 02RO	1	0	0.94106388092	-265.0	-369.0	-264	-365	1
2.7	2015_May_05_1203	s	s	2	3	SIC	64	ABS	1	1	02VD 02VO 02VC 02MD 10MO 02MC 02RD 02RO	0	1	1.54799199104	None	None	None	None	1
2.7	2015_May_05_1203	s	s	2	3	SIC	65	ABS	1	1	02VD 02VO 02VC 02MD 10MO 02MC 02RD 02RO	0	1	2.37144303322	None	None	None	None	1
2.7	2015_May_05_1203	s	s	2	3	SIC	66	ABS	2	1	02VD 10VO 02VC 02MD 02MO 02MC 02RD 02RO	0	1	1.52444410324	None	None	None	None	1
2.7	2015_May_05_1203	s	s	2	3	SIC	67	RC	1	0	02VD 02VO 02VC 02MD 02MO 09MC 02RD 02RO	1	0	1.0942530632	106.0	-188.0	105	-183	1
2.7	2015_May_05_1203	s	s	2	3	SIC	68	ABS	0	2	02VD 02VO 02VC 02MD 02MO 02MC 10RD 02RO	0	1	3.40107083321	None	None	None	None	1
2.7	2015_May_05_1203	s	s	2	3	SIC	69	ABS	1	2	02VD 02VO 02VC 10MD 02MO 02MC 02RD 02RO	0	1	1.7599799633	None	None	None	None	1
2.7	2015_May_05_1203	s	s	2	3	SIC	70	RC	2	2	09VD 02VO 02VC 02MD 02MO 02MC 02RD 02RO	1	0	1.14108800888	-426.0	101.0	-428	105	1
2.7	2015_May_05_1203	s	s	2	3	SIC	71	ABS	2	0	02VD 02VO 10VC 02MD 02MO 02MC 02RD 02RO	0	1	1.90391612053	None	None	None	None	1
2.7	2015_May_05_1203	s	s	2	3	SIC	72	ABS	1	0	02VD 02VO 02VC 02MD 02MO 10MC 02RD 02RO	0	1	2.5540099144	None	None	None	None	1
2.7	2015_May_05_1203	s	s	2	3	SIC	73	RC	0	2	02VD 02VO 02VC 02MD 02MO 02MC 09RD 02RO	1	0	1.01202893257	-365.0	-376.0	-369	-380	1
2.7	2015_May_05_1203	s	s	2	3	SIC	74	RC	1	2	02VD 02VO 02VC 09MD 02MO 02MC 02RD 02RO	1	0	2.11299705505	377.0	-195.0	382	-199	1
2.7	2015_May_05_1203	s	s	2	3	SIC	75	RC	0	1	02VD 02VO 02VC 02MD 02MO 02MC 02RD 09RO	1	0	0.787969112396	-216.0	69.0	-224	65	1
2.7	2015_May_05_1203	s	s	2	3	SIC	76	RC	1	1	02VD 02VO 02VC 02MD 09MO 02MC 02RD 02RO	1	0	1.38188099861	363.0	-260.0	370	-258	1
2.7	2015_May_05_1203	s	s	2	3	SIC	77	RC	2	1	02VD 09VO 02VC 02MD 02MO 02MC 02RD 02RO	1	0	0.929247140884	-477.0	99.0	-479	96	1
2.7	2015_May_05_1203	s	s	2	3	SIC	78	ABS	0	1	02VD 02VO 02VC 02MD 02MO 02MC 02RD 10RO	0	1	3.46903610229	None	None	None	None	1
2.7	2015_May_05_1203	s	s	2	3	SIC	79	RC	2	0	02VD 02VO 09VC 02MD 02MO 02MC 02RD 02RO	1	0	1.67962813377	55.0	-304.0	49	-303	1
2.7	2015_May_05_1203	s	s	2	3	SIC	80	ABS	2	2	10VD 02VO 02VC 02MD 02MO 02MC 02RD 02RO	0	1	1.85916805267	None	None	None	None	1
2.7	2015_May_05_1203	s	s	2	3	SIC	81	ABS	0	2	02VD 02VO 02VC 02MD 02MO 02MC 10RD 02RO	0	1	2.45450496674	None	None	None	None	1
2.7	2015_May_05_1203	s	s	2	3	SIC	82	RC	0	1	02VD 02VO 02VC 02MD 02MO 02MC 02RD 09RO	1	0	3.23622012138	298.0	282.0	298	282	1
2.7	2015_May_05_1203	s	s	2	3	SIC	83	RC	2	0	02VD 02VO 09VC 02MD 02MO 02MC 02RD 02RO	1	0	0.882156133652	-435.0	131.0	-443	130	1
2.7	2015_May_05_1203	s	s	2	3	SIC	84	RC	1	2	02VD 02VO 02VC 09MD 02MO 02MC 02RD 02RO	1	0	0.806863069534	-121.0	-197.0	-116	-194	1
2.7	2015_May_05_1203	s	s	2	3	SIC	85	ABS	1	0	02VD 02VO 02VC 02MD 02MO 10MC 02RD 02RO	0	1	2.79590082169	None	None	None	None	1
2.7	2015_May_05_1203	s	s	2	3	SIC	86	RC	1	1	02VD 02VO 02VC 02MD 09MO 02MC 02RD 02RO	1	0	0.929261922836	-362.0	-235.0	-360	-230	1
2.7	2015_May_05_1203	s	s	2	3	SIC	87	ABS	2	2	10VD 02VO 02VC 02MD 02MO 02MC 02RD 02RO	0	1	2.28285598755	None	None	None	None	1
2.7	2015_May_05_1203	s	s	2	3	SIC	88	RC	2	2	09VD 02VO 02VC 02MD 02MO 02MC 02RD 02RO	1	0	1.16468691826	-503.0	-155.0	-496	-148	1
2.7	2015_May_05_1203	s	s	2	3	SIC	89	RC	0	2	02VD 02VO 02VC 02MD 02MO 02MC 09RD 02RO	1	0	0.538210868835	-173.0	0.0	-169	-10	1
2.7	2015_May_05_1203	s	s	2	3	SIC	90	ABS	2	0	02VD 02VO 10VC 02MD 02MO 02MC 02RD 02RO	0	1	2.17187309265	None	None	None	None	1
2.7	2015_May_05_1203	s	s	2	3	SIC	91	ABS	1	2	02VD 02VO 02VC 10MD 02MO 02MC 02RD 02RO	0	1	1.83561396599	None	None	None	None	1
2.7	2015_May_05_1203	s	s	2	3	SIC	92	ABS	0	1	02VD 02VO 02VC 02MD 02MO 02MC 02RD 10RO	0	1	3.63091611862	None	None	None	None	1
2.7	2015_May_05_1203	s	s	2	3	SIC	93	RC	1	0	02VD 02VO 02VC 02MD 02MO 09MC 02RD 02RO	1	0	1.81208395958	139.0	-76.0	146	-81	1
2.7	2015_May_05_1203	s	s	2	3	SIC	94	ABS	2	1	02VD 10VO 02VC 02MD 02MO 02MC 02RD 02RO	0	1	2.32512497902	None	None	None	None	1
2.7	2015_May_05_1203	s	s	2	3	SIC	95	ABS	1	1	02VD 02VO 02VC 02MD 10MO 02MC 02RD 02RO	0	1	1.88949108124	None	None	None	None	1
2.7	2015_May_05_1203	s	s	2	3	SIC	96	RC	2	1	02VD 09VO 02VC 02MD 02MO 02MC 02RD 02RO	0	1	1.93749713898	-455.0	-330.0	None	None	0
2.7	2015_May_05_1203	s	s	2	3	SIC	97	RC	1	1	02VD 02VO 02VC 02MD 09MO 02MC 02RD 02RO	1	0	1.67751097679	421.0	20.0	420	8	1
2.7	2015_May_05_1203	s	s	2	3	SIC	98	ABS	0	1	02VD 02VO 02VC 02MD 02MO 02MC 02RD 10RO	0	1	2.45460486412	None	None	None	None	1
2.7	2015_May_05_1203	s	s	2	3	SIC	99	RC	0	2	02VD 02VO 02VC 02MD 02MO 02MC 09RD 02RO	1	0	1.87702608109	335.0	-326.0	339	-336	1
2.7	2015_May_05_1203	s	s	2	3	SIC	100	ABS	1	2	02VD 02VO 02VC 10MD 02MO 02MC 02RD 02RO	0	1	1.80021095276	None	None	None	None	1
2.7	2015_May_05_1203	s	s	2	3	SIC	101	ABS	0	2	02VD 02VO 02VC 02MD 02MO 02MC 10RD 02RO	0	1	1.69479894638	None	None	None	None	1
2.7	2015_May_05_1203	s	s	2	3	SIC	102	RC	1	2	02VD 02VO 02VC 09MD 02MO 02MC 02RD 02RO	1	0	0.665128946304	-199.0	193.0	-202	196	1
2.7	2015_May_05_1203	s	s	2	3	SIC	103	RC	2	2	09VD 02VO 02VC 02MD 02MO 02MC 02RD 02RO	1	0	1.65333294868	320.0	-154.0	324	-151	1
2.7	2015_May_05_1203	s	s	2	3	SIC	104	RC	0	1	02VD 02VO 02VC 02MD 02MO 02MC 02RD 09RO	1	0	2.64775395393	-540.0	128.0	-540	128	1
2.7	2015_May_05_1203	s	s	2	3	SIC	105	ABS	2	1	02VD 10VO 02VC 02MD 02MO 02MC 02RD 02RO	0	1	1.64743590355	None	None	None	None	1
2.7	2015_May_05_1203	s	s	2	3	SIC	106	ABS	2	2	10VD 02VO 02VC 02MD 02MO 02MC 02RD 02RO	0	1	2.07097911835	None	None	None	None	1
2.7	2015_May_05_1203	s	s	2	3	SIC	107	RC	2	0	02VD 02VO 09VC 02MD 02MO 02MC 02RD 02RO	1	0	1.39681982994	477.0	-222.0	472	-216	1
2.7	2015_May_05_1203	s	s	2	3	SIC	108	RC	2	1	02VD 09VO 02VC 02MD 02MO 02MC 02RD 02RO	1	0	0.736004829407	-88.0	264.0	-92	266	1
2.7	2015_May_05_1203	s	s	2	3	SIC	109	RC	1	0	02VD 02VO 02VC 02MD 02MO 09MC 02RD 02RO	1	0	0.888956069946	-379.0	38.0	-374	39	1
2.7	2015_May_05_1203	s	s	2	3	SIC	110	ABS	1	0	02VD 02VO 02VC 02MD 02MO 10MC 02RD 02RO	0	1	2.32495498657	None	None	None	None	1
2.7	2015_May_05_1203	s	s	2	3	SIC	111	ABS	2	0	02VD 02VO 10VC 02MD 02MO 02MC 02RD 02RO	0	1	2.04250693321	None	None	None	None	1
2.7	2015_May_05_1203	s	s	2	3	SIC	112	ABS	1	1	02VD 02VO 02VC 02MD 10MO 02MC 02RD 02RO	0	1	1.88874816895	None	None	None	None	1
2.7	2015_May_05_1203	s	s	2	3	SIC	113	RC	1	1	02VD 02VO 02VC 02MD 09MO 02MC 02RD 02RO	1	0	1.08924484253	195.0	50.0	195	38	1
2.7	2015_May_05_1203	s	s	2	3	SIC	114	RC	0	1	02VD 02VO 02VC 02MD 02MO 02MC 02RD 09RO	1	0	1.8473110199	-494.0	-153.0	-490	-154	1
2.7	2015_May_05_1203	s	s	2	3	SIC	115	RC	1	2	02VD 02VO 02VC 09MD 02MO 02MC 02RD 02RO	1	0	0.606303930283	-150.0	75.0	-151	62	1
2.7	2015_May_05_1203	s	s	2	3	SIC	116	ABS	2	0	02VD 02VO 10VC 02MD 02MO 02MC 02RD 02RO	0	1	2.11328291893	None	None	None	None	1
2.7	2015_May_05_1203	s	s	2	3	SIC	117	RC	0	2	02VD 02VO 02VC 02MD 02MO 02MC 09RD 02RO	1	0	2.04745697975	424.0	313.0	429	307	1
2.7	2015_May_05_1203	s	s	2	3	SIC	118	RC	2	1	02VD 09VO 02VC 02MD 02MO 02MC 02RD 02RO	1	0	2.05921411514	-290.0	-207.0	-297	-202	1
2.7	2015_May_05_1203	s	s	2	3	SIC	119	ABS	1	2	02VD 02VO 02VC 10MD 02MO 02MC 02RD 02RO	0	1	2.79549503326	None	None	None	None	1
2.7	2015_May_05_1203	s	s	2	3	SIC	120	ABS	2	2	10VD 02VO 02VC 02MD 02MO 02MC 02RD 02RO	0	1	1.59625196457	None	None	None	None	1
2.7	2015_May_05_1203	s	s	2	3	SIC	121	RC	1	0	02VD 02VO 02VC 02MD 02MO 09MC 02RD 02RO	1	0	1.48243999481	-211.0	-161.0	-203	-155	1
2.7	2015_May_05_1203	s	s	2	3	SIC	122	ABS	1	0	02VD 02VO 02VC 02MD 02MO 10MC 02RD 02RO	0	1	3.51876711845	None	None	None	None	1
2.7	2015_May_05_1203	s	s	2	3	SIC	123	RC	2	2	09VD 02VO 02VC 02MD 02MO 02MC 02RD 02RO	1	0	1.30592894554	360.0	-108.0	355	-105	1
2.7	2015_May_05_1203	s	s	2	3	SIC	124	RC	2	0	02VD 02VO 09VC 02MD 02MO 02MC 02RD 02RO	1	0	1.13303494453	-470.0	-343.0	-478	-341	1
2.7	2015_May_05_1203	s	s	2	3	SIC	125	ABS	2	1	02VD 10VO 02VC 02MD 02MO 02MC 02RD 02RO	0	1	2.66634392738	None	None	None	None	1
2.7	2015_May_05_1203	s	s	2	3	SIC	126	ABS	0	1	02VD 02VO 02VC 02MD 02MO 02MC 02RD 10RO	0	1	3.86687994003	None	None	None	None	1
2.7	2015_May_05_1203	s	s	2	3	SIC	127	ABS	1	1	02VD 02VO 02VC 02MD 10MO 02MC 02RD 02RO	0	1	2.14949893951	None	None	None	None	1
2.7	2015_May_05_1203	s	s	2	3	SIC	128	ABS	0	2	02VD 02VO 02VC 02MD 02MO 02MC 10RD 02RO	0	1	2.44200110435	None	None	None	None	1
2.7	2015_May_05_1203	s	s	2	3	SIC	129	RC	0	2	02VD 02VO 02VC 02MD 02MO 02MC 09RD 02RO	1	0	0.938381910324	-70.0	-160.0	-83	-151	1
2.7	2015_May_05_1203	s	s	2	3	SIC	130	RC	1	0	02VD 02VO 02VC 02MD 02MO 09MC 02RD 02RO	1	0	0.564346790314	-50.0	56.0	-48	61	1
2.7	2015_May_05_1203	s	s	2	3	SIC	131	ABS	1	1	02VD 02VO 02VC 02MD 10MO 02MC 02RD 02RO	0	1	3.10416197777	None	None	None	None	1
2.7	2015_May_05_1203	s	s	2	3	SIC	132	RC	2	1	02VD 09VO 02VC 02MD 02MO 02MC 02RD 02RO	1	0	1.19997692108	348.0	-192.0	342	-188	1
2.7	2015_May_05_1203	s	s	2	3	SIC	133	RC	1	2	02VD 02VO 02VC 09MD 02MO 02MC 02RD 02RO	1	0	1.58837795258	-476.0	241.0	-473	237	1
2.7	2015_May_05_1203	s	s	2	3	SIC	134	ABS	2	0	02VD 02VO 10VC 02MD 02MO 02MC 02RD 02RO	0	1	2.20868420601	None	None	None	None	1
2.7	2015_May_05_1203	s	s	2	3	SIC	135	ABS	1	2	02VD 02VO 02VC 10MD 02MO 02MC 02RD 02RO	0	1	2.42123699188	None	None	None	None	1
2.7	2015_May_05_1203	s	s	2	3	SIC	136	ABS	0	1	02VD 02VO 02VC 02MD 02MO 02MC 02RD 10RO	0	1	3.80786681175	None	None	None	None	1
2.7	2015_May_05_1203	s	s	2	3	SIC	137	RC	1	1	02VD 02VO 02VC 02MD 09MO 02MC 02RD 02RO	1	0	1.74141407013	436.0	-204.0	440	-205	1
2.7	2015_May_05_1203	s	s	2	3	SIC	138	ABS	1	0	02VD 02VO 02VC 02MD 02MO 10MC 02RD 02RO	0	1	2.20726704597	None	None	None	None	1
2.7	2015_May_05_1203	s	s	2	3	SIC	139	RC	2	2	09VD 02VO 02VC 02MD 02MO 02MC 02RD 02RO	1	0	0.905617952347	-439.0	257.0	-443	259	1
2.7	2015_May_05_1203	s	s	2	3	SIC	140	ABS	2	2	10VD 02VO 02VC 02MD 02MO 02MC 02RD 02RO	0	1	2.04379701614	None	None	None	None	1
2.7	2015_May_05_1203	s	s	2	3	SIC	141	RC	0	1	02VD 02VO 02VC 02MD 02MO 02MC 02RD 09RO	1	0	2.30121684074	271.0	262.0	265	253	1
2.7	2015_May_05_1203	s	s	2	3	SIC	142	ABS	2	1	02VD 10VO 02VC 02MD 02MO 02MC 02RD 02RO	0	1	1.90341901779	None	None	None	None	1
2.7	2015_May_05_1203	s	s	2	3	SIC	143	ABS	0	2	02VD 02VO 02VC 02MD 02MO 02MC 10RD 02RO	0	1	1.8306851387	None	None	None	None	1
2.7	2015_May_05_1203	s	s	2	3	SIC	144	RC	2	0	02VD 02VO 09VC 02MD 02MO 02MC 02RD 02RO	1	0	1.64722895622	158.0	382.0	155	380	1
2.7	2015_May_05_1203	s	s	2	3	SIC	145	ABS	1	2	02VD 02VO 02VC 10MD 02MO 02MC 02RD 02RO	0	1	1.80015587807	None	None	None	None	1
2.7	2015_May_05_1203	s	s	2	3	SIC	146	ABS	2	1	02VD 10VO 02VC 02MD 02MO 02MC 02RD 02RO	0	1	1.27055907249	None	None	None	None	1
2.7	2015_May_05_1203	s	s	2	3	SIC	147	RC	0	2	02VD 02VO 02VC 02MD 02MO 02MC 09RD 02RO	1	0	0.646754980087	-55.0	312.0	-53	301	1
2.7	2015_May_05_1203	s	s	2	3	SIC	148	RC	1	2	02VD 02VO 02VC 09MD 02MO 02MC 02RD 02RO	1	0	0.882139921188	-361.0	103.0	-353	107	1
2.7	2015_May_05_1203	s	s	2	3	SIC	149	ABS	1	0	02VD 02VO 02VC 02MD 02MO 10MC 02RD 02RO	0	1	3.07683420181	None	None	None	None	1
2.7	2015_May_05_1203	s	s	2	3	SIC	150	RC	2	0	02VD 02VO 09VC 02MD 02MO 02MC 02RD 02RO	1	0	0.811473846436	-99.0	251.0	-101	249	1
2.7	2015_May_05_1203	s	s	2	3	SIC	151	ABS	2	2	10VD 02VO 02VC 02MD 02MO 02MC 02RD 02RO	0	1	1.3835580349	None	None	None	None	1
2.7	2015_May_05_1203	s	s	2	3	SIC	152	RC	1	0	02VD 02VO 02VC 02MD 02MO 09MC 02RD 02RO	1	0	1.1132338047	-176.0	-368.0	-182	-368	1
2.7	2015_May_05_1203	s	s	2	3	SIC	153	ABS	0	2	02VD 02VO 02VC 02MD 02MO 02MC 10RD 02RO	0	1	2.37217903137	None	None	None	None	1
2.7	2015_May_05_1203	s	s	2	3	SIC	154	ABS	0	1	02VD 02VO 02VC 02MD 02MO 02MC 02RD 10RO	0	1	4.44378900528	None	None	None	None	1
2.7	2015_May_05_1203	s	s	2	3	SIC	155	RC	2	1	02VD 09VO 02VC 02MD 02MO 02MC 02RD 02RO	1	0	1.86614608765	469.0	-54.0	474	-53	1
2.7	2015_May_05_1203	s	s	2	3	SIC	156	RC	1	1	02VD 02VO 02VC 02MD 09MO 02MC 02RD 02RO	1	0	1.9013800621	151.0	-317.0	142	-320	1
2.7	2015_May_05_1203	s	s	2	3	SIC	157	ABS	2	0	02VD 02VO 10VC 02MD 02MO 02MC 02RD 02RO	0	1	2.44500207901	None	None	None	None	1
2.7	2015_May_05_1203	s	s	2	3	SIC	158	RC	0	1	02VD 02VO 02VC 02MD 02MO 02MC 02RD 09RO	1	0	1.08913207054	22.0	-255.0	25	-249	1
2.7	2015_May_05_1203	s	s	2	3	SIC	159	ABS	1	1	02VD 02VO 02VC 02MD 10MO 02MC 02RD 02RO	0	1	2.27112317085	None	None	None	None	1
2.7	2015_May_05_1203	s	s	2	3	SIC	160	RC	2	2	09VD 02VO 02VC 02MD 02MO 02MC 02RD 02RO	1	0	1.03513407707	389.0	-196.0	390	-198	1
2.7	2015_May_05_1203	s	s	2	3	SIC	161	RC	0	2	02VD 02VO 02VC 02MD 02MO 02MC 09RD 02RO	1	0	0.782325983047	134.0	148.0	140	149	1
2.7	2015_May_05_1203	s	s	2	3	SIC	162	RC	2	1	02VD 09VO 02VC 02MD 02MO 02MC 02RD 02RO	1	0	1.3646478653	-255.0	110.0	-255	120	1
2.7	2015_May_05_1203	s	s	2	3	SIC	163	RC	1	1	02VD 02VO 02VC 02MD 09MO 02MC 02RD 02RO	1	0	0.738256216049	-347.0	294.0	-351	299	1
2.7	2015_May_05_1203	s	s	2	3	SIC	164	RC	1	2	02VD 02VO 02VC 09MD 02MO 02MC 02RD 02RO	1	0	1.3496901989	-492.0	-287.0	-494	-285	1
2.7	2015_May_05_1203	s	s	2	3	SIC	165	ABS	2	0	02VD 02VO 10VC 02MD 02MO 02MC 02RD 02RO	0	1	2.31811118126	None	None	None	None	1
2.7	2015_May_05_1203	s	s	2	3	SIC	166	RC	0	1	02VD 02VO 02VC 02MD 02MO 02MC 02RD 09RO	1	0	1.74974417686	482.0	379.0	480	371	1
2.7	2015_May_05_1203	s	s	2	3	SIC	167	ABS	0	2	02VD 02VO 02VC 02MD 02MO 02MC 10RD 02RO	0	1	2.26572704315	None	None	None	None	1
2.7	2015_May_05_1203	s	s	2	3	SIC	168	ABS	2	2	10VD 02VO 02VC 02MD 02MO 02MC 02RD 02RO	0	1	1.52955389023	None	None	None	None	1
2.7	2015_May_05_1203	s	s	2	3	SIC	169	ABS	2	1	02VD 10VO 02VC 02MD 02MO 02MC 02RD 02RO	0	1	1.9498360157	None	None	None	None	1
2.7	2015_May_05_1203	s	s	2	3	SIC	170	RC	2	2	09VD 02VO 02VC 02MD 02MO 02MC 02RD 02RO	1	0	1.52948999405	407.0	410.0	412	405	1
2.7	2015_May_05_1203	s	s	2	3	SIC	171	ABS	1	1	02VD 02VO 02VC 02MD 10MO 02MC 02RD 02RO	0	1	2.07121491432	None	None	None	None	1
2.7	2015_May_05_1203	s	s	2	3	SIC	172	RC	1	0	02VD 02VO 02VC 02MD 02MO 09MC 02RD 02RO	1	0	1.12454915047	-534.0	-106.0	-533	-100	1
2.7	2015_May_05_1203	s	s	2	3	SIC	173	RC	2	0	02VD 02VO 09VC 02MD 02MO 02MC 02RD 02RO	1	0	1.68254303932	442.0	400.0	441	399	1
2.7	2015_May_05_1203	s	s	2	3	SIC	174	ABS	0	1	02VD 02VO 02VC 02MD 02MO 02MC 02RD 10RO	0	1	3.87855100632	None	None	None	None	1
2.7	2015_May_05_1203	s	s	2	3	SIC	175	ABS	1	2	02VD 02VO 02VC 10MD 02MO 02MC 02RD 02RO	0	1	1.88898897171	None	None	None	None	1
2.7	2015_May_05_1203	s	s	2	3	SIC	176	ABS	1	0	02VD 02VO 02VC 02MD 02MO 10MC 02RD 02RO	0	1	2.23577213287	None	None	None	None	1
2.7	2015_May_05_1203	s	s	2	3	SIC	177	RC	0	1	02VD 02VO 02VC 02MD 02MO 02MC 02RD 09RO	1	0	0.996923923492	-234.0	-226.0	-243	-228	1
2.7	2015_May_05_1203	s	s	2	3	SIC	178	ABS	2	0	02VD 02VO 10VC 02MD 02MO 02MC 02RD 02RO	0	1	1.97685790062	None	None	None	None	1
2.7	2015_May_05_1203	s	s	2	3	SIC	179	ABS	2	2	10VD 02VO 02VC 02MD 02MO 02MC 02RD 02RO	0	1	2.09449601173	None	None	None	None	1
2.7	2015_May_05_1203	s	s	2	3	SIC	180	ABS	1	1	02VD 02VO 02VC 02MD 10MO 02MC 02RD 02RO	0	1	1.95375299454	None	None	None	None	1
2.7	2015_May_05_1203	s	s	2	3	SIC	181	ABS	2	1	02VD 10VO 02VC 02MD 02MO 02MC 02RD 02RO	0	1	1.8534719944	None	None	None	None	1
2.7	2015_May_05_1203	s	s	2	3	SIC	182	RC	2	1	02VD 09VO 02VC 02MD 02MO 02MC 02RD 02RO	1	0	1.20688915253	337.0	262.0	331	261	1
2.7	2015_May_05_1203	s	s	2	3	SIC	183	RC	1	2	02VD 02VO 02VC 09MD 02MO 02MC 02RD 02RO	1	0	0.924607038498	22.0	-383.0	11	-383	1
2.7	2015_May_05_1203	s	s	2	3	SIC	184	RC	1	1	02VD 02VO 02VC 02MD 09MO 02MC 02RD 02RO	1	0	0.959525108337	-413.0	-205.0	-408	-209	1
2.7	2015_May_05_1203	s	s	2	3	SIC	185	ABS	0	1	02VD 02VO 02VC 02MD 02MO 02MC 02RD 10RO	0	1	3.73719501495	None	None	None	None	1
2.7	2015_May_05_1203	s	s	2	3	SIC	186	RC	2	2	09VD 02VO 02VC 02MD 02MO 02MC 02RD 02RO	1	0	1.22351408005	163.0	306.0	161	302	1
2.7	2015_May_05_1203	s	s	2	3	SIC	187	ABS	1	0	02VD 02VO 02VC 02MD 02MO 10MC 02RD 02RO	0	1	1.6304268837	None	None	None	None	1
2.7	2015_May_05_1203	s	s	2	3	SIC	188	ABS	1	2	02VD 02VO 02VC 10MD 02MO 02MC 02RD 02RO	0	1	1.84730410576	None	None	None	None	1
2.7	2015_May_05_1203	s	s	2	3	SIC	189	RC	0	2	02VD 02VO 02VC 02MD 02MO 02MC 09RD 02RO	1	0	1.0116341114	-449.0	285.0	-461	294	1
2.7	2015_May_05_1203	s	s	2	3	SIC	190	RC	1	0	02VD 02VO 02VC 02MD 02MO 09MC 02RD 02RO	1	0	1.16230010986	-405.0	-256.0	-395	-249	1
2.7	2015_May_05_1203	s	s	2	3	SIC	191	RC	2	0	02VD 02VO 09VC 02MD 02MO 02MC 02RD 02RO	1	0	0.759599208832	-315.0	213.0	-315	219	1
2.7	2015_May_05_1203	s	s	2	3	SIC	192	ABS	0	2	02VD 02VO 02VC 02MD 02MO 02MC 10RD 02RO	0	1	2.88049006462	None	None	None	None	1
2.7	2015_May_05_1203	s	s	2	3	SIC	193	RC	1	0	02VD 02VO 02VC 02MD 02MO 09MC 02RD 02RO	1	0	0.547584056854	-119.0	73.0	-112	79	1
2.7	2015_May_05_1203	s	s	2	3	SIC	194	ABS	1	2	02VD 02VO 02VC 10MD 02MO 02MC 02RD 02RO	0	1	1.72969889641	None	None	None	None	1
2.7	2015_May_05_1203	s	s	2	3	SIC	195	ABS	2	2	10VD 02VO 02VC 02MD 02MO 02MC 02RD 02RO	0	1	1.59525799751	None	None	None	None	1
2.7	2015_May_05_1203	s	s	2	3	SIC	196	RC	0	1	02VD 02VO 02VC 02MD 02MO 02MC 02RD 09RO	1	0	2.2828578949	439.0	-406.0	430	-400	1
2.7	2015_May_05_1203	s	s	2	3	SIC	197	RC	1	2	02VD 02VO 02VC 09MD 02MO 02MC 02RD 02RO	1	0	0.984798908234	499.0	336.0	503	342	1
2.7	2015_May_05_1203	s	s	2	3	SIC	198	RC	0	2	02VD 02VO 02VC 02MD 02MO 02MC 09RD 02RO	1	0	1.0704638958	-223.0	-374.0	-222	-376	1
2.7	2015_May_05_1203	s	s	2	3	SIC	199	ABS	1	0	02VD 02VO 02VC 02MD 02MO 10MC 02RD 02RO	0	1	1.97186112404	None	None	None	None	1
2.7	2015_May_05_1203	s	s	2	3	SIC	200	ABS	0	1	02VD 02VO 02VC 02MD 02MO 02MC 02RD 10RO	0	1	4.03669285774	None	None	None	None	1
2.7	2015_May_05_1203	s	s	2	3	SIC	201	RC	2	0	02VD 02VO 09VC 02MD 02MO 02MC 02RD 02RO	1	0	1.00702905655	162.0	-203.0	158	-211	1
2.7	2015_May_05_1203	s	s	2	3	SIC	202	RC	2	1	02VD 09VO 02VC 02MD 02MO 02MC 02RD 02RO	1	0	0.663877010345	104.0	-86.0	115	-80	1
2.7	2015_May_05_1203	s	s	2	3	SIC	203	RC	2	2	09VD 02VO 02VC 02MD 02MO 02MC 02RD 02RO	1	0	1.54126596451	-335.0	-112.0	-339	-116	1
2.7	2015_May_05_1203	s	s	2	3	SIC	204	ABS	1	1	02VD 02VO 02VC 02MD 10MO 02MC 02RD 02RO	0	1	2.88686800003	None	None	None	None	1
2.7	2015_May_05_1203	s	s	2	3	SIC	205	ABS	0	2	02VD 02VO 02VC 02MD 02MO 02MC 10RD 02RO	0	1	1.57655286789	None	None	None	None	1
2.7	2015_May_05_1203	s	s	2	3	SIC	206	ABS	2	0	02VD 02VO 10VC 02MD 02MO 02MC 02RD 02RO	0	1	1.39487695694	None	None	None	None	1
2.7	2015_May_05_1203	s	s	2	3	SIC	207	RC	1	1	02VD 02VO 02VC 02MD 09MO 02MC 02RD 02RO	1	0	0.587885141373	-36.0	123.0	-31	122	1
2.7	2015_May_05_1203	s	s	2	3	SIC	208	ABS	2	1	02VD 10VO 02VC 02MD 02MO 02MC 02RD 02RO	0	1	1.971804142	None	None	None	None	1
2.7	2015_May_05_1203	s	s	2	3	SIC	209	ABS	0	2	02VD 02VO 02VC 02MD 02MO 02MC 10RD 02RO	0	1	2.27104902267	None	None	None	None	1
2.7	2015_May_05_1203	s	s	2	3	SIC	210	ABS	0	1	02VD 02VO 02VC 02MD 02MO 02MC 02RD 10RO	0	1	3.89159607887	None	None	None	None	1
2.7	2015_May_05_1203	s	s	2	3	SIC	211	RC	1	1	02VD 02VO 02VC 02MD 09MO 02MC 02RD 02RO	1	0	1.01587486267	328.0	139.0	338	142	1
2.7	2015_May_05_1203	s	s	2	3	SIC	212	RC	0	1	02VD 02VO 02VC 02MD 02MO 02MC 02RD 09RO	1	0	2.60061883926	388.0	-167.0	393	-159	1
2.7	2015_May_05_1203	s	s	2	3	SIC	213	ABS	1	2	02VD 02VO 02VC 10MD 02MO 02MC 02RD 02RO	0	1	1.71265411377	None	None	None	None	1
2.7	2015_May_05_1203	s	s	2	3	SIC	214	RC	2	1	02VD 09VO 02VC 02MD 02MO 02MC 02RD 02RO	1	0	0.54083108902	37.0	0.0	43	-5	1
2.7	2015_May_05_1203	s	s	2	3	SIC	215	RC	2	0	02VD 02VO 09VC 02MD 02MO 02MC 02RD 02RO	1	0	0.959396123886	413.0	-52.0	409	-50	1
2.7	2015_May_05_1203	s	s	2	3	SIC	216	ABS	2	0	02VD 02VO 10VC 02MD 02MO 02MC 02RD 02RO	0	1	2.16015386581	None	None	None	None	1
2.7	2015_May_05_1203	s	s	2	3	SIC	217	ABS	1	1	02VD 02VO 02VC 02MD 10MO 02MC 02RD 02RO	0	1	2.75361704826	None	None	None	None	1
2.7	2015_May_05_1203	s	s	2	3	SIC	218	RC	2	2	09VD 02VO 02VC 02MD 02MO 02MC 02RD 02RO	1	0	1.07050800323	199.0	336.0	195	338	1
2.7	2015_May_05_1203	s	s	2	3	SIC	219	ABS	2	1	02VD 10VO 02VC 02MD 02MO 02MC 02RD 02RO	0	1	1.72958111763	None	None	None	None	1
2.7	2015_May_05_1203	s	s	2	3	SIC	220	ABS	2	2	10VD 02VO 02VC 02MD 02MO 02MC 02RD 02RO	0	1	1.49084091187	None	None	None	None	1
2.7	2015_May_05_1203	s	s	2	3	SIC	221	RC	1	0	02VD 02VO 02VC 02MD 02MO 09MC 02RD 02RO	1	0	1.32486701012	-448.0	-211.0	-454	-216	1
2.7	2015_May_05_1203	s	s	2	3	SIC	222	RC	0	2	02VD 02VO 02VC 02MD 02MO 02MC 09RD 02RO	1	0	0.933725833893	-434.0	193.0	-429	196	1
2.7	2015_May_05_1203	s	s	2	3	SIC	223	ABS	1	0	02VD 02VO 02VC 02MD 02MO 10MC 02RD 02RO	0	1	2.48969912529	None	None	None	None	1
2.7	2015_May_05_1203	s	s	2	3	SIC	224	RC	1	2	02VD 02VO 02VC 09MD 02MO 02MC 02RD 02RO	0	1	1.78853201866	-426.0	60.0	None	None	0
2.7	2015_May_05_1203	s	s	2	3	SIC	225	ABS	2	1	02VD 10VO 02VC 02MD 02MO 02MC 02RD 02RO	0	1	1.73876094818	None	None	None	None	1
2.7	2015_May_05_1203	s	s	2	3	SIC	226	ABS	1	0	02VD 02VO 02VC 02MD 02MO 10MC 02RD 02RO	0	1	2.04314994812	None	None	None	None	1
2.7	2015_May_05_1203	s	s	2	3	SIC	227	ABS	1	2	02VD 02VO 02VC 10MD 02MO 02MC 02RD 02RO	0	1	1.61194181442	None	None	None	None	1
2.7	2015_May_05_1203	s	s	2	3	SIC	228	RC	2	0	02VD 02VO 09VC 02MD 02MO 02MC 02RD 02RO	1	0	0.705592870712	-420.0	-19.0	-421	-25	1
2.7	2015_May_05_1203	s	s	2	3	SIC	229	RC	0	1	02VD 02VO 02VC 02MD 02MO 02MC 02RD 09RO	1	0	2.60658693314	345.0	-215.0	353	-216	1
2.7	2015_May_05_1203	s	s	2	3	SIC	230	RC	2	2	09VD 02VO 02VC 02MD 02MO 02MC 02RD 02RO	1	0	2.05450510979	515.0	-312.0	521	-303	1
2.7	2015_May_05_1203	s	s	2	3	SIC	231	ABS	2	2	10VD 02VO 02VC 02MD 02MO 02MC 02RD 02RO	0	1	1.68248701096	None	None	None	None	1
2.7	2015_May_05_1203	s	s	2	3	SIC	232	ABS	1	1	02VD 02VO 02VC 02MD 10MO 02MC 02RD 02RO	0	1	2.38880801201	None	None	None	None	1
2.7	2015_May_05_1203	s	s	2	3	SIC	233	RC	1	2	02VD 02VO 02VC 09MD 02MO 02MC 02RD 02RO	1	0	1.60689091682	283.0	2.0	292	2	1
2.7	2015_May_05_1203	s	s	2	3	SIC	234	RC	0	2	02VD 02VO 02VC 02MD 02MO 02MC 09RD 02RO	1	0	1.10575699806	-293.0	406.0	-298	408	1
2.7	2015_May_05_1203	s	s	2	3	SIC	235	ABS	0	1	02VD 02VO 02VC 02MD 02MO 02MC 02RD 10RO	0	1	3.76086306572	None	None	None	None	1
2.7	2015_May_05_1203	s	s	2	3	SIC	236	RC	2	1	02VD 09VO 02VC 02MD 02MO 02MC 02RD 02RO	1	0	0.97675204277	-15.0	-260.0	-18	-256	1
2.7	2015_May_05_1203	s	s	2	3	SIC	237	RC	1	0	02VD 02VO 02VC 02MD 02MO 09MC 02RD 02RO	1	0	1.04075503349	-414.0	-158.0	-411	-154	1
2.7	2015_May_05_1203	s	s	2	3	SIC	238	ABS	2	0	02VD 02VO 10VC 02MD 02MO 02MC 02RD 02RO	0	1	1.64428210258	None	None	None	None	1
2.7	2015_May_05_1203	s	s	2	3	SIC	239	RC	1	1	02VD 02VO 02VC 02MD 09MO 02MC 02RD 02RO	1	0	1.76014995575	-411.0	289.0	-405	287	1
2.7	2015_May_05_1203	s	s	2	3	SIC	240	ABS	0	2	02VD 02VO 02VC 02MD 02MO 02MC 10RD 02RO	0	1	2.44276618958	None	None	None	None	1
2.7	2015_May_05_1203	s	s	2	3	SIC	241	RC	2	0	02VD 02VO 09VC 02MD 02MO 02MC 02RD 02RO	1	0	1.11192798615	-113.0	-20.0	-110	-24	1
2.7	2015_May_05_1203	s	s	2	3	SIC	242	RC	1	1	02VD 02VO 02VC 02MD 09MO 02MC 02RD 02RO	1	0	1.23013401031	365.0	114.0	366	119	1
2.7	2015_May_05_1203	s	s	2	3	SIC	243	RC	0	1	02VD 02VO 02VC 02MD 02MO 02MC 02RD 09RO	1	0	0.882059812546	34.0	-93.0	34	-89	1
2.7	2015_May_05_1203	s	s	2	3	SIC	244	ABS	0	1	02VD 02VO 02VC 02MD 02MO 02MC 02RD 10RO	0	1	3.01902198792	None	None	None	None	1
2.7	2015_May_05_1203	s	s	2	3	SIC	245	RC	1	2	02VD 02VO 02VC 09MD 02MO 02MC 02RD 02RO	1	0	1.99546098709	-527.0	-78.0	-526	-75	1
2.7	2015_May_05_1203	s	s	2	3	SIC	246	RC	2	2	09VD 02VO 02VC 02MD 02MO 02MC 02RD 02RO	1	0	1.65403795242	-477.0	312.0	-480	310	1
2.7	2015_May_05_1203	s	s	2	3	SIC	247	RC	2	1	02VD 09VO 02VC 02MD 02MO 02MC 02RD 02RO	1	0	0.940916061401	108.0	-42.0	101	-42	1
2.7	2015_May_05_1203	s	s	2	3	SIC	248	ABS	0	2	02VD 02VO 02VC 02MD 02MO 02MC 10RD 02RO	0	1	2.9016251564	None	None	None	None	1
2.7	2015_May_05_1203	s	s	2	3	SIC	249	ABS	1	0	02VD 02VO 02VC 02MD 02MO 10MC 02RD 02RO	0	1	3.40814399719	None	None	None	None	1
2.7	2015_May_05_1203	s	s	2	3	SIC	250	RC	0	2	02VD 02VO 02VC 02MD 02MO 02MC 09RD 02RO	1	0	0.87033700943	-188.0	338.0	-198	339	1
2.7	2015_May_05_1203	s	s	2	3	SIC	251	ABS	2	2	10VD 02VO 02VC 02MD 02MO 02MC 02RD 02RO	0	1	1.80821084976	None	None	None	None	1
2.7	2015_May_05_1203	s	s	2	3	SIC	252	RC	1	0	02VD 02VO 02VC 02MD 02MO 09MC 02RD 02RO	1	0	2.31542491913	390.0	-170.0	384	-171	1
2.7	2015_May_05_1203	s	s	2	3	SIC	253	ABS	2	1	02VD 10VO 02VC 02MD 02MO 02MC 02RD 02RO	0	1	1.64364290237	None	None	None	None	1
2.7	2015_May_05_1203	s	s	2	3	SIC	254	ABS	2	0	02VD 02VO 10VC 02MD 02MO 02MC 02RD 02RO	0	1	1.71784186363	None	None	None	None	1
2.7	2015_May_05_1203	s	s	2	3	SIC	255	ABS	1	1	02VD 02VO 02VC 02MD 10MO 02MC 02RD 02RO	0	1	2.13684105873	None	None	None	None	1
2.7	2015_May_05_1203	s	s	2	3	SIC	256	ABS	1	2	02VD 02VO 02VC 10MD 02MO 02MC 02RD 02RO	0	1	1.89444184303	None	None	None	None	1
2.7	2015_May_05_1203	s	s	2	3	SIC	257	RC	0	1	02VD 02VO 02VC 02MD 02MO 02MC 02RD 09RO	1	0	1.43531918526	-292.0	-291.0	-292	-288	1
2.7	2015_May_05_1203	s	s	2	3	SIC	258	RC	2	0	02VD 02VO 09VC 02MD 02MO 02MC 02RD 02RO	1	0	1.43538999557	275.0	-393.0	285	-388	1
2.7	2015_May_05_1203	s	s	2	3	SIC	259	ABS	0	2	02VD 02VO 02VC 02MD 02MO 02MC 10RD 02RO	0	1	2.03561401367	None	None	None	None	1
2.7	2015_May_05_1203	s	s	2	3	SIC	260	ABS	2	1	02VD 10VO 02VC 02MD 02MO 02MC 02RD 02RO	0	1	1.9768280983	None	None	None	None	1
2.7	2015_May_05_1203	s	s	2	3	SIC	261	RC	1	0	02VD 02VO 02VC 02MD 02MO 09MC 02RD 02RO	1	0	0.799780130386	247.0	242.0	240	251	1
2.7	2015_May_05_1203	s	s	2	3	SIC	262	ABS	2	0	02VD 02VO 10VC 02MD 02MO 02MC 02RD 02RO	0	1	2.22392010689	None	None	None	None	1
2.7	2015_May_05_1203	s	s	2	3	SIC	263	ABS	0	1	02VD 02VO 02VC 02MD 02MO 02MC 02RD 10RO	0	1	3.32236790657	None	None	None	None	1
2.7	2015_May_05_1203	s	s	2	3	SIC	264	RC	0	2	02VD 02VO 02VC 02MD 02MO 02MC 09RD 02RO	1	0	1.8357629776	432.0	-354.0	427	-355	1
2.7	2015_May_05_1203	s	s	2	3	SIC	265	RC	1	1	02VD 02VO 02VC 02MD 09MO 02MC 02RD 02RO	1	0	0.782787084579	152.0	100.0	150	102	1
2.7	2015_May_05_1203	s	s	2	3	SIC	266	ABS	1	1	02VD 02VO 02VC 02MD 10MO 02MC 02RD 02RO	0	1	2.22389507294	None	None	None	None	1
2.7	2015_May_05_1203	s	s	2	3	SIC	267	RC	2	1	02VD 09VO 02VC 02MD 02MO 02MC 02RD 02RO	1	0	1.15287184715	-177.0	-274.0	-177	-269	1
2.7	2015_May_05_1203	s	s	2	3	SIC	268	ABS	1	0	02VD 02VO 02VC 02MD 02MO 10MC 02RD 02RO	0	1	2.78341293335	None	None	None	None	1
2.7	2015_May_05_1203	s	s	2	3	SIC	269	RC	1	2	02VD 02VO 02VC 09MD 02MO 02MC 02RD 02RO	1	0	1.44714999199	223.0	-236.0	221	-232	1
2.7	2015_May_05_1203	s	s	2	3	SIC	270	ABS	1	2	02VD 02VO 02VC 10MD 02MO 02MC 02RD 02RO	0	1	1.81196403503	None	None	None	None	1
2.7	2015_May_05_1203	s	s	2	3	SIC	271	RC	2	2	09VD 02VO 02VC 02MD 02MO 02MC 02RD 02RO	1	0	1.25684094429	523.0	18.0	520	13	1
2.7	2015_May_05_1203	s	s	2	3	SIC	272	ABS	2	2	10VD 02VO 02VC 02MD 02MO 02MC 02RD 02RO	0	1	1.52378511429	None	None	None	None	1
2.7	2015_May_05_1203	s	s	2	3	SIC	273	ABS	2	1	02VD 10VO 02VC 02MD 02MO 02MC 02RD 02RO	0	1	1.6354739666	None	None	None	None	1
2.7	2015_May_05_1203	s	s	2	3	SIC	274	ABS	2	2	10VD 02VO 02VC 02MD 02MO 02MC 02RD 02RO	0	1	1.75302696228	None	None	None	None	1
2.7	2015_May_05_1203	s	s	2	3	SIC	275	ABS	2	0	02VD 02VO 10VC 02MD 02MO 02MC 02RD 02RO	0	1	1.30095720291	None	None	None	None	1
2.7	2015_May_05_1203	s	s	2	3	SIC	276	RC	0	1	02VD 02VO 02VC 02MD 02MO 02MC 02RD 09RO	1	0	1.49420619011	-535.0	-387.0	-541	-382	1
2.7	2015_May_05_1203	s	s	2	3	SIC	277	RC	2	0	02VD 02VO 09VC 02MD 02MO 02MC 02RD 02RO	1	0	1.95066690445	-528.0	325.0	-534	329	1
2.7	2015_May_05_1203	s	s	2	3	SIC	278	ABS	1	0	02VD 02VO 02VC 02MD 02MO 10MC 02RD 02RO	0	1	2.14157605171	None	None	None	None	1
2.7	2015_May_05_1203	s	s	2	3	SIC	279	ABS	0	1	02VD 02VO 02VC 02MD 02MO 02MC 02RD 10RO	0	1	2.90379619598	None	None	None	None	1
2.7	2015_May_05_1203	s	s	2	3	SIC	280	RC	0	2	02VD 02VO 02VC 02MD 02MO 02MC 09RD 02RO	1	0	1.14936804771	-286.0	-225.0	-282	-219	1
2.7	2015_May_05_1203	s	s	2	3	SIC	281	ABS	0	2	02VD 02VO 02VC 02MD 02MO 02MC 10RD 02RO	0	1	2.0945379734	None	None	None	None	1
2.7	2015_May_05_1203	s	s	2	3	SIC	282	RC	2	1	02VD 09VO 02VC 02MD 02MO 02MC 02RD 02RO	1	0	1.63550305367	524.0	-223.0	534	-217	1
2.7	2015_May_05_1203	s	s	2	3	SIC	283	RC	1	1	02VD 02VO 02VC 02MD 09MO 02MC 02RD 02RO	1	0	1.70606422424	-303.0	-381.0	-308	-383	1
2.7	2015_May_05_1203	s	s	2	3	SIC	284	RC	2	2	09VD 02VO 02VC 02MD 02MO 02MC 02RD 02RO	1	0	0.874267816544	43.0	308.0	41	307	1
2.7	2015_May_05_1203	s	s	2	3	SIC	285	ABS	1	2	02VD 02VO 02VC 10MD 02MO 02MC 02RD 02RO	0	1	2.66627717018	None	None	None	None	1
2.7	2015_May_05_1203	s	s	2	3	SIC	286	RC	1	0	02VD 02VO 02VC 02MD 02MO 09MC 02RD 02RO	1	0	0.799742937088	-524.0	169.0	-533	165	1
2.7	2015_May_05_1203	s	s	2	3	SIC	287	RC	1	2	02VD 02VO 02VC 09MD 02MO 02MC 02RD 02RO	1	0	1.68263077736	354.0	-388.0	351	-385	1
2.7	2015_May_05_1203	s	s	2	3	SIC	288	ABS	1	1	02VD 02VO 02VC 02MD 10MO 02MC 02RD 02RO	0	1	2.63595199585	None	None	None	None	1
2.7	2015_May_05_1203	s	s	2	3	SIC	289	ABS	1	1	02VD 02VO 02VC 02MD 10MO 02MC 02RD 02RO	0	1	2.96039509773	None	None	None	None	1
2.7	2015_May_05_1203	s	s	2	3	SIC	290	RC	1	2	02VD 02VO 02VC 09MD 02MO 02MC 02RD 02RO	1	0	0.653123140335	-398.0	-5.0	-395	-4	1
2.7	2015_May_05_1203	s	s	2	3	SIC	291	RC	1	0	02VD 02VO 02VC 02MD 02MO 09MC 02RD 02RO	1	0	0.752687931061	-223.0	246.0	-217	250	1
2.7	2015_May_05_1203	s	s	2	3	SIC	292	ABS	1	0	02VD 02VO 02VC 02MD 02MO 10MC 02RD 02RO	0	1	3.11839199066	None	None	None	None	1
2.7	2015_May_05_1203	s	s	2	3	SIC	293	ABS	2	2	10VD 02VO 02VC 02MD 02MO 02MC 02RD 02RO	0	1	1.93794488907	None	None	None	None	1
2.7	2015_May_05_1203	s	s	2	3	SIC	294	RC	2	0	02VD 02VO 09VC 02MD 02MO 02MC 02RD 02RO	1	0	1.05568814278	440.0	306.0	447	312	1
2.7	2015_May_05_1203	s	s	2	3	SIC	295	ABS	2	0	02VD 02VO 10VC 02MD 02MO 02MC 02RD 02RO	0	1	2.05581402779	None	None	None	None	1
2.7	2015_May_05_1203	s	s	2	3	SIC	296	ABS	0	2	02VD 02VO 02VC 02MD 02MO 02MC 10RD 02RO	0	1	1.93639278412	None	None	None	None	1
2.7	2015_May_05_1203	s	s	2	3	SIC	297	ABS	0	1	02VD 02VO 02VC 02MD 02MO 02MC 02RD 10RO	0	1	2.82160806656	None	None	None	None	1
2.7	2015_May_05_1203	s	s	2	3	SIC	298	RC	1	1	02VD 02VO 02VC 02MD 09MO 02MC 02RD 02RO	1	0	0.740989923477	-169.0	175.0	-172	181	1
2.7	2015_May_05_1203	s	s	2	3	SIC	299	RC	2	2	09VD 02VO 02VC 02MD 02MO 02MC 02RD 02RO	1	0	0.717368841171	-35.0	-115.0	-41	-113	1
2.7	2015_May_05_1203	s	s	2	3	SIC	300	RC	2	1	02VD 09VO 02VC 02MD 02MO 02MC 02RD 02RO	1	0	0.949486970901	320.0	-228.0	320	-229	1
2.7	2015_May_05_1203	s	s	2	3	SIC	301	RC	0	1	02VD 02VO 02VC 02MD 02MO 02MC 02RD 09RO	1	0	2.65949416161	336.0	-103.0	337	-100	1
2.7	2015_May_05_1203	s	s	2	3	SIC	302	RC	0	2	02VD 02VO 02VC 02MD 02MO 02MC 09RD 02RO	1	0	1.6172440052	396.0	358.0	394	358	1
2.7	2015_May_05_1203	s	s	2	3	SIC	303	ABS	2	1	02VD 10VO 02VC 02MD 02MO 02MC 02RD 02RO	0	1	2.16011595726	None	None	None	None	1
2.7	2015_May_05_1203	s	s	2	3	SIC	304	ABS	1	2	02VD 02VO 02VC 10MD 02MO 02MC 02RD 02RO	0	1	1.59512782097	None	None	None	None	1
2.7	2015_May_05_1203	s	s	2	3	SIC	305	ABS	1	0	02VD 02VO 02VC 02MD 02MO 10MC 02RD 02RO	0	1	1.54164004326	None	None	None	None	1
2.7	2015_May_05_1203	s	s	2	3	SIC	306	ABS	0	2	02VD 02VO 02VC 02MD 02MO 02MC 10RD 02RO	0	1	2.45980191231	None	None	None	None	1
2.7	2015_May_05_1203	s	s	2	3	SIC	307	ABS	2	1	02VD 10VO 02VC 02MD 02MO 02MC 02RD 02RO	0	1	1.5717561245	None	None	None	None	1
2.7	2015_May_05_1203	s	s	2	3	SIC	308	RC	0	1	02VD 02VO 02VC 02MD 02MO 02MC 02RD 09RO	1	0	0.905728816986	-512.0	15.0	-512	21	1
2.7	2015_May_05_1203	s	s	2	3	SIC	309	ABS	2	2	10VD 02VO 02VC 02MD 02MO 02MC 02RD 02RO	0	1	1.31250405312	None	None	None	None	1
2.7	2015_May_05_1203	s	s	2	3	SIC	310	RC	2	0	02VD 02VO 09VC 02MD 02MO 02MC 02RD 02RO	1	0	1.07046890259	148.0	-216.0	158	-208	1
2.7	2015_May_05_1203	s	s	2	3	SIC	311	ABS	1	1	02VD 02VO 02VC 02MD 10MO 02MC 02RD 02RO	0	1	2.04748916626	None	None	None	None	1
2.7	2015_May_05_1203	s	s	2	3	SIC	312	RC	1	0	02VD 02VO 02VC 02MD 02MO 09MC 02RD 02RO	1	0	1.34779596329	225.0	19.0	235	17	1
2.7	2015_May_05_1203	s	s	2	3	SIC	313	ABS	0	1	02VD 02VO 02VC 02MD 02MO 02MC 02RD 10RO	0	1	3.78454113007	None	None	None	None	1
2.7	2015_May_05_1203	s	s	2	3	SIC	314	RC	2	2	09VD 02VO 02VC 02MD 02MO 02MC 02RD 02RO	1	0	0.65877699852	-80.0	188.0	-91	191	1
2.7	2015_May_05_1203	s	s	2	3	SIC	315	RC	0	2	02VD 02VO 02VC 02MD 02MO 02MC 09RD 02RO	1	0	1.04218506813	20.0	-351.0	24	-353	1
2.7	2015_May_05_1203	s	s	2	3	SIC	316	RC	1	1	02VD 02VO 02VC 02MD 09MO 02MC 02RD 02RO	1	0	1.15279102325	312.0	-74.0	317	-75	1
2.7	2015_May_05_1203	s	s	2	3	SIC	317	RC	1	2	02VD 02VO 02VC 09MD 02MO 02MC 02RD 02RO	1	0	1.04674005508	249.0	-4.0	249	-4	1
2.7	2015_May_05_1203	s	s	2	3	SIC	318	RC	2	1	02VD 09VO 02VC 02MD 02MO 02MC 02RD 02RO	1	0	0.950106143951	313.0	238.0	311	235	1
2.7	2015_May_05_1203	s	s	2	3	SIC	319	ABS	1	2	02VD 02VO 02VC 10MD 02MO 02MC 02RD 02RO	0	1	1.97676706314	None	None	None	None	1
2.7	2015_May_05_1203	s	s	2	3	SIC	320	ABS	2	0	02VD 02VO 10VC 02MD 02MO 02MC 02RD 02RO	1	0	1.92977786064	None	None	-54	26	0
2.7	2015_May_05_1203	s	s	2	3	SIC	321	ABS	1	1	02VD 02VO 02VC 02MD 10MO 02MC 02RD 02RO	0	1	2.32987093925	None	None	None	None	1
2.7	2015_May_05_1203	s	s	2	3	SIC	322	RC	2	0	02VD 02VO 09VC 02MD 02MO 02MC 02RD 02RO	1	0	1.95333790779	477.0	340.0	475	337	1
2.7	2015_May_05_1203	s	s	2	3	SIC	323	RC	2	2	09VD 02VO 02VC 02MD 02MO 02MC 02RD 02RO	1	0	0.679198026657	78.0	33.0	80	34	1
2.7	2015_May_05_1203	s	s	2	3	SIC	324	RC	1	2	02VD 02VO 02VC 09MD 02MO 02MC 02RD 02RO	1	0	1.14775490761	280.0	-296.0	285	-307	1
2.7	2015_May_05_1203	s	s	2	3	SIC	325	RC	1	0	02VD 02VO 02VC 02MD 02MO 09MC 02RD 02RO	1	0	0.858690023422	-69.0	275.0	-72	279	1
2.7	2015_May_05_1203	s	s	2	3	SIC	326	ABS	0	2	02VD 02VO 02VC 02MD 02MO 02MC 10RD 02RO	0	1	2.16010212898	None	None	None	None	1
2.7	2015_May_05_1203	s	s	2	3	SIC	327	RC	0	2	02VD 02VO 02VC 02MD 02MO 02MC 09RD 02RO	1	0	0.670311927795	-257.0	257.0	-254	266	1
2.7	2015_May_05_1203	s	s	2	3	SIC	328	RC	1	1	02VD 02VO 02VC 02MD 09MO 02MC 02RD 02RO	1	0	0.876332044601	-167.0	-192.0	-173	-199	1
2.7	2015_May_05_1203	s	s	2	3	SIC	329	ABS	1	0	02VD 02VO 02VC 02MD 02MO 10MC 02RD 02RO	0	1	1.97393798828	None	None	None	None	1
2.7	2015_May_05_1203	s	s	2	3	SIC	330	ABS	1	2	02VD 02VO 02VC 10MD 02MO 02MC 02RD 02RO	0	1	1.70107889175	None	None	None	None	1
2.7	2015_May_05_1203	s	s	2	3	SIC	331	ABS	2	0	02VD 02VO 10VC 02MD 02MO 02MC 02RD 02RO	0	1	1.93874502182	None	None	None	None	1
2.7	2015_May_05_1203	s	s	2	3	SIC	332	ABS	0	1	02VD 02VO 02VC 02MD 02MO 02MC 02RD 10RO	0	1	2.8595468998	None	None	None	None	1
2.7	2015_May_05_1203	s	s	2	3	SIC	333	ABS	2	1	02VD 10VO 02VC 02MD 02MO 02MC 02RD 02RO	0	1	1.4897608757	None	None	None	None	1
2.7	2015_May_05_1203	s	s	2	3	SIC	334	RC	0	1	02VD 02VO 02VC 02MD 02MO 02MC 02RD 09RO	1	0	0.717392921448	-171.0	218.0	-168	215	1
2.7	2015_May_05_1203	s	s	2	3	SIC	335	ABS	2	2	10VD 02VO 02VC 02MD 02MO 02MC 02RD 02RO	0	1	2.09496212006	None	None	None	None	1
2.7	2015_May_05_1203	s	s	2	3	SIC	336	RC	2	1	02VD 09VO 02VC 02MD 02MO 02MC 02RD 02RO	1	0	1.40687704086	34.0	-376.0	33	-370	1
2.7	2015_May_05_1203	s	s	2	3	SIC	337	RC	1	2	02VD 02VO 02VC 09MD 02MO 02MC 02RD 02RO	1	0	0.799805879593	-159.0	-202.0	-153	-196	1
2.7	2015_May_05_1203	s	s	2	3	SIC	338	RC	1	0	02VD 02VO 02VC 02MD 02MO 09MC 02RD 02RO	1	0	2.64210486412	-463.0	149.0	-465	149	1
2.7	2015_May_05_1203	s	s	2	3	SIC	339	ABS	2	1	02VD 10VO 02VC 02MD 02MO 02MC 02RD 02RO	0	1	1.74755501747	None	None	None	None	1
2.7	2015_May_05_1203	s	s	2	3	SIC	340	ABS	2	2	10VD 02VO 02VC 02MD 02MO 02MC 02RD 02RO	0	1	1.46565580368	None	None	None	None	1
2.7	2015_May_05_1203	s	s	2	3	SIC	341	ABS	0	1	02VD 02VO 02VC 02MD 02MO 02MC 02RD 10RO	0	1	4.3023750782	None	None	None	None	1
2.7	2015_May_05_1203	s	s	2	3	SIC	342	RC	0	1	02VD 02VO 02VC 02MD 02MO 02MC 02RD 09RO	1	0	1.065969944	-223.0	312.0	-223	310	1
2.7	2015_May_05_1203	s	s	2	3	SIC	343	RC	1	1	02VD 02VO 02VC 02MD 09MO 02MC 02RD 02RO	1	0	0.97137594223	-128.0	-256.0	-134	-254	1
2.7	2015_May_05_1203	s	s	2	3	SIC	344	RC	2	2	09VD 02VO 02VC 02MD 02MO 02MC 02RD 02RO	1	0	1.54821896553	262.0	-230.0	269	-224	1
2.7	2015_May_05_1203	s	s	2	3	SIC	345	RC	2	0	02VD 02VO 09VC 02MD 02MO 02MC 02RD 02RO	1	0	0.723057985306	-190.0	198.0	-188	193	1
2.7	2015_May_05_1203	s	s	2	3	SIC	346	RC	2	1	02VD 09VO 02VC 02MD 02MO 02MC 02RD 02RO	1	0	0.793663978577	449.0	-252.0	457	-244	1
2.7	2015_May_05_1203	s	s	2	3	SIC	347	RC	0	2	02VD 02VO 02VC 02MD 02MO 02MC 09RD 02RO	1	0	0.623141050339	-51.0	17.0	-50	16	1
2.7	2015_May_05_1203	s	s	2	3	SIC	348	ABS	1	1	02VD 02VO 02VC 02MD 10MO 02MC 02RD 02RO	0	1	2.49499416351	None	None	None	None	1
2.7	2015_May_05_1203	s	s	2	3	SIC	349	ABS	2	0	02VD 02VO 10VC 02MD 02MO 02MC 02RD 02RO	0	1	2.11336779594	None	None	None	None	1
2.7	2015_May_05_1203	s	s	2	3	SIC	350	ABS	1	0	02VD 02VO 02VC 02MD 02MO 10MC 02RD 02RO	0	1	2.16245603561	None	None	None	None	1
2.7	2015_May_05_1203	s	s	2	3	SIC	351	ABS	0	2	02VD 02VO 02VC 02MD 02MO 02MC 10RD 02RO	0	1	2.10626196861	None	None	None	None	1
2.7	2015_May_05_1203	s	s	2	3	SIC	352	ABS	1	2	02VD 02VO 02VC 10MD 02MO 02MC 02RD 02RO	0	1	1.70120811462	None	None	None	None	1
2.7	2015_May_05_1203	s	s	2	3	SIC	353	ABS	1	0	02VD 02VO 02VC 02MD 02MO 10MC 02RD 02RO	0	1	1.49419999123	None	None	None	None	1
2.7	2015_May_05_1203	s	s	2	3	SIC	354	ABS	0	2	02VD 02VO 02VC 02MD 02MO 02MC 10RD 02RO	0	1	1.30323195457	None	None	None	None	1
2.7	2015_May_05_1203	s	s	2	3	SIC	355	RC	1	0	02VD 02VO 02VC 02MD 02MO 09MC 02RD 02RO	1	0	0.811580896378	124.0	-114.0	126	-114	1
2.7	2015_May_05_1203	s	s	2	3	SIC	356	ABS	1	1	02VD 02VO 02VC 02MD 10MO 02MC 02RD 02RO	0	1	1.8180129528	None	None	None	None	1
2.7	2015_May_05_1203	s	s	2	3	SIC	357	RC	1	1	02VD 02VO 02VC 02MD 09MO 02MC 02RD 02RO	1	0	2.38383603096	207.0	-373.0	199	-378	1
2.7	2015_May_05_1203	s	s	2	3	SIC	358	ABS	2	1	02VD 10VO 02VC 02MD 02MO 02MC 02RD 02RO	0	1	1.60017895699	None	None	None	None	1
2.7	2015_May_05_1203	s	s	2	3	SIC	359	ABS	2	0	02VD 02VO 10VC 02MD 02MO 02MC 02RD 02RO	0	1	1.4092810154	None	None	None	None	1
2.7	2015_May_05_1203	s	s	2	3	SIC	360	RC	0	2	02VD 02VO 02VC 02MD 02MO 02MC 09RD 02RO	1	0	1.25922608376	-292.0	-240.0	-294	-248	1
2.7	2015_May_05_1203	s	s	2	3	SIC	361	ABS	1	2	02VD 02VO 02VC 10MD 02MO 02MC 02RD 02RO	0	1	2.22403883934	None	None	None	None	1
2.7	2015_May_05_1203	s	s	2	3	SIC	362	RC	2	2	09VD 02VO 02VC 02MD 02MO 02MC 02RD 02RO	1	0	1.18318986893	-331.0	125.0	-329	123	1
2.7	2015_May_05_1203	s	s	2	3	SIC	363	RC	2	1	02VD 09VO 02VC 02MD 02MO 02MC 02RD 02RO	1	0	1.31769800186	-189.0	-149.0	-194	-146	1
2.7	2015_May_05_1203	s	s	2	3	SIC	364	ABS	0	1	02VD 02VO 02VC 02MD 02MO 02MC 02RD 10RO	0	1	3.50185918808	None	None	None	None	1
2.7	2015_May_05_1203	s	s	2	3	SIC	365	ABS	2	2	10VD 02VO 02VC 02MD 02MO 02MC 02RD 02RO	0	1	1.98386597633	None	None	None	None	1
2.7	2015_May_05_1203	s	s	2	3	SIC	366	RC	2	0	02VD 02VO 09VC 02MD 02MO 02MC 02RD 02RO	1	0	0.823323965073	281.0	-94.0	287	-93	1
2.7	2015_May_05_1203	s	s	2	3	SIC	367	RC	1	2	02VD 02VO 02VC 09MD 02MO 02MC 02RD 02RO	1	0	1.09403395653	370.0	77.0	372	69	1
2.7	2015_May_05_1203	s	s	2	3	SIC	368	RC	0	1	02VD 02VO 02VC 02MD 02MO 02MC 02RD 09RO	1	0	0.870264053345	-89.0	-48.0	-83	-51	1
2.7	2015_May_05_1203	s	s	2	3	SIC	369	ABS	0	1	02VD 02VO 02VC 02MD 02MO 02MC 02RD 10RO	0	1	2.53003096581	None	None	None	None	1
2.7	2015_May_05_1203	s	s	2	3	SIC	370	ABS	0	2	02VD 02VO 02VC 02MD 02MO 02MC 10RD 02RO	0	1	2.03614401817	None	None	None	None	1
2.7	2015_May_05_1203	s	s	2	3	SIC	371	RC	2	2	09VD 02VO 02VC 02MD 02MO 02MC 02RD 02RO	1	0	1.03517103195	153.0	-219.0	161	-215	1
2.7	2015_May_05_1203	s	s	2	3	SIC	372	ABS	1	1	02VD 02VO 02VC 02MD 10MO 02MC 02RD 02RO	0	1	2.29464316368	None	None	None	None	1
2.7	2015_May_05_1203	s	s	2	3	SIC	373	ABS	1	0	02VD 02VO 02VC 02MD 02MO 10MC 02RD 02RO	0	1	2.01213812828	None	None	None	None	1
2.7	2015_May_05_1203	s	s	2	3	SIC	374	ABS	2	0	02VD 02VO 10VC 02MD 02MO 02MC 02RD 02RO	0	1	1.61194586754	None	None	None	None	1
2.7	2015_May_05_1203	s	s	2	3	SIC	375	RC	2	0	02VD 02VO 09VC 02MD 02MO 02MC 02RD 02RO	1	0	0.700787067413	332.0	29.0	328	30	1
2.7	2015_May_05_1203	s	s	2	3	SIC	376	RC	0	1	02VD 02VO 02VC 02MD 02MO 02MC 02RD 09RO	1	0	0.670269966125	-104.0	55.0	-104	45	1
2.7	2015_May_05_1203	s	s	2	3	SIC	377	RC	1	1	02VD 02VO 02VC 02MD 09MO 02MC 02RD 02RO	1	0	1.05112719536	-405.0	349.0	-401	345	1
2.7	2015_May_05_1203	s	s	2	3	SIC	378	ABS	2	1	02VD 10VO 02VC 02MD 02MO 02MC 02RD 02RO	0	1	1.90618920326	None	None	None	None	1
2.7	2015_May_05_1203	s	s	2	3	SIC	379	RC	2	1	02VD 09VO 02VC 02MD 02MO 02MC 02RD 02RO	1	0	0.964522123337	-240.0	-159.0	-247	-157	1
2.7	2015_May_05_1203	s	s	2	3	SIC	380	RC	1	0	02VD 02VO 02VC 02MD 02MO 09MC 02RD 02RO	0	1	2.84534502029	539.0	329.0	None	None	0
2.7	2015_May_05_1203	s	s	2	3	SIC	381	ABS	2	2	10VD 02VO 02VC 02MD 02MO 02MC 02RD 02RO	0	1	2.01996707916	None	None	None	None	1
2.7	2015_May_05_1203	s	s	2	3	SIC	382	RC	0	2	02VD 02VO 02VC 02MD 02MO 02MC 09RD 02RO	1	0	0.572391033173	-273.0	41.0	-263	40	1
2.7	2015_May_05_1203	s	s	2	3	SIC	383	RC	1	2	02VD 02VO 02VC 09MD 02MO 02MC 02RD 02RO	1	0	1.23034000397	81.0	382.0	84	378	1
2.7	2015_May_05_1203	s	s	2	3	SIC	384	ABS	1	2	02VD 02VO 02VC 10MD 02MO 02MC 02RD 02RO	0	1	1.53615903854	None	None	None	None	1
2.7	2015_May_05_1203	s	s	2	3	SIC	385	ABS	2	0	02VD 02VO 10VC 02MD 02MO 02MC 02RD 02RO	0	1	1.33623504639	None	None	None	None	1
2.7	2015_May_05_1203	s	s	2	3	SIC	386	ABS	2	2	10VD 02VO 02VC 02MD 02MO 02MC 02RD 02RO	0	1	1.56485509872	None	None	None	None	1
2.7	2015_May_05_1203	s	s	2	3	SIC	387	ABS	2	1	02VD 10VO 02VC 02MD 02MO 02MC 02RD 02RO	0	1	1.71289896965	None	None	None	None	1
2.7	2015_May_05_1203	s	s	2	3	SIC	388	RC	2	0	02VD 02VO 09VC 02MD 02MO 02MC 02RD 02RO	1	0	0.783334970474	-27.0	320.0	-26	323	1
2.7	2015_May_05_1203	s	s	2	3	SIC	389	RC	2	2	09VD 02VO 02VC 02MD 02MO 02MC 02RD 02RO	1	0	0.93500494957	-56.0	-328.0	-51	-326	1
2.7	2015_May_05_1203	s	s	2	3	SIC	390	RC	1	0	02VD 02VO 02VC 02MD 02MO 09MC 02RD 02RO	1	0	1.58556199074	-487.0	-201.0	-484	-197	1
2.7	2015_May_05_1203	s	s	2	3	SIC	391	RC	0	2	02VD 02VO 02VC 02MD 02MO 02MC 09RD 02RO	0	1	1.82412695885	-360.0	-266.0	None	None	0
2.7	2015_May_05_1203	s	s	2	3	SIC	392	ABS	0	1	02VD 02VO 02VC 02MD 02MO 02MC 02RD 10RO	0	1	3.2330160141	None	None	None	None	1
2.7	2015_May_05_1203	s	s	2	3	SIC	393	RC	0	1	02VD 02VO 02VC 02MD 02MO 02MC 02RD 09RO	1	0	0.677253007889	46.0	-63.0	47	-63	1
2.7	2015_May_05_1203	s	s	2	3	SIC	394	ABS	0	2	02VD 02VO 02VC 02MD 02MO 02MC 10RD 02RO	0	1	1.46262216568	None	None	None	None	1
2.7	2015_May_05_1203	s	s	2	3	SIC	395	RC	1	2	02VD 02VO 02VC 09MD 02MO 02MC 02RD 02RO	1	0	0.805089950562	16.0	-157.0	7	-152	1
2.7	2015_May_05_1203	s	s	2	3	SIC	396	ABS	1	1	02VD 02VO 02VC 02MD 10MO 02MC 02RD 02RO	0	1	2.30637192726	None	None	None	None	1
2.7	2015_May_05_1203	s	s	2	3	SIC	397	ABS	1	0	02VD 02VO 02VC 02MD 02MO 10MC 02RD 02RO	0	1	1.99511599541	None	None	None	None	1
2.7	2015_May_05_1203	s	s	2	3	SIC	398	RC	1	1	02VD 02VO 02VC 02MD 09MO 02MC 02RD 02RO	1	0	1.46262097359	407.0	-168.0	416	-172	1
2.7	2015_May_05_1203	s	s	2	3	SIC	399	ABS	1	2	02VD 02VO 02VC 10MD 02MO 02MC 02RD 02RO	0	1	1.51366496086	None	None	None	None	1
2.7	2015_May_05_1203	s	s	2	3	SIC	400	RC	2	1	02VD 09VO 02VC 02MD 02MO 02MC 02RD 02RO	1	0	0.711740970612	36.0	218.0	28	220	1
2.7	2015_May_05_1203	s	s	2	3	SIC	401	ABS	0	1	02VD 02VO 02VC 02MD 02MO 02MC 02RD 10RO	0	1	4.81355595589	None	None	None	None	1
2.7	2015_May_05_1203	s	s	2	3	SIC	402	ABS	2	1	02VD 10VO 02VC 02MD 02MO 02MC 02RD 02RO	0	1	1.10091614723	None	None	None	None	1
2.7	2015_May_05_1203	s	s	2	3	SIC	403	ABS	1	2	02VD 02VO 02VC 10MD 02MO 02MC 02RD 02RO	0	1	1.46560907364	None	None	None	None	1
2.7	2015_May_05_1203	s	s	2	3	SIC	404	ABS	2	0	02VD 02VO 10VC 02MD 02MO 02MC 02RD 02RO	0	1	1.6119530201	None	None	None	None	1
2.7	2015_May_05_1203	s	s	2	3	SIC	405	RC	2	0	02VD 02VO 09VC 02MD 02MO 02MC 02RD 02RO	1	0	0.723881006241	-157.0	170.0	-164	168	1
2.7	2015_May_05_1203	s	s	2	3	SIC	406	ABS	1	0	02VD 02VO 02VC 02MD 02MO 10MC 02RD 02RO	0	1	2.22421503067	None	None	None	None	1
2.7	2015_May_05_1203	s	s	2	3	SIC	407	RC	0	1	02VD 02VO 02VC 02MD 02MO 02MC 02RD 09RO	1	0	2.03572010994	449.0	-177.0	455	-175	1
2.7	2015_May_05_1203	s	s	2	3	SIC	408	RC	2	1	02VD 09VO 02VC 02MD 02MO 02MC 02RD 02RO	1	0	0.726469993591	-172.0	-101.0	-168	-97	1
2.7	2015_May_05_1203	s	s	2	3	SIC	409	RC	1	2	02VD 02VO 02VC 09MD 02MO 02MC 02RD 02RO	1	0	1.30585098267	189.0	-327.0	185	-320	1
2.7	2015_May_05_1203	s	s	2	3	SIC	410	ABS	1	1	02VD 02VO 02VC 02MD 10MO 02MC 02RD 02RO	0	1	2.70670104027	None	None	None	None	1
2.7	2015_May_05_1203	s	s	2	3	SIC	411	ABS	2	2	10VD 02VO 02VC 02MD 02MO 02MC 02RD 02RO	0	1	1.46608996391	None	None	None	None	1
2.7	2015_May_05_1203	s	s	2	3	SIC	412	RC	1	0	02VD 02VO 02VC 02MD 02MO 09MC 02RD 02RO	1	0	0.717783927917	-68.0	163.0	-62	164	1
2.7	2015_May_05_1203	s	s	2	3	SIC	413	RC	0	2	02VD 02VO 02VC 02MD 02MO 02MC 09RD 02RO	1	0	1.4155421257	-480.0	-286.0	-480	-287	1
2.7	2015_May_05_1203	s	s	2	3	SIC	414	RC	1	1	02VD 02VO 02VC 02MD 09MO 02MC 02RD 02RO	1	0	2.15334582329	474.0	-132.0	474	-132	1
2.7	2015_May_05_1203	s	s	2	3	SIC	415	RC	2	2	09VD 02VO 02VC 02MD 02MO 02MC 02RD 02RO	1	0	0.611409902573	-49.0	140.0	-49	126	1
2.7	2015_May_05_1203	s	s	2	3	SIC	416	ABS	0	2	02VD 02VO 02VC 02MD 02MO 02MC 10RD 02RO	0	1	2.25931715965	None	None	None	None	1
2.7	2015_May_05_1203	s	s	2	3	SIC	417	RC	1	2	02VD 02VO 02VC 09MD 02MO 02MC 02RD 02RO	1	0	1.28891396523	-338.0	-259.0	-340	-251	1
2.7	2015_May_05_1203	s	s	2	3	SIC	418	RC	0	1	02VD 02VO 02VC 02MD 02MO 02MC 02RD 09RO	1	0	1.81584906578	-163.0	379.0	-155	373	1
2.7	2015_May_05_1203	s	s	2	3	SIC	419	ABS	0	1	02VD 02VO 02VC 02MD 02MO 02MC 02RD 10RO	0	1	2.96089696884	None	None	None	None	1
2.7	2015_May_05_1203	s	s	2	3	SIC	420	RC	2	2	09VD 02VO 02VC 02MD 02MO 02MC 02RD 02RO	1	0	1.60013079643	261.0	-223.0	263	-222	1
2.7	2015_May_05_1203	s	s	2	3	SIC	421	RC	2	0	02VD 02VO 09VC 02MD 02MO 02MC 02RD 02RO	1	0	1.80026698112	504.0	400.0	495	397	1
2.7	2015_May_05_1203	s	s	2	3	SIC	422	RC	2	1	02VD 09VO 02VC 02MD 02MO 02MC 02RD 02RO	1	0	1.0185790062	202.0	-308.0	208	-305	1
2.7	2015_May_05_1203	s	s	2	3	SIC	423	ABS	2	1	02VD 10VO 02VC 02MD 02MO 02MC 02RD 02RO	0	1	1.50609588623	None	None	None	None	1
2.7	2015_May_05_1203	s	s	2	3	SIC	424	ABS	1	2	02VD 02VO 02VC 10MD 02MO 02MC 02RD 02RO	0	1	1.56486797333	None	None	None	None	1
2.7	2015_May_05_1203	s	s	2	3	SIC	425	ABS	1	0	02VD 02VO 02VC 02MD 02MO 10MC 02RD 02RO	0	1	1.97177314758	None	None	None	None	1
2.7	2015_May_05_1203	s	s	2	3	SIC	426	RC	1	1	02VD 02VO 02VC 02MD 09MO 02MC 02RD 02RO	1	0	2.13651204109	-200.0	364.0	-195	373	1
2.7	2015_May_05_1203	s	s	2	3	SIC	427	ABS	2	0	02VD 02VO 10VC 02MD 02MO 02MC 02RD 02RO	0	1	1.95329117775	None	None	None	None	1
2.7	2015_May_05_1203	s	s	2	3	SIC	428	RC	0	2	02VD 02VO 02VC 02MD 02MO 02MC 09RD 02RO	1	0	1.43039011955	414.0	319.0	424	323	1
2.7	2015_May_05_1203	s	s	2	3	SIC	429	ABS	1	1	02VD 02VO 02VC 02MD 10MO 02MC 02RD 02RO	0	1	3.77508497238	None	None	None	None	1
2.7	2015_May_05_1203	s	s	2	3	SIC	430	ABS	0	2	02VD 02VO 02VC 02MD 02MO 02MC 10RD 02RO	0	1	2.01219320297	None	None	None	None	1
2.7	2015_May_05_1203	s	s	2	3	SIC	431	ABS	2	2	10VD 02VO 02VC 02MD 02MO 02MC 02RD 02RO	0	1	2.21220707893	None	None	None	None	1
2.7	2015_May_05_1203	s	s	2	3	SIC	432	RC	1	0	02VD 02VO 02VC 02MD 02MO 09MC 02RD 02RO	1	0	1.99547505379	404.0	-249.0	399	-249	1
2.7	2015_May_05_1203	s	s	2	3	SIC	433	RC	2	0	02VD 02VO 09VC 02MD 02MO 02MC 02RD 02RO	1	0	1.81872081757	-324.0	-196.0	-327	-200	1
2.7	2015_May_05_1203	s	s	2	3	SIC	434	RC	0	2	02VD 02VO 02VC 02MD 02MO 02MC 09RD 02RO	1	0	2.0920009613	15.0	-239.0	9	-240	1
2.7	2015_May_05_1203	s	s	2	3	SIC	435	RC	0	1	02VD 02VO 02VC 02MD 02MO 02MC 02RD 09RO	1	0	1.85104298592	511.0	169.0	512	171	1
2.7	2015_May_05_1203	s	s	2	3	SIC	436	RC	1	1	02VD 02VO 02VC 02MD 09MO 02MC 02RD 02RO	1	0	0.893915176392	270.0	-16.0	261	-16	1
2.7	2015_May_05_1203	s	s	2	3	SIC	437	ABS	2	1	02VD 10VO 02VC 02MD 02MO 02MC 02RD 02RO	0	1	2.05924201012	None	None	None	None	1
2.7	2015_May_05_1203	s	s	2	3	SIC	438	ABS	2	2	10VD 02VO 02VC 02MD 02MO 02MC 02RD 02RO	0	1	2.12479281425	None	None	None	None	1
2.7	2015_May_05_1203	s	s	2	3	SIC	439	ABS	1	0	02VD 02VO 02VC 02MD 02MO 10MC 02RD 02RO	0	1	1.81894183159	None	None	None	None	1
2.7	2015_May_05_1203	s	s	2	3	SIC	440	ABS	1	1	02VD 02VO 02VC 02MD 10MO 02MC 02RD 02RO	0	1	1.63544917107	None	None	None	None	1
2.7	2015_May_05_1203	s	s	2	3	SIC	441	ABS	0	1	02VD 02VO 02VC 02MD 02MO 02MC 02RD 10RO	0	1	3.17740082741	None	None	None	None	1
2.7	2015_May_05_1203	s	s	2	3	SIC	442	RC	1	2	02VD 02VO 02VC 09MD 02MO 02MC 02RD 02RO	1	0	1.52947211266	360.0	-34.0	363	-33	1
2.7	2015_May_05_1203	s	s	2	3	SIC	443	ABS	0	2	02VD 02VO 02VC 02MD 02MO 02MC 10RD 02RO	0	1	1.66791582108	None	None	None	None	1
2.7	2015_May_05_1203	s	s	2	3	SIC	444	RC	2	1	02VD 09VO 02VC 02MD 02MO 02MC 02RD 02RO	1	0	0.829314947128	-99.0	341.0	-110	341	1
2.7	2015_May_05_1203	s	s	2	3	SIC	445	RC	1	0	02VD 02VO 02VC 02MD 02MO 09MC 02RD 02RO	1	0	2.25438499451	-330.0	-230.0	-328	-234	1
2.7	2015_May_05_1203	s	s	2	3	SIC	446	ABS	2	0	02VD 02VO 10VC 02MD 02MO 02MC 02RD 02RO	0	1	2.2544708252	None	None	None	None	1
2.7	2015_May_05_1203	s	s	2	3	SIC	447	RC	2	2	09VD 02VO 02VC 02MD 02MO 02MC 02RD 02RO	1	0	0.665750026703	-280.0	210.0	-281	203	1
2.7	2015_May_05_1203	s	s	2	3	SIC	448	ABS	1	2	02VD 02VO 02VC 10MD 02MO 02MC 02RD 02RO	0	1	1.90606999397	None	None	None	None	1
2.7	2015_May_05_1203	s	s	2	3	SIC	449	RC	0	2	02VD 02VO 02VC 02MD 02MO 02MC 09RD 02RO	1	0	1.64248013496	-236.0	339.0	-243	341	1
2.7	2015_May_05_1203	s	s	2	3	SIC	450	ABS	0	1	02VD 02VO 02VC 02MD 02MO 02MC 02RD 10RO	0	1	5.11955809593	None	None	None	None	1
2.7	2015_May_05_1203	s	s	2	3	SIC	451	RC	1	1	02VD 02VO 02VC 02MD 09MO 02MC 02RD 02RO	1	0	0.750144004822	-460.0	322.0	-462	320	1
2.7	2015_May_05_1203	s	s	2	3	SIC	452	RC	1	0	02VD 02VO 02VC 02MD 02MO 09MC 02RD 02RO	1	0	0.958695888519	39.0	256.0	47	255	1
2.7	2015_May_05_1203	s	s	2	3	SIC	453	RC	2	1	02VD 09VO 02VC 02MD 02MO 02MC 02RD 02RO	1	0	0.948072910309	350.0	379.0	362	383	1
2.7	2015_May_05_1203	s	s	2	3	SIC	454	ABS	1	0	02VD 02VO 02VC 02MD 02MO 10MC 02RD 02RO	0	1	4.05645608902	None	None	None	None	1
2.7	2015_May_05_1203	s	s	2	3	SIC	455	RC	2	0	02VD 02VO 09VC 02MD 02MO 02MC 02RD 02RO	1	0	0.64441204071	362.0	246.0	364	248	1
2.7	2015_May_05_1203	s	s	2	3	SIC	456	ABS	2	2	10VD 02VO 02VC 02MD 02MO 02MC 02RD 02RO	0	1	2.00025701523	None	None	None	None	1
2.7	2015_May_05_1203	s	s	2	3	SIC	457	ABS	1	1	02VD 02VO 02VC 02MD 10MO 02MC 02RD 02RO	0	1	2.64769005775	None	None	None	None	1
2.7	2015_May_05_1203	s	s	2	3	SIC	458	ABS	2	1	02VD 10VO 02VC 02MD 02MO 02MC 02RD 02RO	0	1	1.83124399185	None	None	None	None	1
2.7	2015_May_05_1203	s	s	2	3	SIC	459	RC	1	2	02VD 02VO 02VC 09MD 02MO 02MC 02RD 02RO	1	0	1.1056330204	-181.0	-37.0	-194	-34	1
2.7	2015_May_05_1203	s	s	2	3	SIC	460	ABS	2	0	02VD 02VO 10VC 02MD 02MO 02MC 02RD 02RO	0	1	2.22386598587	None	None	None	None	1
2.7	2015_May_05_1203	s	s	2	3	SIC	461	ABS	0	2	02VD 02VO 02VC 02MD 02MO 02MC 10RD 02RO	0	1	1.87665581703	None	None	None	None	1
2.7	2015_May_05_1203	s	s	2	3	SIC	462	ABS	1	2	02VD 02VO 02VC 10MD 02MO 02MC 02RD 02RO	0	1	1.47918510437	None	None	None	None	1
2.7	2015_May_05_1203	s	s	2	3	SIC	463	RC	0	1	02VD 02VO 02VC 02MD 02MO 02MC 02RD 09RO	1	0	0.870325803757	-422.0	196.0	-427	193	1
2.7	2015_May_05_1203	s	s	2	3	SIC	464	RC	2	2	09VD 02VO 02VC 02MD 02MO 02MC 02RD 02RO	1	0	0.761275053024	120.0	32.0	122	36	1
2.7	2015_May_05_1203	s	s	2	3	SIC	465	ABS	1	0	02VD 02VO 02VC 02MD 02MO 10MC 02RD 02RO	0	1	2.07097220421	None	None	None	None	1
2.7	2015_May_05_1203	s	s	2	3	SIC	466	RC	2	1	02VD 09VO 02VC 02MD 02MO 02MC 02RD 02RO	1	0	0.611402988434	78.0	-1.0	81	6	1
2.7	2015_May_05_1203	s	s	2	3	SIC	467	ABS	1	1	02VD 02VO 02VC 02MD 10MO 02MC 02RD 02RO	0	1	2.84781980515	None	None	None	None	1
2.7	2015_May_05_1203	s	s	2	3	SIC	468	ABS	2	0	02VD 02VO 10VC 02MD 02MO 02MC 02RD 02RO	0	1	1.52948498726	None	None	None	None	1
2.7	2015_May_05_1203	s	s	2	3	SIC	469	RC	1	1	02VD 02VO 02VC 02MD 09MO 02MC 02RD 02RO	1	0	0.670279026031	199.0	146.0	203	149	1
2.7	2015_May_05_1203	s	s	2	3	SIC	470	RC	0	1	02VD 02VO 02VC 02MD 02MO 02MC 02RD 09RO	1	0	1.31218409538	176.0	-309.0	174	-313	1
2.7	2015_May_05_1203	s	s	2	3	SIC	471	ABS	2	2	10VD 02VO 02VC 02MD 02MO 02MC 02RD 02RO	0	1	1.78521084785	None	None	None	None	1
2.7	2015_May_05_1203	s	s	2	3	SIC	472	ABS	0	1	02VD 02VO 02VC 02MD 02MO 02MC 02RD 10RO	0	1	5.09312796593	None	None	None	None	1
2.7	2015_May_05_1203	s	s	2	3	SIC	473	ABS	0	2	02VD 02VO 02VC 02MD 02MO 02MC 10RD 02RO	0	1	1.60031509399	None	None	None	None	1
2.7	2015_May_05_1203	s	s	2	3	SIC	474	ABS	2	1	02VD 10VO 02VC 02MD 02MO 02MC 02RD 02RO	0	1	1.56485795975	None	None	None	None	1
2.7	2015_May_05_1203	s	s	2	3	SIC	475	ABS	1	2	02VD 02VO 02VC 10MD 02MO 02MC 02RD 02RO	0	1	1.18301105499	None	None	None	None	1
2.7	2015_May_05_1203	s	s	2	3	SIC	476	RC	2	0	02VD 02VO 09VC 02MD 02MO 02MC 02RD 02RO	1	0	1.08928918839	373.0	-388.0	375	-382	1
2.7	2015_May_05_1203	s	s	2	3	SIC	477	RC	0	2	02VD 02VO 02VC 02MD 02MO 02MC 09RD 02RO	1	0	1.1763420105	-481.0	361.0	-478	358	1
2.7	2015_May_05_1203	s	s	2	3	SIC	478	RC	1	2	02VD 02VO 02VC 09MD 02MO 02MC 02RD 02RO	1	0	1.79413104057	-227.0	-321.0	-235	-320	1
2.7	2015_May_05_1203	s	s	2	3	SIC	479	RC	1	0	02VD 02VO 02VC 02MD 02MO 09MC 02RD 02RO	1	0	0.641842842102	-24.0	261.0	-19	257	1
2.7	2015_May_05_1203	s	s	2	3	SIC	480	RC	2	2	09VD 02VO 02VC 02MD 02MO 02MC 02RD 02RO	1	0	1.54124522209	349.0	-293.0	348	-288	1
