Version	Date	Stimuli	Method	Subject	Session	Condition	Trial	Target	Channel1	Channel2	Distractors	LMouseButton	RMouseButton	RT	TargetX	TargetY	ResponseX	ResponseY	Correct
2.7	2015_May_04_1227	s	s	2	2	Capacity	1	RC	0	1	08RD 15RO	1	0	0.818109989166	-38.0	6.0	-27	7	1
2.7	2015_May_04_1227	s	s	2	2	Capacity	2	ABS	0	2	16RD 08RO	0	1	3.37745785713	None	None	None	None	1
2.7	2015_May_04_1227	s	s	2	2	Capacity	3	RC	0	2	15RD 08RO	1	0	2.18441104889	-347.0	-309.0	-345	-307	1
2.7	2015_May_04_1227	s	s	2	2	Capacity	4	ABS	0	1	08RD 16RO	0	1	4.92639708519	None	None	None	None	1
2.7	2015_May_04_1227	s	s	2	2	Capacity	5	ABS	0	2	16RD 08RO	0	1	2.92532396317	None	None	None	None	1
2.7	2015_May_04_1227	s	s	2	2	Capacity	6	RC	0	1	08RD 15RO	1	0	2.14856600761	-160.0	-245.0	-161	-240	1
2.7	2015_May_04_1227	s	s	2	2	Capacity	7	RC	0	2	15RD 08RO	1	0	1.88920211792	-522.0	313.0	-524	313	1
2.7	2015_May_04_1227	s	s	2	2	Capacity	8	ABS	0	1	08RD 16RO	0	1	4.14258408546	None	None	None	None	1
2.7	2015_May_04_1227	s	s	2	2	Capacity	9	RC	0	1	08RD 15RO	1	0	3.33941698074	175.0	307.0	185	308	1
2.7	2015_May_04_1227	s	s	2	2	Capacity	10	RC	0	2	15RD 08RO	1	0	0.830372810364	-82.0	151.0	-77	143	1
2.7	2015_May_04_1227	s	s	2	2	Capacity	11	ABS	0	1	08RD 16RO	0	1	4.23193502426	None	None	None	None	1
2.7	2015_May_04_1227	s	s	2	2	Capacity	12	ABS	0	2	16RD 08RO	0	1	2.59548807144	None	None	None	None	1
2.7	2015_May_04_1227	s	s	2	2	Capacity	13	RC	0	2	15RD 08RO	1	0	2.07095122337	427.0	164.0	426	161	1
2.7	2015_May_04_1227	s	s	2	2	Capacity	14	RC	0	1	08RD 15RO	1	0	3.6554620266	94.0	368.0	92	371	1
2.7	2015_May_04_1227	s	s	2	2	Capacity	15	ABS	0	1	08RD 16RO	0	1	6.36489677429	None	None	None	None	1
2.7	2015_May_04_1227	s	s	2	2	Capacity	16	ABS	0	2	16RD 08RO	0	1	2.39561295509	None	None	None	None	1
2.7	2015_May_04_1227	s	s	2	2	Capacity	17	RC	0	1	08RD 15RO	1	0	1.84736394882	-481.0	-392.0	-472	-391	1
2.7	2015_May_04_1227	s	s	2	2	Capacity	18	RC	0	2	15RD 08RO	1	0	2.21902799606	421.0	322.0	417	320	1
2.7	2015_May_04_1227	s	s	2	2	Capacity	19	ABS	0	1	08RD 16RO	0	1	4.55460476875	None	None	None	None	1
2.7	2015_May_04_1227	s	s	2	2	Capacity	20	ABS	0	2	16RD 08RO	0	1	2.65459489822	None	None	None	None	1
2.7	2015_May_04_1227	s	s	2	2	Capacity	21	RC	0	2	15RD 08RO	1	0	1.22349596024	-372.0	-266.0	-373	-267	1
2.7	2015_May_04_1227	s	s	2	2	Capacity	22	RC	0	1	08RD 15RO	1	0	2.52488899231	475.0	129.0	482	136	1
2.7	2015_May_04_1227	s	s	2	2	Capacity	23	ABS	0	2	16RD 08RO	0	1	2.96145105362	None	None	None	None	1
2.7	2015_May_04_1227	s	s	2	2	Capacity	24	ABS	0	1	08RD 16RO	0	1	4.02487301826	None	None	None	None	1
2.7	2015_May_04_1227	s	s	2	2	Capacity	25	RC	0	1	08RD 15RO	1	0	3.02437210083	454.0	326.0	444	328	1
2.7	2015_May_04_1227	s	s	2	2	Capacity	26	RC	0	2	15RD 08RO	1	0	1.30098104477	-357.0	-316.0	-366	-311	1
2.7	2015_May_04_1227	s	s	2	2	Capacity	27	ABS	0	2	16RD 08RO	0	1	2.65458416939	None	None	None	None	1
2.7	2015_May_04_1227	s	s	2	2	Capacity	28	ABS	0	1	08RD 16RO	0	1	4.91138410568	None	None	None	None	1
2.7	2015_May_04_1227	s	s	2	2	Capacity	29	ABS	0	1	08RD 16RO	0	1	4.78545880318	None	None	None	None	1
2.7	2015_May_04_1227	s	s	2	2	Capacity	30	RC	0	1	08RD 15RO	1	0	2.59576702118	212.0	-213.0	207	-221	1
2.7	2015_May_04_1227	s	s	2	2	Capacity	31	ABS	0	2	16RD 08RO	0	1	2.9889960289	None	None	None	None	1
2.7	2015_May_04_1227	s	s	2	2	Capacity	32	RC	0	2	15RD 08RO	1	0	1.18324494362	-421.0	129.0	-426	130	1
2.7	2015_May_04_1227	s	s	2	2	Capacity	33	ABS	0	1	08RD 16RO	0	1	5.93145704269	None	None	None	None	1
2.7	2015_May_04_1227	s	s	2	2	Capacity	34	ABS	0	2	16RD 08RO	0	1	2.37196993828	None	None	None	None	1
2.7	2015_May_04_1227	s	s	2	2	Capacity	35	RC	0	2	15RD 08RO	1	0	1.49104714394	168.0	-239.0	161	-233	1
2.7	2015_May_04_1227	s	s	2	2	Capacity	36	RC	0	1	08RD 15RO	1	0	2.03151893616	-519.0	246.0	-515	242	1
2.7	2015_May_04_1227	s	s	2	2	Capacity	37	RC	0	2	15RD 08RO	1	0	1.7059481144	350.0	-46.0	341	-50	1
2.7	2015_May_04_1227	s	s	2	2	Capacity	38	RC	0	1	08RD 15RO	0	1	4.30237984657	143.0	-150.0	None	None	0
2.7	2015_May_04_1227	s	s	2	2	Capacity	39	ABS	0	2	16RD 08RO	0	1	2.17287111282	None	None	None	None	1
2.7	2015_May_04_1227	s	s	2	2	Capacity	40	ABS	0	1	08RD 16RO	0	1	3.9728770256	None	None	None	None	1
2.7	2015_May_04_1227	s	s	2	2	Capacity	41	ABS	0	2	16RD 08RO	0	1	2.15351891518	None	None	None	None	1
2.7	2015_May_04_1227	s	s	2	2	Capacity	42	RC	0	1	08RD 15RO	1	0	1.40849399567	-227.0	396.0	-223	399	1
2.7	2015_May_04_1227	s	s	2	2	Capacity	43	RC	0	2	15RD 08RO	1	0	1.93014788628	345.0	142.0	350	137	1
2.7	2015_May_04_1227	s	s	2	2	Capacity	44	ABS	0	1	08RD 16RO	0	1	4.58993506432	None	None	None	None	1
2.7	2015_May_04_1227	s	s	2	2	Capacity	45	RC	0	1	08RD 15RO	1	0	1.47435307503	-511.0	75.0	-515	74	1
2.7	2015_May_04_1227	s	s	2	2	Capacity	46	ABS	0	1	08RD 16RO	0	1	4.51282310486	None	None	None	None	1
2.7	2015_May_04_1227	s	s	2	2	Capacity	47	ABS	0	2	16RD 08RO	0	1	2.37228298187	None	None	None	None	1
2.7	2015_May_04_1227	s	s	2	2	Capacity	48	RC	0	2	15RD 08RO	1	0	1.29407811165	-352.0	-212.0	-356	-206	1
2.7	2015_May_04_1227	s	s	2	2	Capacity	49	RC	0	1	08RD 15RO	1	0	2.12989377975	396.0	-75.0	401	-75	1
2.7	2015_May_04_1227	s	s	2	2	Capacity	50	ABS	0	1	08RD 16RO	0	1	3.69216012955	None	None	None	None	1
2.7	2015_May_04_1227	s	s	2	2	Capacity	51	RC	0	2	15RD 08RO	1	0	0.940927028656	-327.0	151.0	-332	151	1
2.7	2015_May_04_1227	s	s	2	2	Capacity	52	ABS	0	2	16RD 08RO	0	1	2.31583309174	None	None	None	None	1
2.7	2015_May_04_1227	s	s	2	2	Capacity	53	ABS	0	2	16RD 08RO	0	1	2.39558911324	None	None	None	None	1
2.7	2015_May_04_1227	s	s	2	2	Capacity	54	RC	0	2	15RD 08RO	1	0	1.842222929	265.0	-14.0	274	-13	1
2.7	2015_May_04_1227	s	s	2	2	Capacity	55	ABS	0	1	08RD 16RO	0	1	4.24854803085	None	None	None	None	1
2.7	2015_May_04_1227	s	s	2	2	Capacity	56	RC	0	1	08RD 15RO	1	0	1.65404295921	118.0	-171.0	113	-174	1
2.7	2015_May_04_1227	s	s	2	2	Capacity	57	ABS	0	1	08RD 16RO	0	1	3.51385903358	None	None	None	None	1
2.7	2015_May_04_1227	s	s	2	2	Capacity	58	RC	0	1	08RD 15RO	1	0	2.78899288177	154.0	-352.0	152	-362	1
2.7	2015_May_04_1227	s	s	2	2	Capacity	59	RC	0	2	15RD 08RO	1	0	2.96554493904	178.0	-120.0	170	-123	1
2.7	2015_May_04_1227	s	s	2	2	Capacity	60	ABS	0	2	16RD 08RO	0	1	2.38554906845	None	None	None	None	1
2.7	2015_May_04_1227	s	s	2	2	Capacity	61	RC	0	2	15RD 08RO	1	0	1.47064900398	511.0	354.0	512	351	1
2.7	2015_May_04_1227	s	s	2	2	Capacity	62	ABS	0	2	16RD 08RO	0	1	3.11360096931	None	None	None	None	1
2.7	2015_May_04_1227	s	s	2	2	Capacity	63	RC	0	1	08RD 15RO	1	0	1.34120583534	-118.0	319.0	-112	314	1
2.7	2015_May_04_1227	s	s	2	2	Capacity	64	ABS	0	1	08RD 16RO	0	1	5.00182700157	None	None	None	None	1
2.7	2015_May_04_1227	s	s	2	2	Capacity	1	RC	2	0	15VC 08MC	1	0	2.08968091011	71.0	-403.0	68	-407	1
2.7	2015_May_04_1227	s	s	2	2	Capacity	2	ABS	1	0	08VC 16MC	0	1	1.58328008652	None	None	None	None	1
2.7	2015_May_04_1227	s	s	2	2	Capacity	3	ABS	2	0	16VC 08MC	0	1	2.55985593796	None	None	None	None	1
2.7	2015_May_04_1227	s	s	2	2	Capacity	4	RC	1	0	08VC 15MC	1	0	1.2443189621	-494.0	-341.0	-503	-341	1
2.7	2015_May_04_1227	s	s	2	2	Capacity	5	ABS	1	0	08VC 16MC	0	1	3.98469305038	None	None	None	None	1
2.7	2015_May_04_1227	s	s	2	2	Capacity	6	ABS	2	0	16VC 08MC	0	1	3.10675311089	None	None	None	None	1
2.7	2015_May_04_1227	s	s	2	2	Capacity	7	RC	2	0	15VC 08MC	1	0	1.27699494362	-176.0	378.0	-180	386	1
2.7	2015_May_04_1227	s	s	2	2	Capacity	8	RC	1	0	08VC 15MC	0	1	1.04688310623	423.0	220.0	None	None	0
2.7	2015_May_04_1227	s	s	2	2	Capacity	9	ABS	2	0	16VC 08MC	0	1	2.14204597473	None	None	None	None	1
2.7	2015_May_04_1227	s	s	2	2	Capacity	10	ABS	1	0	08VC 16MC	0	1	3.68356609344	None	None	None	None	1
2.7	2015_May_04_1227	s	s	2	2	Capacity	11	RC	2	0	15VC 08MC	1	0	1.07849383354	160.0	273.0	165	282	1
2.7	2015_May_04_1227	s	s	2	2	Capacity	12	RC	1	0	08VC 15MC	1	0	1.15977811813	151.0	318.0	161	322	1
2.7	2015_May_04_1227	s	s	2	2	Capacity	13	RC	1	0	08VC 15MC	1	0	1.03305506706	-472.0	-52.0	-477	-50	1
2.7	2015_May_04_1227	s	s	2	2	Capacity	14	ABS	2	0	16VC 08MC	0	1	2.74184393883	None	None	None	None	1
2.7	2015_May_04_1227	s	s	2	2	Capacity	15	RC	2	0	15VC 08MC	1	0	1.31275892258	7.0	380.0	6	381	1
2.7	2015_May_04_1227	s	s	2	2	Capacity	16	ABS	1	0	08VC 16MC	0	1	4.49083209038	None	None	None	None	1
2.7	2015_May_04_1227	s	s	2	2	Capacity	17	RC	2	0	15VC 08MC	1	0	1.14770102501	509.0	74.0	516	69	1
2.7	2015_May_04_1227	s	s	2	2	Capacity	18	ABS	1	0	08VC 16MC	0	1	3.78461408615	None	None	None	None	1
2.7	2015_May_04_1227	s	s	2	2	Capacity	19	ABS	2	0	16VC 08MC	0	1	3.23139405251	None	None	None	None	1
2.7	2015_May_04_1227	s	s	2	2	Capacity	20	RC	1	0	08VC 15MC	1	0	1.03295016289	-475.0	248.0	-464	249	1
2.7	2015_May_04_1227	s	s	2	2	Capacity	21	RC	2	0	15VC 08MC	1	0	0.752683877945	-96.0	136.0	-90	138	1
2.7	2015_May_04_1227	s	s	2	2	Capacity	22	RC	1	0	08VC 15MC	1	0	0.769830942154	-378.0	-81.0	-372	-83	1
2.7	2015_May_04_1227	s	s	2	2	Capacity	23	ABS	2	0	16VC 08MC	0	1	2.12989902496	None	None	None	None	1
2.7	2015_May_04_1227	s	s	2	2	Capacity	24	ABS	1	0	08VC 16MC	0	1	2.81920003891	None	None	None	None	1
2.7	2015_May_04_1227	s	s	2	2	Capacity	25	RC	1	0	08VC 15MC	1	0	1.04697799683	348.0	393.0	350	398	1
2.7	2015_May_04_1227	s	s	2	2	Capacity	26	ABS	2	0	16VC 08MC	0	1	3.20792889595	None	None	None	None	1
2.7	2015_May_04_1227	s	s	2	2	Capacity	27	ABS	1	0	08VC 16MC	0	1	3.03288292885	None	None	None	None	1
2.7	2015_May_04_1227	s	s	2	2	Capacity	28	RC	2	0	15VC 08MC	1	0	0.949355125427	-297.0	-278.0	-300	-279	1
2.7	2015_May_04_1227	s	s	2	2	Capacity	29	ABS	2	0	16VC 08MC	0	1	2.42410898209	None	None	None	None	1
2.7	2015_May_04_1227	s	s	2	2	Capacity	30	RC	1	0	08VC 15MC	1	0	0.846799135208	322.0	-53.0	322	-51	1
2.7	2015_May_04_1227	s	s	2	2	Capacity	31	ABS	1	0	08VC 16MC	0	1	4.966547966	None	None	None	None	1
2.7	2015_May_04_1227	s	s	2	2	Capacity	32	RC	2	0	15VC 08MC	1	0	0.679803848267	-382.0	105.0	-383	101	1
2.7	2015_May_04_1227	s	s	2	2	Capacity	33	RC	2	0	15VC 08MC	1	0	0.944822072983	106.0	-346.0	100	-350	1
2.7	2015_May_04_1227	s	s	2	2	Capacity	34	ABS	1	0	08VC 16MC	0	1	2.75367808342	None	None	None	None	1
2.7	2015_May_04_1227	s	s	2	2	Capacity	35	RC	1	0	08VC 15MC	1	0	0.882120847702	358.0	250.0	357	245	1
2.7	2015_May_04_1227	s	s	2	2	Capacity	36	ABS	2	0	16VC 08MC	0	1	1.4775621891	None	None	None	None	1
2.7	2015_May_04_1227	s	s	2	2	Capacity	37	RC	1	0	08VC 15MC	1	0	0.987997770309	308.0	143.0	312	140	1
2.7	2015_May_04_1227	s	s	2	2	Capacity	38	ABS	2	0	16VC 08MC	0	1	2.73936200142	None	None	None	None	1
2.7	2015_May_04_1227	s	s	2	2	Capacity	39	ABS	1	0	08VC 16MC	0	1	2.91357398033	None	None	None	None	1
2.7	2015_May_04_1227	s	s	2	2	Capacity	40	RC	2	0	15VC 08MC	1	0	1.14800810814	492.0	-268.0	485	-274	1
2.7	2015_May_04_1227	s	s	2	2	Capacity	41	ABS	1	0	08VC 16MC	0	1	2.99289083481	None	None	None	None	1
2.7	2015_May_04_1227	s	s	2	2	Capacity	42	RC	2	0	15VC 08MC	1	0	0.715073823929	111.0	354.0	106	356	1
2.7	2015_May_04_1227	s	s	2	2	Capacity	43	RC	1	0	08VC 15MC	1	0	0.858556032181	118.0	22.0	120	29	1
2.7	2015_May_04_1227	s	s	2	2	Capacity	44	ABS	2	0	16VC 08MC	0	1	1.71291184425	None	None	None	None	1
2.7	2015_May_04_1227	s	s	2	2	Capacity	45	ABS	1	0	08VC 16MC	0	1	2.69153308868	None	None	None	None	1
2.7	2015_May_04_1227	s	s	2	2	Capacity	46	ABS	2	0	16VC 08MC	0	1	2.35383415222	None	None	None	None	1
2.7	2015_May_04_1227	s	s	2	2	Capacity	47	RC	1	0	08VC 15MC	1	0	2.08264493942	418.0	-239.0	426	-234	1
2.7	2015_May_04_1227	s	s	2	2	Capacity	48	RC	2	0	15VC 08MC	1	0	0.823229789734	169.0	-396.0	182	-393	1
2.7	2015_May_04_1227	s	s	2	2	Capacity	49	ABS	2	0	16VC 08MC	0	1	4.23188185692	None	None	None	None	1
2.7	2015_May_04_1227	s	s	2	2	Capacity	50	RC	1	0	08VC 15MC	1	0	0.934692144394	185.0	54.0	187	49	1
2.7	2015_May_04_1227	s	s	2	2	Capacity	51	ABS	1	0	08VC 16MC	0	1	5.76675701141	None	None	None	None	1
2.7	2015_May_04_1227	s	s	2	2	Capacity	52	RC	2	0	15VC 08MC	1	0	1.2117202282	535.0	-345.0	532	-344	1
2.7	2015_May_04_1227	s	s	2	2	Capacity	53	RC	2	0	15VC 08MC	1	0	1.12142896652	493.0	386.0	488	386	1
2.7	2015_May_04_1227	s	s	2	2	Capacity	54	ABS	2	0	16VC 08MC	0	1	2.30637598038	None	None	None	None	1
2.7	2015_May_04_1227	s	s	2	2	Capacity	55	ABS	1	0	08VC 16MC	0	1	2.40060305595	None	None	None	None	1
2.7	2015_May_04_1227	s	s	2	2	Capacity	56	RC	1	0	08VC 15MC	1	0	0.877855062485	-399.0	232.0	-398	234	1
2.7	2015_May_04_1227	s	s	2	2	Capacity	57	RC	2	0	15VC 08MC	1	0	0.79493188858	-32.0	-315.0	-25	-309	1
2.7	2015_May_04_1227	s	s	2	2	Capacity	58	RC	1	0	08VC 15MC	1	0	1.45368409157	5.0	-268.0	3	-263	1
2.7	2015_May_04_1227	s	s	2	2	Capacity	59	ABS	1	0	08VC 16MC	0	1	4.82021403313	None	None	None	None	1
2.7	2015_May_04_1227	s	s	2	2	Capacity	60	ABS	2	0	16VC 08MC	0	1	2.49466705322	None	None	None	None	1
2.7	2015_May_04_1227	s	s	2	2	Capacity	61	ABS	1	0	08VC 16MC	0	1	7.66891384125	None	None	None	None	1
2.7	2015_May_04_1227	s	s	2	2	Capacity	62	RC	1	0	08VC 15MC	1	0	0.680016040802	-234.0	-58.0	-234	-61	1
2.7	2015_May_04_1227	s	s	2	2	Capacity	63	RC	2	0	15VC 08MC	1	0	3.16080498695	-371.0	-316.0	-374	-311	1
2.7	2015_May_04_1227	s	s	2	2	Capacity	64	ABS	2	0	16VC 08MC	0	1	1.87777686119	None	None	None	None	1
2.7	2015_May_04_1227	s	s	2	2	SIC	1	ABS	2	1	02VD 10VO 02VC 02MD 02MO 02MC 02RD 02RO	1	0	0.846843957901	None	None	56	187	0
2.7	2015_May_04_1227	s	s	2	2	SIC	2	ABS	2	0	02VD 02VO 10VC 02MD 02MO 02MC 02RD 02RO	0	1	3.95431804657	None	None	None	None	1
2.7	2015_May_04_1227	s	s	2	2	SIC	3	ABS	1	0	02VD 02VO 02VC 02MD 02MO 10MC 02RD 02RO	0	1	3.77297401428	None	None	None	None	1
2.7	2015_May_04_1227	s	s	2	2	SIC	4	RC	2	2	09VD 02VO 02VC 02MD 02MO 02MC 02RD 02RO	1	0	0.924378156662	-186.0	-89.0	-184	-86	1
2.7	2015_May_04_1227	s	s	2	2	SIC	5	ABS	1	2	02VD 02VO 02VC 10MD 02MO 02MC 02RD 02RO	0	1	2.53694987297	None	None	None	None	1
2.7	2015_May_04_1227	s	s	2	2	SIC	6	ABS	2	2	10VD 02VO 02VC 02MD 02MO 02MC 02RD 02RO	0	1	1.941437006	None	None	None	None	1
2.7	2015_May_04_1227	s	s	2	2	SIC	7	RC	2	1	02VD 09VO 02VC 02MD 02MO 02MC 02RD 02RO	1	0	0.76438999176	72.0	-5.0	74	-8	1
2.7	2015_May_04_1227	s	s	2	2	SIC	8	ABS	0	1	02VD 02VO 02VC 02MD 02MO 02MC 02RD 10RO	0	1	3.70461821556	None	None	None	None	1
2.7	2015_May_04_1227	s	s	2	2	SIC	9	RC	2	0	02VD 02VO 09VC 02MD 02MO 02MC 02RD 02RO	1	0	0.634990215302	-149.0	125.0	-152	126	1
2.7	2015_May_04_1227	s	s	2	2	SIC	10	ABS	1	1	02VD 02VO 02VC 02MD 10MO 02MC 02RD 02RO	0	1	4.38494610786	None	None	None	None	1
2.7	2015_May_04_1227	s	s	2	2	SIC	11	ABS	0	2	02VD 02VO 02VC 02MD 02MO 02MC 10RD 02RO	0	1	2.15948414803	None	None	None	None	1
2.7	2015_May_04_1227	s	s	2	2	SIC	12	RC	1	1	02VD 02VO 02VC 02MD 09MO 02MC 02RD 02RO	1	0	0.788178920746	-306.0	172.0	-309	172	1
2.7	2015_May_04_1227	s	s	2	2	SIC	13	RC	1	0	02VD 02VO 02VC 02MD 02MO 09MC 02RD 02RO	1	0	2.82223391533	-72.0	-363.0	-80	-361	1
2.7	2015_May_04_1227	s	s	2	2	SIC	14	RC	0	1	02VD 02VO 02VC 02MD 02MO 02MC 02RD 09RO	1	0	1.75699114799	305.0	13.0	311	20	1
2.7	2015_May_04_1227	s	s	2	2	SIC	15	RC	0	2	02VD 02VO 02VC 02MD 02MO 02MC 09RD 02RO	1	0	1.72529816628	323.0	-314.0	327	-313	1
2.7	2015_May_04_1227	s	s	2	2	SIC	16	RC	1	2	02VD 02VO 02VC 09MD 02MO 02MC 02RD 02RO	1	0	1.47061491013	312.0	403.0	309	397	1
2.7	2015_May_04_1227	s	s	2	2	SIC	17	ABS	2	0	02VD 02VO 10VC 02MD 02MO 02MC 02RD 02RO	0	1	2.31311297417	None	None	None	None	1
2.7	2015_May_04_1227	s	s	2	2	SIC	18	ABS	0	1	02VD 02VO 02VC 02MD 02MO 02MC 02RD 10RO	0	1	4.01303601265	None	None	None	None	1
2.7	2015_May_04_1227	s	s	2	2	SIC	19	ABS	1	0	02VD 02VO 02VC 02MD 02MO 10MC 02RD 02RO	0	1	3.64899611473	None	None	None	None	1
2.7	2015_May_04_1227	s	s	2	2	SIC	20	RC	1	1	02VD 02VO 02VC 02MD 09MO 02MC 02RD 02RO	1	0	1.01155114174	110.0	-141.0	113	-136	1
2.7	2015_May_04_1227	s	s	2	2	SIC	21	RC	1	2	02VD 02VO 02VC 09MD 02MO 02MC 02RD 02RO	1	0	0.915332794189	-182.0	305.0	-177	301	1
2.7	2015_May_04_1227	s	s	2	2	SIC	22	RC	2	0	02VD 02VO 09VC 02MD 02MO 02MC 02RD 02RO	1	0	2.10625815392	-246.0	-333.0	-239	-332	1
2.7	2015_May_04_1227	s	s	2	2	SIC	23	RC	2	2	09VD 02VO 02VC 02MD 02MO 02MC 02RD 02RO	1	0	0.881984949112	-405.0	378.0	-402	380	1
2.7	2015_May_04_1227	s	s	2	2	SIC	24	ABS	1	2	02VD 02VO 02VC 10MD 02MO 02MC 02RD 02RO	0	1	2.96557283401	None	None	None	None	1
2.7	2015_May_04_1227	s	s	2	2	SIC	25	RC	0	2	02VD 02VO 02VC 02MD 02MO 02MC 09RD 02RO	1	0	1.17227005959	-116.0	-301.0	-120	-299	1
2.7	2015_May_04_1227	s	s	2	2	SIC	26	RC	0	1	02VD 02VO 02VC 02MD 02MO 02MC 02RD 09RO	1	0	1.31764483452	381.0	306.0	375	313	1
2.7	2015_May_04_1227	s	s	2	2	SIC	27	RC	2	1	02VD 09VO 02VC 02MD 02MO 02MC 02RD 02RO	1	0	1.54158401489	-201.0	332.0	-207	325	1
2.7	2015_May_04_1227	s	s	2	2	SIC	28	ABS	0	2	02VD 02VO 02VC 02MD 02MO 02MC 10RD 02RO	0	1	2.92230200768	None	None	None	None	1
2.7	2015_May_04_1227	s	s	2	2	SIC	29	ABS	1	1	02VD 02VO 02VC 02MD 10MO 02MC 02RD 02RO	0	1	2.58884215355	None	None	None	None	1
2.7	2015_May_04_1227	s	s	2	2	SIC	30	ABS	2	2	10VD 02VO 02VC 02MD 02MO 02MC 02RD 02RO	0	1	1.81865286827	None	None	None	None	1
2.7	2015_May_04_1227	s	s	2	2	SIC	31	RC	1	0	02VD 02VO 02VC 02MD 02MO 09MC 02RD 02RO	1	0	2.3415620327	424.0	-365.0	425	-361	1
2.7	2015_May_04_1227	s	s	2	2	SIC	32	ABS	2	1	02VD 10VO 02VC 02MD 02MO 02MC 02RD 02RO	0	1	2.11800503731	None	None	None	None	1
2.7	2015_May_04_1227	s	s	2	2	SIC	33	RC	2	2	09VD 02VO 02VC 02MD 02MO 02MC 02RD 02RO	1	0	1.75083899498	441.0	187.0	431	194	1
2.7	2015_May_04_1227	s	s	2	2	SIC	34	ABS	1	0	02VD 02VO 02VC 02MD 02MO 10MC 02RD 02RO	0	1	3.36559700966	None	None	None	None	1
2.7	2015_May_04_1227	s	s	2	2	SIC	35	ABS	1	1	02VD 02VO 02VC 02MD 10MO 02MC 02RD 02RO	0	1	2.68300199509	None	None	None	None	1
2.7	2015_May_04_1227	s	s	2	2	SIC	36	RC	0	1	02VD 02VO 02VC 02MD 02MO 02MC 02RD 09RO	1	0	1.14796590805	232.0	193.0	227	192	1
2.7	2015_May_04_1227	s	s	2	2	SIC	37	ABS	2	2	10VD 02VO 02VC 02MD 02MO 02MC 02RD 02RO	0	1	2.50093102455	None	None	None	None	1
2.7	2015_May_04_1227	s	s	2	2	SIC	38	ABS	1	2	02VD 02VO 02VC 10MD 02MO 02MC 02RD 02RO	0	1	2.22783398628	None	None	None	None	1
2.7	2015_May_04_1227	s	s	2	2	SIC	39	RC	1	1	02VD 02VO 02VC 02MD 09MO 02MC 02RD 02RO	1	0	1.64723205566	407.0	351.0	399	345	1
2.7	2015_May_04_1227	s	s	2	2	SIC	40	RC	2	0	02VD 02VO 09VC 02MD 02MO 02MC 02RD 02RO	1	0	0.862407922745	-329.0	312.0	-338	315	1
2.7	2015_May_04_1227	s	s	2	2	SIC	41	RC	1	2	02VD 02VO 02VC 09MD 02MO 02MC 02RD 02RO	1	0	1.00540685654	-350.0	-64.0	-353	-58	1
2.7	2015_May_04_1227	s	s	2	2	SIC	42	ABS	2	1	02VD 10VO 02VC 02MD 02MO 02MC 02RD 02RO	0	1	1.99530410767	None	None	None	None	1
2.7	2015_May_04_1227	s	s	2	2	SIC	43	RC	0	2	02VD 02VO 02VC 02MD 02MO 02MC 09RD 02RO	1	0	1.37163805962	252.0	230.0	251	234	1
2.7	2015_May_04_1227	s	s	2	2	SIC	44	ABS	0	1	02VD 02VO 02VC 02MD 02MO 02MC 02RD 10RO	0	1	3.43110799789	None	None	None	None	1
2.7	2015_May_04_1227	s	s	2	2	SIC	45	RC	2	1	02VD 09VO 02VC 02MD 02MO 02MC 02RD 02RO	1	0	0.688952922821	-119.0	63.0	-120	66	1
2.7	2015_May_04_1227	s	s	2	2	SIC	46	ABS	0	2	02VD 02VO 02VC 02MD 02MO 02MC 10RD 02RO	0	1	2.33953595161	None	None	None	None	1
2.7	2015_May_04_1227	s	s	2	2	SIC	47	RC	1	0	02VD 02VO 02VC 02MD 02MO 09MC 02RD 02RO	1	0	1.0116288662	-256.0	40.0	-248	36	1
2.7	2015_May_04_1227	s	s	2	2	SIC	48	ABS	2	0	02VD 02VO 10VC 02MD 02MO 02MC 02RD 02RO	0	1	2.02421689034	None	None	None	None	1
2.7	2015_May_04_1227	s	s	2	2	SIC	49	ABS	2	2	10VD 02VO 02VC 02MD 02MO 02MC 02RD 02RO	0	1	1.7766289711	None	None	None	None	1
2.7	2015_May_04_1227	s	s	2	2	SIC	50	RC	2	0	02VD 02VO 09VC 02MD 02MO 02MC 02RD 02RO	1	0	0.912578821182	-271.0	-119.0	-278	-126	1
2.7	2015_May_04_1227	s	s	2	2	SIC	51	RC	0	1	02VD 02VO 02VC 02MD 02MO 02MC 02RD 09RO	1	0	0.634907007217	-13.0	0.0	-7	-4	1
2.7	2015_May_04_1227	s	s	2	2	SIC	52	ABS	2	1	02VD 10VO 02VC 02MD 02MO 02MC 02RD 02RO	0	1	1.96003293991	None	None	None	None	1
2.7	2015_May_04_1227	s	s	2	2	SIC	53	ABS	0	1	02VD 02VO 02VC 02MD 02MO 02MC 02RD 10RO	0	1	3.83657884598	None	None	None	None	1
2.7	2015_May_04_1227	s	s	2	2	SIC	54	RC	1	1	02VD 02VO 02VC 02MD 09MO 02MC 02RD 02RO	1	0	1.47757697105	301.0	359.0	296	354	1
2.7	2015_May_04_1227	s	s	2	2	SIC	55	ABS	0	2	02VD 02VO 02VC 02MD 02MO 02MC 10RD 02RO	0	1	1.67077279091	None	None	None	None	1
2.7	2015_May_04_1227	s	s	2	2	SIC	56	ABS	1	0	02VD 02VO 02VC 02MD 02MO 10MC 02RD 02RO	0	1	4.00818705559	None	None	None	None	1
2.7	2015_May_04_1227	s	s	2	2	SIC	57	RC	1	0	02VD 02VO 02VC 02MD 02MO 09MC 02RD 02RO	1	0	1.79529213905	-430.0	-233.0	-434	-224	1
2.7	2015_May_04_1227	s	s	2	2	SIC	58	RC	2	1	02VD 09VO 02VC 02MD 02MO 02MC 02RD 02RO	1	0	0.787919044495	-170.0	90.0	-182	97	1
2.7	2015_May_04_1227	s	s	2	2	SIC	59	ABS	1	1	02VD 02VO 02VC 02MD 10MO 02MC 02RD 02RO	0	1	2.90453004837	None	None	None	None	1
2.7	2015_May_04_1227	s	s	2	2	SIC	60	ABS	1	2	02VD 02VO 02VC 10MD 02MO 02MC 02RD 02RO	0	1	1.88264393806	None	None	None	None	1
2.7	2015_May_04_1227	s	s	2	2	SIC	61	RC	1	2	02VD 02VO 02VC 09MD 02MO 02MC 02RD 02RO	1	0	1.44224500656	-405.0	392.0	-414	389	1
2.7	2015_May_04_1227	s	s	2	2	SIC	62	RC	0	2	02VD 02VO 02VC 02MD 02MO 02MC 09RD 02RO	1	0	0.818917989731	-203.0	85.0	-193	89	1
2.7	2015_May_04_1227	s	s	2	2	SIC	63	ABS	2	0	02VD 02VO 10VC 02MD 02MO 02MC 02RD 02RO	0	1	2.2592689991	None	None	None	None	1
2.7	2015_May_04_1227	s	s	2	2	SIC	64	RC	2	2	09VD 02VO 02VC 02MD 02MO 02MC 02RD 02RO	1	0	1.67985296249	226.0	-285.0	227	-287	1
2.7	2015_May_04_1227	s	s	2	2	SIC	65	ABS	2	2	10VD 02VO 02VC 02MD 02MO 02MC 02RD 02RO	0	1	2.64284586906	None	None	None	None	1
2.7	2015_May_04_1227	s	s	2	2	SIC	66	ABS	1	2	02VD 02VO 02VC 10MD 02MO 02MC 02RD 02RO	0	1	2.31280303001	None	None	None	None	1
2.7	2015_May_04_1227	s	s	2	2	SIC	67	RC	0	2	02VD 02VO 02VC 02MD 02MO 02MC 09RD 02RO	1	0	0.9174721241	-286.0	-95.0	-283	-90	1
2.7	2015_May_04_1227	s	s	2	2	SIC	68	RC	1	1	02VD 02VO 02VC 02MD 09MO 02MC 02RD 02RO	1	0	1.72547197342	478.0	295.0	480	291	1
2.7	2015_May_04_1227	s	s	2	2	SIC	69	RC	2	0	02VD 02VO 09VC 02MD 02MO 02MC 02RD 02RO	1	0	2.59658122063	501.0	-305.0	506	-297	1
2.7	2015_May_04_1227	s	s	2	2	SIC	70	RC	2	1	02VD 09VO 02VC 02MD 02MO 02MC 02RD 02RO	1	0	1.43048810959	473.0	97.0	467	101	1
2.7	2015_May_04_1227	s	s	2	2	SIC	71	RC	1	0	02VD 02VO 02VC 02MD 02MO 09MC 02RD 02RO	1	0	0.761785030365	-63.0	113.0	-66	104	1
2.7	2015_May_04_1227	s	s	2	2	SIC	72	ABS	1	0	02VD 02VO 02VC 02MD 02MO 10MC 02RD 02RO	0	1	3.66708898544	None	None	None	None	1
2.7	2015_May_04_1227	s	s	2	2	SIC	73	ABS	0	1	02VD 02VO 02VC 02MD 02MO 02MC 02RD 10RO	0	1	3.5187189579	None	None	None	None	1
2.7	2015_May_04_1227	s	s	2	2	SIC	74	RC	0	1	02VD 02VO 02VC 02MD 02MO 02MC 02RD 09RO	1	0	2.52998900414	-306.0	-196.0	-306	-196	1
2.7	2015_May_04_1227	s	s	2	2	SIC	75	ABS	1	1	02VD 02VO 02VC 02MD 10MO 02MC 02RD 02RO	0	1	2.97721409798	None	None	None	None	1
2.7	2015_May_04_1227	s	s	2	2	SIC	76	ABS	0	2	02VD 02VO 02VC 02MD 02MO 02MC 10RD 02RO	0	1	2.07142996788	None	None	None	None	1
2.7	2015_May_04_1227	s	s	2	2	SIC	77	ABS	2	1	02VD 10VO 02VC 02MD 02MO 02MC 02RD 02RO	0	1	2.2678000927	None	None	None	None	1
2.7	2015_May_04_1227	s	s	2	2	SIC	78	ABS	2	0	02VD 02VO 10VC 02MD 02MO 02MC 02RD 02RO	0	1	2.25181794167	None	None	None	None	1
2.7	2015_May_04_1227	s	s	2	2	SIC	79	RC	2	2	09VD 02VO 02VC 02MD 02MO 02MC 02RD 02RO	1	0	1.05528879166	-64.0	-190.0	-61	-190	1
2.7	2015_May_04_1227	s	s	2	2	SIC	80	RC	1	2	02VD 02VO 02VC 09MD 02MO 02MC 02RD 02RO	1	0	1.2470510006	-396.0	52.0	-395	46	1
2.7	2015_May_04_1227	s	s	2	2	SIC	81	ABS	0	2	02VD 02VO 02VC 02MD 02MO 02MC 10RD 02RO	0	1	2.50165891647	None	None	None	None	1
2.7	2015_May_04_1227	s	s	2	2	SIC	82	RC	2	1	02VD 09VO 02VC 02MD 02MO 02MC 02RD 02RO	1	0	1.26784992218	358.0	110.0	354	117	1
2.7	2015_May_04_1227	s	s	2	2	SIC	83	ABS	2	1	02VD 10VO 02VC 02MD 02MO 02MC 02RD 02RO	0	1	2.50648999214	None	None	None	None	1
2.7	2015_May_04_1227	s	s	2	2	SIC	84	ABS	1	1	02VD 02VO 02VC 02MD 10MO 02MC 02RD 02RO	0	1	2.8007478714	None	None	None	None	1
2.7	2015_May_04_1227	s	s	2	2	SIC	85	ABS	1	0	02VD 02VO 02VC 02MD 02MO 10MC 02RD 02RO	0	1	2.27492594719	None	None	None	None	1
2.7	2015_May_04_1227	s	s	2	2	SIC	86	RC	1	2	02VD 02VO 02VC 09MD 02MO 02MC 02RD 02RO	1	0	0.846844911575	-391.0	156.0	-386	160	1
2.7	2015_May_04_1227	s	s	2	2	SIC	87	ABS	2	0	02VD 02VO 10VC 02MD 02MO 02MC 02RD 02RO	0	1	1.79701304436	None	None	None	None	1
2.7	2015_May_04_1227	s	s	2	2	SIC	88	RC	0	1	02VD 02VO 02VC 02MD 02MO 02MC 02RD 09RO	1	0	3.56109809875	475.0	-103.0	480	-102	1
2.7	2015_May_04_1227	s	s	2	2	SIC	89	RC	2	2	09VD 02VO 02VC 02MD 02MO 02MC 02RD 02RO	1	0	1.58842206001	435.0	54.0	441	56	1
2.7	2015_May_04_1227	s	s	2	2	SIC	90	RC	2	0	02VD 02VO 09VC 02MD 02MO 02MC 02RD 02RO	1	0	0.783497810364	-42.0	-182.0	-47	-182	1
2.7	2015_May_04_1227	s	s	2	2	SIC	91	ABS	0	1	02VD 02VO 02VC 02MD 02MO 02MC 02RD 10RO	0	1	3.1537270546	None	None	None	None	1
2.7	2015_May_04_1227	s	s	2	2	SIC	92	RC	0	2	02VD 02VO 02VC 02MD 02MO 02MC 09RD 02RO	1	0	0.658649921417	-335.0	57.0	-337	54	1
2.7	2015_May_04_1227	s	s	2	2	SIC	93	RC	1	0	02VD 02VO 02VC 02MD 02MO 09MC 02RD 02RO	1	0	1.19617915154	-292.0	362.0	-284	365	1
2.7	2015_May_04_1227	s	s	2	2	SIC	94	ABS	1	2	02VD 02VO 02VC 10MD 02MO 02MC 02RD 02RO	0	1	1.35996699333	None	None	None	None	1
2.7	2015_May_04_1227	s	s	2	2	SIC	95	RC	1	1	02VD 02VO 02VC 02MD 09MO 02MC 02RD 02RO	1	0	1.28282022476	-529.0	-357.0	-527	-354	1
2.7	2015_May_04_1227	s	s	2	2	SIC	96	ABS	2	2	10VD 02VO 02VC 02MD 02MO 02MC 02RD 02RO	0	1	1.52451300621	None	None	None	None	1
2.7	2015_May_04_1227	s	s	2	2	SIC	97	ABS	0	2	02VD 02VO 02VC 02MD 02MO 02MC 10RD 02RO	0	1	2.30638408661	None	None	None	None	1
2.7	2015_May_04_1227	s	s	2	2	SIC	98	RC	1	1	02VD 02VO 02VC 02MD 09MO 02MC 02RD 02RO	1	0	0.771758794785	-294.0	256.0	-296	263	1
2.7	2015_May_04_1227	s	s	2	2	SIC	99	RC	2	0	02VD 02VO 09VC 02MD 02MO 02MC 02RD 02RO	1	0	0.594058036804	-68.0	43.0	-61	42	1
2.7	2015_May_04_1227	s	s	2	2	SIC	100	RC	0	1	02VD 02VO 02VC 02MD 02MO 02MC 02RD 09RO	1	0	1.91796398163	298.0	-347.0	289	-351	1
2.7	2015_May_04_1227	s	s	2	2	SIC	101	ABS	1	1	02VD 02VO 02VC 02MD 10MO 02MC 02RD 02RO	0	1	1.83569598198	None	None	None	None	1
2.7	2015_May_04_1227	s	s	2	2	SIC	102	ABS	2	0	02VD 02VO 10VC 02MD 02MO 02MC 02RD 02RO	0	1	1.52952599525	None	None	None	None	1
2.7	2015_May_04_1227	s	s	2	2	SIC	103	ABS	1	0	02VD 02VO 02VC 02MD 02MO 10MC 02RD 02RO	0	1	2.48292398453	None	None	None	None	1
2.7	2015_May_04_1227	s	s	2	2	SIC	104	RC	2	2	09VD 02VO 02VC 02MD 02MO 02MC 02RD 02RO	1	0	0.74951505661	-143.0	147.0	-143	153	1
2.7	2015_May_04_1227	s	s	2	2	SIC	105	RC	1	2	02VD 02VO 02VC 09MD 02MO 02MC 02RD 02RO	0	1	2.10238289833	-494.0	-167.0	None	None	0
2.7	2015_May_04_1227	s	s	2	2	SIC	106	ABS	0	1	02VD 02VO 02VC 02MD 02MO 02MC 02RD 10RO	0	1	3.20097398758	None	None	None	None	1
2.7	2015_May_04_1227	s	s	2	2	SIC	107	RC	1	0	02VD 02VO 02VC 02MD 02MO 09MC 02RD 02RO	1	0	0.788073062897	-499.0	99.0	-506	92	1
2.7	2015_May_04_1227	s	s	2	2	SIC	108	RC	0	2	02VD 02VO 02VC 02MD 02MO 02MC 09RD 02RO	1	0	1.09397101402	-319.0	-224.0	-329	-225	1
2.7	2015_May_04_1227	s	s	2	2	SIC	109	ABS	2	1	02VD 10VO 02VC 02MD 02MO 02MC 02RD 02RO	0	1	1.89430594444	None	None	None	None	1
2.7	2015_May_04_1227	s	s	2	2	SIC	110	ABS	1	2	02VD 02VO 02VC 10MD 02MO 02MC 02RD 02RO	0	1	1.50270199776	None	None	None	None	1
2.7	2015_May_04_1227	s	s	2	2	SIC	111	ABS	2	2	10VD 02VO 02VC 02MD 02MO 02MC 02RD 02RO	0	1	1.4706890583	None	None	None	None	1
2.7	2015_May_04_1227	s	s	2	2	SIC	112	RC	2	1	02VD 09VO 02VC 02MD 02MO 02MC 02RD 02RO	1	0	1.44235897064	159.0	-147.0	160	-141	1
2.7	2015_May_04_1227	s	s	2	2	SIC	113	RC	0	1	02VD 02VO 02VC 02MD 02MO 02MC 02RD 09RO	1	0	2.78495788574	-110.0	-234.0	-97	-228	1
2.7	2015_May_04_1227	s	s	2	2	SIC	114	RC	1	1	02VD 02VO 02VC 02MD 09MO 02MC 02RD 02RO	1	0	1.38834881783	144.0	271.0	148	276	1
2.7	2015_May_04_1227	s	s	2	2	SIC	115	ABS	2	1	02VD 10VO 02VC 02MD 02MO 02MC 02RD 02RO	0	1	2.0592110157	None	None	None	None	1
2.7	2015_May_04_1227	s	s	2	2	SIC	116	ABS	1	0	02VD 02VO 02VC 02MD 02MO 10MC 02RD 02RO	0	1	5.22066998482	None	None	None	None	1
2.7	2015_May_04_1227	s	s	2	2	SIC	117	RC	2	2	09VD 02VO 02VC 02MD 02MO 02MC 02RD 02RO	1	0	1.89083313942	-107.0	-354.0	-107	-352	1
2.7	2015_May_04_1227	s	s	2	2	SIC	118	ABS	1	2	02VD 02VO 02VC 10MD 02MO 02MC 02RD 02RO	0	1	1.32943201065	None	None	None	None	1
2.7	2015_May_04_1227	s	s	2	2	SIC	119	ABS	2	2	10VD 02VO 02VC 02MD 02MO 02MC 02RD 02RO	0	1	1.85901999474	None	None	None	None	1
2.7	2015_May_04_1227	s	s	2	2	SIC	120	RC	2	0	02VD 02VO 09VC 02MD 02MO 02MC 02RD 02RO	1	0	0.807853221893	-24.0	153.0	-13	158	1
2.7	2015_May_04_1227	s	s	2	2	SIC	121	RC	1	0	02VD 02VO 02VC 02MD 02MO 09MC 02RD 02RO	1	0	2.91386008263	-455.0	-89.0	-453	-89	1
2.7	2015_May_04_1227	s	s	2	2	SIC	122	ABS	0	1	02VD 02VO 02VC 02MD 02MO 02MC 02RD 10RO	0	1	3.15388202667	None	None	None	None	1
2.7	2015_May_04_1227	s	s	2	2	SIC	123	ABS	1	1	02VD 02VO 02VC 02MD 10MO 02MC 02RD 02RO	0	1	3.38930010796	None	None	None	None	1
2.7	2015_May_04_1227	s	s	2	2	SIC	124	ABS	2	0	02VD 02VO 10VC 02MD 02MO 02MC 02RD 02RO	1	0	0.912444829941	None	None	-183	-349	0
2.7	2015_May_04_1227	s	s	2	2	SIC	125	ABS	0	2	02VD 02VO 02VC 02MD 02MO 02MC 10RD 02RO	0	1	2.7016620636	None	None	None	None	1
2.7	2015_May_04_1227	s	s	2	2	SIC	126	RC	2	1	02VD 09VO 02VC 02MD 02MO 02MC 02RD 02RO	1	0	1.56473493576	-512.0	-109.0	-502	-106	1
2.7	2015_May_04_1227	s	s	2	2	SIC	127	RC	0	2	02VD 02VO 02VC 02MD 02MO 02MC 09RD 02RO	1	0	1.31362986565	-413.0	174.0	-422	170	1
2.7	2015_May_04_1227	s	s	2	2	SIC	128	RC	1	2	02VD 02VO 02VC 09MD 02MO 02MC 02RD 02RO	1	0	1.11746311188	-378.0	-172.0	-385	-172	1
2.7	2015_May_04_1227	s	s	2	2	SIC	129	ABS	2	2	10VD 02VO 02VC 02MD 02MO 02MC 02RD 02RO	0	1	2.2779378891	None	None	None	None	1
2.7	2015_May_04_1227	s	s	2	2	SIC	130	ABS	0	1	02VD 02VO 02VC 02MD 02MO 02MC 02RD 10RO	0	1	2.96072888374	None	None	None	None	1
2.7	2015_May_04_1227	s	s	2	2	SIC	131	RC	1	1	02VD 02VO 02VC 02MD 09MO 02MC 02RD 02RO	1	0	1.68945193291	330.0	-106.0	337	-108	1
2.7	2015_May_04_1227	s	s	2	2	SIC	132	ABS	1	0	02VD 02VO 02VC 02MD 02MO 10MC 02RD 02RO	0	1	3.37755322456	None	None	None	None	1
2.7	2015_May_04_1227	s	s	2	2	SIC	133	ABS	2	1	02VD 10VO 02VC 02MD 02MO 02MC 02RD 02RO	0	1	2.02773308754	None	None	None	None	1
2.7	2015_May_04_1227	s	s	2	2	SIC	134	RC	2	0	02VD 02VO 09VC 02MD 02MO 02MC 02RD 02RO	1	0	1.50111985207	13.0	-160.0	9	-157	1
2.7	2015_May_04_1227	s	s	2	2	SIC	135	ABS	1	2	02VD 02VO 02VC 10MD 02MO 02MC 02RD 02RO	0	1	2.20041418076	None	None	None	None	1
2.7	2015_May_04_1227	s	s	2	2	SIC	136	RC	2	1	02VD 09VO 02VC 02MD 02MO 02MC 02RD 02RO	1	0	0.830203056335	-347.0	119.0	-350	107	1
2.7	2015_May_04_1227	s	s	2	2	SIC	137	ABS	2	0	02VD 02VO 10VC 02MD 02MO 02MC 02RD 02RO	0	1	1.97365403175	None	None	None	None	1
2.7	2015_May_04_1227	s	s	2	2	SIC	138	ABS	1	1	02VD 02VO 02VC 02MD 10MO 02MC 02RD 02RO	0	1	4.59677815437	None	None	None	None	1
2.7	2015_May_04_1227	s	s	2	2	SIC	139	RC	0	1	02VD 02VO 02VC 02MD 02MO 02MC 02RD 09RO	1	0	1.51776003838	-340.0	-318.0	-335	-321	1
2.7	2015_May_04_1227	s	s	2	2	SIC	140	RC	1	0	02VD 02VO 02VC 02MD 02MO 09MC 02RD 02RO	1	0	1.31747508049	-161.0	350.0	-161	342	1
2.7	2015_May_04_1227	s	s	2	2	SIC	141	RC	0	2	02VD 02VO 02VC 02MD 02MO 02MC 09RD 02RO	1	0	0.97242307663	-252.0	350.0	-257	351	1
2.7	2015_May_04_1227	s	s	2	2	SIC	142	RC	2	2	09VD 02VO 02VC 02MD 02MO 02MC 02RD 02RO	1	0	1.17641210556	473.0	24.0	473	22	1
2.7	2015_May_04_1227	s	s	2	2	SIC	143	ABS	0	2	02VD 02VO 02VC 02MD 02MO 02MC 10RD 02RO	0	1	4.23198890686	None	None	None	None	1
2.7	2015_May_04_1227	s	s	2	2	SIC	144	RC	1	2	02VD 02VO 02VC 09MD 02MO 02MC 02RD 02RO	1	0	1.40656280518	173.0	242.0	181	240	1
2.7	2015_May_04_1227	s	s	2	2	SIC	145	RC	0	1	02VD 02VO 02VC 02MD 02MO 02MC 02RD 09RO	1	0	1.64713001251	369.0	398.0	375	401	1
2.7	2015_May_04_1227	s	s	2	2	SIC	146	ABS	1	1	02VD 02VO 02VC 02MD 10MO 02MC 02RD 02RO	0	1	3.54222798347	None	None	None	None	1
2.7	2015_May_04_1227	s	s	2	2	SIC	147	ABS	0	2	02VD 02VO 02VC 02MD 02MO 02MC 10RD 02RO	0	1	2.39544606209	None	None	None	None	1
2.7	2015_May_04_1227	s	s	2	2	SIC	148	RC	1	2	02VD 02VO 02VC 09MD 02MO 02MC 02RD 02RO	1	0	1.34106206894	-1.0	-352.0	-9	-353	1
2.7	2015_May_04_1227	s	s	2	2	SIC	149	RC	1	0	02VD 02VO 02VC 02MD 02MO 09MC 02RD 02RO	1	0	2.19556498528	464.0	385.0	471	380	1
2.7	2015_May_04_1227	s	s	2	2	SIC	150	RC	0	2	02VD 02VO 02VC 02MD 02MO 02MC 09RD 02RO	1	0	1.38514590263	112.0	377.0	119	374	1
2.7	2015_May_04_1227	s	s	2	2	SIC	151	ABS	2	1	02VD 10VO 02VC 02MD 02MO 02MC 02RD 02RO	0	1	2.84784007072	None	None	None	None	1
2.7	2015_May_04_1227	s	s	2	2	SIC	152	RC	2	0	02VD 02VO 09VC 02MD 02MO 02MC 02RD 02RO	1	0	1.32946109772	278.0	-301.0	278	-300	1
2.7	2015_May_04_1227	s	s	2	2	SIC	153	RC	1	1	02VD 02VO 02VC 02MD 09MO 02MC 02RD 02RO	1	0	2.40741801262	155.0	-359.0	150	-363	1
2.7	2015_May_04_1227	s	s	2	2	SIC	154	RC	2	1	02VD 09VO 02VC 02MD 02MO 02MC 02RD 02RO	1	0	1.76178193092	527.0	404.0	526	412	1
2.7	2015_May_04_1227	s	s	2	2	SIC	155	ABS	2	0	02VD 02VO 10VC 02MD 02MO 02MC 02RD 02RO	0	1	2.18378806114	None	None	None	None	1
2.7	2015_May_04_1227	s	s	2	2	SIC	156	ABS	1	0	02VD 02VO 02VC 02MD 02MO 10MC 02RD 02RO	0	1	4.00824904442	None	None	None	None	1
2.7	2015_May_04_1227	s	s	2	2	SIC	157	ABS	0	1	02VD 02VO 02VC 02MD 02MO 02MC 02RD 10RO	0	1	3.27855110168	None	None	None	None	1
2.7	2015_May_04_1227	s	s	2	2	SIC	158	RC	2	2	09VD 02VO 02VC 02MD 02MO 02MC 02RD 02RO	1	0	1.84225416183	-41.0	400.0	-50	403	1
2.7	2015_May_04_1227	s	s	2	2	SIC	159	ABS	1	2	02VD 02VO 02VC 10MD 02MO 02MC 02RD 02RO	0	1	2.51867699623	None	None	None	None	1
2.7	2015_May_04_1227	s	s	2	2	SIC	160	ABS	2	2	10VD 02VO 02VC 02MD 02MO 02MC 02RD 02RO	0	1	1.86708903313	None	None	None	None	1
2.7	2015_May_04_1227	s	s	2	2	SIC	161	ABS	2	0	02VD 02VO 10VC 02MD 02MO 02MC 02RD 02RO	0	1	1.91841602325	None	None	None	None	1
2.7	2015_May_04_1227	s	s	2	2	SIC	162	ABS	1	0	02VD 02VO 02VC 02MD 02MO 10MC 02RD 02RO	0	1	2.51856613159	None	None	None	None	1
2.7	2015_May_04_1227	s	s	2	2	SIC	163	RC	2	0	02VD 02VO 09VC 02MD 02MO 02MC 02RD 02RO	1	0	0.906065225601	223.0	24.0	217	16	1
2.7	2015_May_04_1227	s	s	2	2	SIC	164	ABS	2	1	02VD 10VO 02VC 02MD 02MO 02MC 02RD 02RO	0	1	1.66618490219	None	None	None	None	1
2.7	2015_May_04_1227	s	s	2	2	SIC	165	ABS	0	1	02VD 02VO 02VC 02MD 02MO 02MC 02RD 10RO	0	1	3.4562420845	None	None	None	None	1
2.7	2015_May_04_1227	s	s	2	2	SIC	166	RC	2	2	09VD 02VO 02VC 02MD 02MO 02MC 02RD 02RO	1	0	1.19644713402	226.0	-82.0	234	-79	1
2.7	2015_May_04_1227	s	s	2	2	SIC	167	RC	1	2	02VD 02VO 02VC 09MD 02MO 02MC 02RD 02RO	1	0	1.3150908947	-501.0	179.0	-505	188	1
2.7	2015_May_04_1227	s	s	2	2	SIC	168	ABS	2	2	10VD 02VO 02VC 02MD 02MO 02MC 02RD 02RO	0	1	2.00034213066	None	None	None	None	1
2.7	2015_May_04_1227	s	s	2	2	SIC	169	RC	1	0	02VD 02VO 02VC 02MD 02MO 09MC 02RD 02RO	1	0	1.32152104378	334.0	-189.0	335	-188	1
2.7	2015_May_04_1227	s	s	2	2	SIC	170	RC	0	2	02VD 02VO 02VC 02MD 02MO 02MC 09RD 02RO	0	1	2.67819094658	-537.0	-231.0	None	None	0
2.7	2015_May_04_1227	s	s	2	2	SIC	171	ABS	0	2	02VD 02VO 02VC 02MD 02MO 02MC 10RD 02RO	0	1	1.89207911491	None	None	None	None	1
2.7	2015_May_04_1227	s	s	2	2	SIC	172	ABS	1	1	02VD 02VO 02VC 02MD 10MO 02MC 02RD 02RO	0	1	3.38711500168	None	None	None	None	1
2.7	2015_May_04_1227	s	s	2	2	SIC	173	RC	2	1	02VD 09VO 02VC 02MD 02MO 02MC 02RD 02RO	1	0	1.26569509506	-284.0	-347.0	-287	-355	1
2.7	2015_May_04_1227	s	s	2	2	SIC	174	ABS	1	2	02VD 02VO 02VC 10MD 02MO 02MC 02RD 02RO	0	1	2.40054702759	None	None	None	None	1
2.7	2015_May_04_1227	s	s	2	2	SIC	175	RC	1	1	02VD 02VO 02VC 02MD 09MO 02MC 02RD 02RO	1	0	1.4825129509	489.0	227.0	494	221	1
2.7	2015_May_04_1227	s	s	2	2	SIC	176	RC	0	1	02VD 02VO 02VC 02MD 02MO 02MC 02RD 09RO	1	0	2.11807394028	409.0	311.0	403	311	1
2.7	2015_May_04_1227	s	s	2	2	SIC	177	ABS	1	1	02VD 02VO 02VC 02MD 10MO 02MC 02RD 02RO	0	1	2.7771730423	None	None	None	None	1
2.7	2015_May_04_1227	s	s	2	2	SIC	178	ABS	0	1	02VD 02VO 02VC 02MD 02MO 02MC 02RD 10RO	0	1	3.24316096306	None	None	None	None	1
2.7	2015_May_04_1227	s	s	2	2	SIC	179	RC	1	0	02VD 02VO 02VC 02MD 02MO 09MC 02RD 02RO	1	0	2.42411899567	-211.0	389.0	-214	389	1
2.7	2015_May_04_1227	s	s	2	2	SIC	180	ABS	2	0	02VD 02VO 10VC 02MD 02MO 02MC 02RD 02RO	0	1	1.64106297493	None	None	None	None	1
2.7	2015_May_04_1227	s	s	2	2	SIC	181	RC	2	1	02VD 09VO 02VC 02MD 02MO 02MC 02RD 02RO	1	0	0.960165977478	221.0	402.0	219	407	1
2.7	2015_May_04_1227	s	s	2	2	SIC	182	RC	1	2	02VD 02VO 02VC 09MD 02MO 02MC 02RD 02RO	1	0	1.19513010979	-30.0	-296.0	-24	-295	1
2.7	2015_May_04_1227	s	s	2	2	SIC	183	ABS	0	2	02VD 02VO 02VC 02MD 02MO 02MC 10RD 02RO	0	1	2.09445405006	None	None	None	None	1
2.7	2015_May_04_1227	s	s	2	2	SIC	184	ABS	2	2	10VD 02VO 02VC 02MD 02MO 02MC 02RD 02RO	0	1	2.31327390671	None	None	None	None	1
2.7	2015_May_04_1227	s	s	2	2	SIC	185	ABS	2	1	02VD 10VO 02VC 02MD 02MO 02MC 02RD 02RO	0	1	1.82964587212	None	None	None	None	1
2.7	2015_May_04_1227	s	s	2	2	SIC	186	RC	2	0	02VD 02VO 09VC 02MD 02MO 02MC 02RD 02RO	1	0	0.646571159363	431.0	398.0	428	406	1
2.7	2015_May_04_1227	s	s	2	2	SIC	187	ABS	1	0	02VD 02VO 02VC 02MD 02MO 10MC 02RD 02RO	0	1	2.55357289314	None	None	None	None	1
2.7	2015_May_04_1227	s	s	2	2	SIC	188	ABS	1	2	02VD 02VO 02VC 10MD 02MO 02MC 02RD 02RO	0	1	1.7060649395	None	None	None	None	1
2.7	2015_May_04_1227	s	s	2	2	SIC	189	RC	2	2	09VD 02VO 02VC 02MD 02MO 02MC 02RD 02RO	1	0	0.717304944992	233.0	251.0	231	250	1
2.7	2015_May_04_1227	s	s	2	2	SIC	190	RC	0	1	02VD 02VO 02VC 02MD 02MO 02MC 02RD 09RO	1	0	3.29025292397	-323.0	266.0	-327	271	1
2.7	2015_May_04_1227	s	s	2	2	SIC	191	RC	0	2	02VD 02VO 02VC 02MD 02MO 02MC 09RD 02RO	1	0	1.31763577461	232.0	168.0	241	169	1
2.7	2015_May_04_1227	s	s	2	2	SIC	192	RC	1	1	02VD 02VO 02VC 02MD 09MO 02MC 02RD 02RO	1	0	1.56476807594	121.0	-223.0	129	-225	1
2.7	2015_May_04_1227	s	s	2	2	SIC	193	ABS	0	1	02VD 02VO 02VC 02MD 02MO 02MC 02RD 10RO	0	1	3.07848787308	None	None	None	None	1
2.7	2015_May_04_1227	s	s	2	2	SIC	194	ABS	0	2	02VD 02VO 02VC 02MD 02MO 02MC 10RD 02RO	0	1	1.78846812248	None	None	None	None	1
2.7	2015_May_04_1227	s	s	2	2	SIC	195	RC	0	2	02VD 02VO 02VC 02MD 02MO 02MC 09RD 02RO	1	0	0.735843896866	-133.0	377.0	-132	377	1
2.7	2015_May_04_1227	s	s	2	2	SIC	196	RC	2	2	09VD 02VO 02VC 02MD 02MO 02MC 02RD 02RO	1	0	1.56482791901	146.0	-395.0	152	-392	1
2.7	2015_May_04_1227	s	s	2	2	SIC	197	ABS	2	2	10VD 02VO 02VC 02MD 02MO 02MC 02RD 02RO	0	1	2.01926016808	None	None	None	None	1
2.7	2015_May_04_1227	s	s	2	2	SIC	198	ABS	2	1	02VD 10VO 02VC 02MD 02MO 02MC 02RD 02RO	0	1	1.81246209145	None	None	None	None	1
2.7	2015_May_04_1227	s	s	2	2	SIC	199	ABS	2	0	02VD 02VO 10VC 02MD 02MO 02MC 02RD 02RO	0	1	1.41877412796	None	None	None	None	1
2.7	2015_May_04_1227	s	s	2	2	SIC	200	RC	1	2	02VD 02VO 02VC 09MD 02MO 02MC 02RD 02RO	1	0	1.86791586876	-33.0	-399.0	-38	-392	1
2.7	2015_May_04_1227	s	s	2	2	SIC	201	RC	2	0	02VD 02VO 09VC 02MD 02MO 02MC 02RD 02RO	1	0	1.58501791954	-525.0	-14.0	-531	-17	1
2.7	2015_May_04_1227	s	s	2	2	SIC	202	ABS	1	0	02VD 02VO 02VC 02MD 02MO 10MC 02RD 02RO	0	1	2.28059601784	None	None	None	None	1
2.7	2015_May_04_1227	s	s	2	2	SIC	203	ABS	1	1	02VD 02VO 02VC 02MD 10MO 02MC 02RD 02RO	0	1	1.84731698036	None	None	None	None	1
2.7	2015_May_04_1227	s	s	2	2	SIC	204	RC	1	0	02VD 02VO 02VC 02MD 02MO 09MC 02RD 02RO	1	0	1.8511660099	-332.0	387.0	-328	393	1
2.7	2015_May_04_1227	s	s	2	2	SIC	205	RC	1	1	02VD 02VO 02VC 02MD 09MO 02MC 02RD 02RO	1	0	1.99543404579	471.0	279.0	473	278	1
2.7	2015_May_04_1227	s	s	2	2	SIC	206	RC	0	1	02VD 02VO 02VC 02MD 02MO 02MC 02RD 09RO	1	0	2.98934602737	-397.0	-346.0	-399	-348	1
2.7	2015_May_04_1227	s	s	2	2	SIC	207	ABS	1	2	02VD 02VO 02VC 10MD 02MO 02MC 02RD 02RO	0	1	2.09038805962	None	None	None	None	1
2.7	2015_May_04_1227	s	s	2	2	SIC	208	RC	2	1	02VD 09VO 02VC 02MD 02MO 02MC 02RD 02RO	1	0	0.723958015442	-148.0	-86.0	-138	-85	1
2.7	2015_May_04_1227	s	s	2	2	SIC	209	ABS	1	0	02VD 02VO 02VC 02MD 02MO 10MC 02RD 02RO	0	1	2.48297190666	None	None	None	None	1
2.7	2015_May_04_1227	s	s	2	2	SIC	210	RC	2	2	09VD 02VO 02VC 02MD 02MO 02MC 02RD 02RO	1	0	1.60019397736	-442.0	-127.0	-441	-124	1
2.7	2015_May_04_1227	s	s	2	2	SIC	211	ABS	2	0	02VD 02VO 10VC 02MD 02MO 02MC 02RD 02RO	0	1	2.4662270546	None	None	None	None	1
2.7	2015_May_04_1227	s	s	2	2	SIC	212	RC	1	0	02VD 02VO 02VC 02MD 02MO 09MC 02RD 02RO	1	0	1.97674202919	369.0	-11.0	376	-6	1
2.7	2015_May_04_1227	s	s	2	2	SIC	213	RC	1	1	02VD 02VO 02VC 02MD 09MO 02MC 02RD 02RO	1	0	1.02338385582	-396.0	173.0	-402	172	1
2.7	2015_May_04_1227	s	s	2	2	SIC	214	ABS	0	1	02VD 02VO 02VC 02MD 02MO 02MC 02RD 10RO	0	1	4.24626302719	None	None	None	None	1
2.7	2015_May_04_1227	s	s	2	2	SIC	215	RC	0	1	02VD 02VO 02VC 02MD 02MO 02MC 02RD 09RO	1	0	0.91249704361	-148.0	169.0	-148	171	1
2.7	2015_May_04_1227	s	s	2	2	SIC	216	RC	2	1	02VD 09VO 02VC 02MD 02MO 02MC 02RD 02RO	1	0	0.819612026215	-437.0	-335.0	-427	-335	1
2.7	2015_May_04_1227	s	s	2	2	SIC	217	ABS	1	1	02VD 02VO 02VC 02MD 10MO 02MC 02RD 02RO	0	1	2.8007619381	None	None	None	None	1
2.7	2015_May_04_1227	s	s	2	2	SIC	218	ABS	0	2	02VD 02VO 02VC 02MD 02MO 02MC 10RD 02RO	1	0	1.1611199379	None	None	-533	3	0
2.7	2015_May_04_1227	s	s	2	2	SIC	219	ABS	2	1	02VD 10VO 02VC 02MD 02MO 02MC 02RD 02RO	0	1	2.72781014442	None	None	None	None	1
2.7	2015_May_04_1227	s	s	2	2	SIC	220	ABS	1	2	02VD 02VO 02VC 10MD 02MO 02MC 02RD 02RO	0	1	4.0554690361	None	None	None	None	1
2.7	2015_May_04_1227	s	s	2	2	SIC	221	ABS	2	2	10VD 02VO 02VC 02MD 02MO 02MC 02RD 02RO	0	1	3.49517989159	None	None	None	None	1
2.7	2015_May_04_1227	s	s	2	2	SIC	222	RC	0	2	02VD 02VO 02VC 02MD 02MO 02MC 09RD 02RO	1	0	2.67125988007	-71.0	-15.0	-65	-6	1
2.7	2015_May_04_1227	s	s	2	2	SIC	223	RC	1	2	02VD 02VO 02VC 09MD 02MO 02MC 02RD 02RO	1	0	1.03286600113	-522.0	142.0	-527	138	1
2.7	2015_May_04_1227	s	s	2	2	SIC	224	RC	2	0	02VD 02VO 09VC 02MD 02MO 02MC 02RD 02RO	1	0	0.903364896774	22.0	312.0	18	308	1
2.7	2015_May_04_1227	s	s	2	2	SIC	225	RC	0	1	02VD 02VO 02VC 02MD 02MO 02MC 02RD 09RO	1	0	3.74238491058	493.0	-247.0	491	-240	1
2.7	2015_May_04_1227	s	s	2	2	SIC	226	RC	2	1	02VD 09VO 02VC 02MD 02MO 02MC 02RD 02RO	1	0	1.12933206558	-371.0	366.0	-368	374	1
2.7	2015_May_04_1227	s	s	2	2	SIC	227	RC	1	2	02VD 02VO 02VC 09MD 02MO 02MC 02RD 02RO	1	0	0.924174070358	-182.0	-216.0	-183	-212	1
2.7	2015_May_04_1227	s	s	2	2	SIC	228	ABS	2	1	02VD 10VO 02VC 02MD 02MO 02MC 02RD 02RO	0	1	1.88950204849	None	None	None	None	1
2.7	2015_May_04_1227	s	s	2	2	SIC	229	RC	0	2	02VD 02VO 02VC 02MD 02MO 02MC 09RD 02RO	1	0	1.05381393433	-507.0	-284.0	-508	-279	1
2.7	2015_May_04_1227	s	s	2	2	SIC	230	ABS	0	1	02VD 02VO 02VC 02MD 02MO 02MC 02RD 10RO	0	1	3.57122206688	None	None	None	None	1
2.7	2015_May_04_1227	s	s	2	2	SIC	231	ABS	0	2	02VD 02VO 02VC 02MD 02MO 02MC 10RD 02RO	0	1	2.3369281292	None	None	None	None	1
2.7	2015_May_04_1227	s	s	2	2	SIC	232	RC	2	2	09VD 02VO 02VC 02MD 02MO 02MC 02RD 02RO	1	0	0.709286928177	-22.0	-208.0	-17	-200	1
2.7	2015_May_04_1227	s	s	2	2	SIC	233	ABS	1	1	02VD 02VO 02VC 02MD 10MO 02MC 02RD 02RO	0	1	2.74918293953	None	None	None	None	1
2.7	2015_May_04_1227	s	s	2	2	SIC	234	RC	1	1	02VD 02VO 02VC 02MD 09MO 02MC 02RD 02RO	1	0	1.9616560936	176.0	-257.0	182	-253	1
2.7	2015_May_04_1227	s	s	2	2	SIC	235	ABS	1	0	02VD 02VO 02VC 02MD 02MO 10MC 02RD 02RO	0	1	2.10064983368	None	None	None	None	1
2.7	2015_May_04_1227	s	s	2	2	SIC	236	RC	2	0	02VD 02VO 09VC 02MD 02MO 02MC 02RD 02RO	1	0	1.98545694351	176.0	231.0	184	238	1
2.7	2015_May_04_1227	s	s	2	2	SIC	237	ABS	1	2	02VD 02VO 02VC 10MD 02MO 02MC 02RD 02RO	0	1	2.37700796127	None	None	None	None	1
2.7	2015_May_04_1227	s	s	2	2	SIC	238	ABS	2	2	10VD 02VO 02VC 02MD 02MO 02MC 02RD 02RO	0	1	1.32419705391	None	None	None	None	1
2.7	2015_May_04_1227	s	s	2	2	SIC	239	ABS	2	0	02VD 02VO 10VC 02MD 02MO 02MC 02RD 02RO	0	1	2.20040106773	None	None	None	None	1
2.7	2015_May_04_1227	s	s	2	2	SIC	240	RC	1	0	02VD 02VO 02VC 02MD 02MO 09MC 02RD 02RO	1	0	0.69377207756	-178.0	65.0	-181	64	1
2.7	2015_May_04_1227	s	s	2	2	SIC	241	RC	0	1	02VD 02VO 02VC 02MD 02MO 02MC 02RD 09RO	1	0	2.25923609734	-353.0	-372.0	-350	-375	1
2.7	2015_May_04_1227	s	s	2	2	SIC	242	RC	1	0	02VD 02VO 02VC 02MD 02MO 09MC 02RD 02RO	1	0	2.84784317017	450.0	-348.0	446	-344	1
2.7	2015_May_04_1227	s	s	2	2	SIC	243	RC	2	0	02VD 02VO 09VC 02MD 02MO 02MC 02RD 02RO	1	0	0.758908987045	-368.0	34.0	-366	42	1
2.7	2015_May_04_1227	s	s	2	2	SIC	244	RC	0	2	02VD 02VO 02VC 02MD 02MO 02MC 09RD 02RO	1	0	0.576098203659	-297.0	108.0	-300	108	1
2.7	2015_May_04_1227	s	s	2	2	SIC	245	ABS	2	2	10VD 02VO 02VC 02MD 02MO 02MC 02RD 02RO	0	1	2.47843313217	None	None	None	None	1
2.7	2015_May_04_1227	s	s	2	2	SIC	246	ABS	1	0	02VD 02VO 02VC 02MD 02MO 10MC 02RD 02RO	0	1	2.30152082443	None	None	None	None	1
2.7	2015_May_04_1227	s	s	2	2	SIC	247	ABS	1	1	02VD 02VO 02VC 02MD 10MO 02MC 02RD 02RO	0	1	1.95008206367	None	None	None	None	1
2.7	2015_May_04_1227	s	s	2	2	SIC	248	ABS	2	1	02VD 10VO 02VC 02MD 02MO 02MC 02RD 02RO	0	1	1.88974499702	None	None	None	None	1
2.7	2015_May_04_1227	s	s	2	2	SIC	249	RC	1	1	02VD 02VO 02VC 02MD 09MO 02MC 02RD 02RO	0	1	3.30182814598	517.0	-387.0	None	None	0
2.7	2015_May_04_1227	s	s	2	2	SIC	250	ABS	2	0	02VD 02VO 10VC 02MD 02MO 02MC 02RD 02RO	0	1	1.81871008873	None	None	None	None	1
2.7	2015_May_04_1227	s	s	2	2	SIC	251	RC	1	2	02VD 02VO 02VC 09MD 02MO 02MC 02RD 02RO	1	0	1.04204797745	223.0	382.0	231	388	1
2.7	2015_May_04_1227	s	s	2	2	SIC	252	ABS	1	2	02VD 02VO 02VC 10MD 02MO 02MC 02RD 02RO	0	1	2.38387799263	None	None	None	None	1
2.7	2015_May_04_1227	s	s	2	2	SIC	253	ABS	0	2	02VD 02VO 02VC 02MD 02MO 02MC 10RD 02RO	0	1	2.07099890709	None	None	None	None	1
2.7	2015_May_04_1227	s	s	2	2	SIC	254	RC	2	1	02VD 09VO 02VC 02MD 02MO 02MC 02RD 02RO	1	0	1.55997681618	67.0	390.0	71	387	1
2.7	2015_May_04_1227	s	s	2	2	SIC	255	RC	2	2	09VD 02VO 02VC 02MD 02MO 02MC 02RD 02RO	1	0	2.1737279892	413.0	-124.0	424	-115	1
2.7	2015_May_04_1227	s	s	2	2	SIC	256	ABS	0	1	02VD 02VO 02VC 02MD 02MO 02MC 02RD 10RO	0	1	3.82172513008	None	None	None	None	1
2.7	2015_May_04_1227	s	s	2	2	SIC	257	ABS	1	0	02VD 02VO 02VC 02MD 02MO 10MC 02RD 02RO	0	1	4.91940808296	None	None	None	None	1
2.7	2015_May_04_1227	s	s	2	2	SIC	258	RC	0	1	02VD 02VO 02VC 02MD 02MO 02MC 02RD 09RO	1	0	3.58423709869	-485.0	320.0	-493	317	1
2.7	2015_May_04_1227	s	s	2	2	SIC	259	RC	1	0	02VD 02VO 02VC 02MD 02MO 09MC 02RD 02RO	1	0	0.940913915634	-206.0	220.0	-204	225	1
2.7	2015_May_04_1227	s	s	2	2	SIC	260	ABS	2	2	10VD 02VO 02VC 02MD 02MO 02MC 02RD 02RO	0	1	1.94148588181	None	None	None	None	1
2.7	2015_May_04_1227	s	s	2	2	SIC	261	RC	2	1	02VD 09VO 02VC 02MD 02MO 02MC 02RD 02RO	1	0	1.3121380806	-116.0	-395.0	-117	-399	1
2.7	2015_May_04_1227	s	s	2	2	SIC	262	ABS	0	1	02VD 02VO 02VC 02MD 02MO 02MC 02RD 10RO	0	1	3.05443906784	None	None	None	None	1
2.7	2015_May_04_1227	s	s	2	2	SIC	263	ABS	1	2	02VD 02VO 02VC 10MD 02MO 02MC 02RD 02RO	0	1	2.72524595261	None	None	None	None	1
2.7	2015_May_04_1227	s	s	2	2	SIC	264	ABS	2	1	02VD 10VO 02VC 02MD 02MO 02MC 02RD 02RO	0	1	2.31796813011	None	None	None	None	1
2.7	2015_May_04_1227	s	s	2	2	SIC	265	ABS	1	1	02VD 02VO 02VC 02MD 10MO 02MC 02RD 02RO	0	1	2.80843615532	None	None	None	None	1
2.7	2015_May_04_1227	s	s	2	2	SIC	266	RC	1	2	02VD 02VO 02VC 09MD 02MO 02MC 02RD 02RO	1	0	1.29408097267	142.0	-316.0	146	-325	1
2.7	2015_May_04_1227	s	s	2	2	SIC	267	RC	2	2	09VD 02VO 02VC 02MD 02MO 02MC 02RD 02RO	1	0	1.09399104118	-184.0	-75.0	-183	-68	1
2.7	2015_May_04_1227	s	s	2	2	SIC	268	RC	0	2	02VD 02VO 02VC 02MD 02MO 02MC 09RD 02RO	1	0	1.70650005341	256.0	-161.0	258	-164	1
2.7	2015_May_04_1227	s	s	2	2	SIC	269	ABS	2	0	02VD 02VO 10VC 02MD 02MO 02MC 02RD 02RO	0	1	2.73014307022	None	None	None	None	1
2.7	2015_May_04_1227	s	s	2	2	SIC	270	RC	1	1	02VD 02VO 02VC 02MD 09MO 02MC 02RD 02RO	1	0	1.98859906197	311.0	-297.0	317	-296	1
2.7	2015_May_04_1227	s	s	2	2	SIC	271	RC	2	0	02VD 02VO 09VC 02MD 02MO 02MC 02RD 02RO	1	0	1.23908996582	-215.0	304.0	-217	304	1
2.7	2015_May_04_1227	s	s	2	2	SIC	272	ABS	0	2	02VD 02VO 02VC 02MD 02MO 02MC 10RD 02RO	0	1	3.34215903282	None	None	None	None	1
2.7	2015_May_04_1227	s	s	2	2	SIC	273	ABS	1	1	02VD 02VO 02VC 02MD 10MO 02MC 02RD 02RO	0	1	2.43281507492	None	None	None	None	1
2.7	2015_May_04_1227	s	s	2	2	SIC	274	ABS	2	1	02VD 10VO 02VC 02MD 02MO 02MC 02RD 02RO	0	1	1.48934698105	None	None	None	None	1
2.7	2015_May_04_1227	s	s	2	2	SIC	275	ABS	0	1	02VD 02VO 02VC 02MD 02MO 02MC 02RD 10RO	0	1	3.04792904854	None	None	None	None	1
2.7	2015_May_04_1227	s	s	2	2	SIC	276	RC	1	1	02VD 02VO 02VC 02MD 09MO 02MC 02RD 02RO	1	0	0.941047906876	-25.0	-215.0	-25	-227	1
2.7	2015_May_04_1227	s	s	2	2	SIC	277	ABS	2	2	10VD 02VO 02VC 02MD 02MO 02MC 02RD 02RO	0	1	1.81204009056	None	None	None	None	1
2.7	2015_May_04_1227	s	s	2	2	SIC	278	RC	2	0	02VD 02VO 09VC 02MD 02MO 02MC 02RD 02RO	1	0	0.576086997986	154.0	83.0	149	82	1
2.7	2015_May_04_1227	s	s	2	2	SIC	279	ABS	1	2	02VD 02VO 02VC 10MD 02MO 02MC 02RD 02RO	0	1	1.83076310158	None	None	None	None	1
2.7	2015_May_04_1227	s	s	2	2	SIC	280	RC	1	0	02VD 02VO 02VC 02MD 02MO 09MC 02RD 02RO	1	0	0.799749851227	46.0	-123.0	48	-130	1
2.7	2015_May_04_1227	s	s	2	2	SIC	281	RC	0	2	02VD 02VO 02VC 02MD 02MO 02MC 09RD 02RO	1	0	1.19672703743	300.0	217.0	301	213	1
2.7	2015_May_04_1227	s	s	2	2	SIC	282	RC	2	1	02VD 09VO 02VC 02MD 02MO 02MC 02RD 02RO	1	0	0.964548826218	170.0	-78.0	167	-79	1
2.7	2015_May_04_1227	s	s	2	2	SIC	283	RC	2	2	09VD 02VO 02VC 02MD 02MO 02MC 02RD 02RO	1	0	0.832593917847	197.0	62.0	192	57	1
2.7	2015_May_04_1227	s	s	2	2	SIC	284	RC	1	2	02VD 02VO 02VC 09MD 02MO 02MC 02RD 02RO	1	0	0.627017021179	80.0	-4.0	81	-15	1
2.7	2015_May_04_1227	s	s	2	2	SIC	285	RC	0	1	02VD 02VO 02VC 02MD 02MO 02MC 02RD 09RO	1	0	2.59553194046	-98.0	406.0	-95	404	1
2.7	2015_May_04_1227	s	s	2	2	SIC	286	ABS	1	0	02VD 02VO 02VC 02MD 02MO 10MC 02RD 02RO	0	1	3.5255510807	None	None	None	None	1
2.7	2015_May_04_1227	s	s	2	2	SIC	287	ABS	2	0	02VD 02VO 10VC 02MD 02MO 02MC 02RD 02RO	0	1	1.51290607452	None	None	None	None	1
2.7	2015_May_04_1227	s	s	2	2	SIC	288	ABS	0	2	02VD 02VO 02VC 02MD 02MO 02MC 10RD 02RO	0	1	3.29110717773	None	None	None	None	1
2.7	2015_May_04_1227	s	s	2	2	SIC	289	RC	0	2	02VD 02VO 02VC 02MD 02MO 02MC 09RD 02RO	1	0	0.83509016037	165.0	125.0	165	130	1
2.7	2015_May_04_1227	s	s	2	2	SIC	290	ABS	2	0	02VD 02VO 10VC 02MD 02MO 02MC 02RD 02RO	0	1	1.64160299301	None	None	None	None	1
2.7	2015_May_04_1227	s	s	2	2	SIC	291	RC	2	0	02VD 02VO 09VC 02MD 02MO 02MC 02RD 02RO	1	0	1.1126639843	288.0	-190.0	294	-184	1
2.7	2015_May_04_1227	s	s	2	2	SIC	292	ABS	1	0	02VD 02VO 02VC 02MD 02MO 10MC 02RD 02RO	0	1	2.42405295372	None	None	None	None	1
2.7	2015_May_04_1227	s	s	2	2	SIC	293	RC	1	2	02VD 02VO 02VC 09MD 02MO 02MC 02RD 02RO	1	0	1.63540196419	529.0	-21.0	529	-20	1
2.7	2015_May_04_1227	s	s	2	2	SIC	294	ABS	1	2	02VD 02VO 02VC 10MD 02MO 02MC 02RD 02RO	0	1	2.24240708351	None	None	None	None	1
2.7	2015_May_04_1227	s	s	2	2	SIC	295	ABS	2	2	10VD 02VO 02VC 02MD 02MO 02MC 02RD 02RO	0	1	2.00669503212	None	None	None	None	1
2.7	2015_May_04_1227	s	s	2	2	SIC	296	RC	2	2	09VD 02VO 02VC 02MD 02MO 02MC 02RD 02RO	1	0	1.18820500374	4.0	-322.0	2	-327	1
2.7	2015_May_04_1227	s	s	2	2	SIC	297	RC	2	1	02VD 09VO 02VC 02MD 02MO 02MC 02RD 02RO	1	0	1.09400582314	191.0	-160.0	191	-152	1
2.7	2015_May_04_1227	s	s	2	2	SIC	298	ABS	2	1	02VD 10VO 02VC 02MD 02MO 02MC 02RD 02RO	0	1	2.89492607117	None	None	None	None	1
2.7	2015_May_04_1227	s	s	2	2	SIC	299	ABS	0	1	02VD 02VO 02VC 02MD 02MO 02MC 02RD 10RO	0	1	2.88316893578	None	None	None	None	1
2.7	2015_May_04_1227	s	s	2	2	SIC	300	RC	1	1	02VD 02VO 02VC 02MD 09MO 02MC 02RD 02RO	1	0	1.43535399437	-383.0	-230.0	-382	-228	1
2.7	2015_May_04_1227	s	s	2	2	SIC	301	RC	0	1	02VD 02VO 02VC 02MD 02MO 02MC 02RD 09RO	1	0	1.63200592995	276.0	355.0	278	346	1
2.7	2015_May_04_1227	s	s	2	2	SIC	302	ABS	1	1	02VD 02VO 02VC 02MD 10MO 02MC 02RD 02RO	0	1	3.2784781456	None	None	None	None	1
2.7	2015_May_04_1227	s	s	2	2	SIC	303	ABS	0	2	02VD 02VO 02VC 02MD 02MO 02MC 10RD 02RO	0	1	1.78851413727	None	None	None	None	1
2.7	2015_May_04_1227	s	s	2	2	SIC	304	RC	1	0	02VD 02VO 02VC 02MD 02MO 09MC 02RD 02RO	1	0	0.976269006729	164.0	372.0	173	375	1
2.7	2015_May_04_1227	s	s	2	2	SIC	305	RC	1	1	02VD 02VO 02VC 02MD 09MO 02MC 02RD 02RO	1	0	1.39512014389	103.0	-141.0	96	-136	1
2.7	2015_May_04_1227	s	s	2	2	SIC	306	ABS	1	0	02VD 02VO 02VC 02MD 02MO 10MC 02RD 02RO	0	1	2.54870510101	None	None	None	None	1
2.7	2015_May_04_1227	s	s	2	2	SIC	307	RC	1	0	02VD 02VO 02VC 02MD 02MO 09MC 02RD 02RO	1	0	0.615694046021	-158.0	160.0	-162	152	1
2.7	2015_May_04_1227	s	s	2	2	SIC	308	ABS	1	2	02VD 02VO 02VC 10MD 02MO 02MC 02RD 02RO	0	1	2.64438986778	None	None	None	None	1
2.7	2015_May_04_1227	s	s	2	2	SIC	309	ABS	2	1	02VD 10VO 02VC 02MD 02MO 02MC 02RD 02RO	0	1	2.04240012169	None	None	None	None	1
2.7	2015_May_04_1227	s	s	2	2	SIC	310	ABS	2	2	10VD 02VO 02VC 02MD 02MO 02MC 02RD 02RO	0	1	2.30680203438	None	None	None	None	1
2.7	2015_May_04_1227	s	s	2	2	SIC	311	RC	0	1	02VD 02VO 02VC 02MD 02MO 02MC 02RD 09RO	1	0	1.60011506081	-57.0	-17.0	-58	-17	1
2.7	2015_May_04_1227	s	s	2	2	SIC	312	ABS	0	2	02VD 02VO 02VC 02MD 02MO 02MC 10RD 02RO	0	1	1.82388091087	None	None	None	None	1
2.7	2015_May_04_1227	s	s	2	2	SIC	313	RC	0	2	02VD 02VO 02VC 02MD 02MO 02MC 09RD 02RO	1	0	1.49204397202	-529.0	-304.0	-529	-306	1
2.7	2015_May_04_1227	s	s	2	2	SIC	314	ABS	1	1	02VD 02VO 02VC 02MD 10MO 02MC 02RD 02RO	0	1	2.71335721016	None	None	None	None	1
2.7	2015_May_04_1227	s	s	2	2	SIC	315	ABS	0	1	02VD 02VO 02VC 02MD 02MO 02MC 02RD 10RO	0	1	3.16567087173	None	None	None	None	1
2.7	2015_May_04_1227	s	s	2	2	SIC	316	RC	2	1	02VD 09VO 02VC 02MD 02MO 02MC 02RD 02RO	1	0	1.0512008667	-229.0	262.0	-225	265	1
2.7	2015_May_04_1227	s	s	2	2	SIC	317	RC	1	2	02VD 02VO 02VC 09MD 02MO 02MC 02RD 02RO	1	0	1.49137091637	506.0	-85.0	499	-86	1
2.7	2015_May_04_1227	s	s	2	2	SIC	318	RC	2	2	09VD 02VO 02VC 02MD 02MO 02MC 02RD 02RO	1	0	1.30098509789	-233.0	-246.0	-227	-244	1
2.7	2015_May_04_1227	s	s	2	2	SIC	319	RC	2	0	02VD 02VO 09VC 02MD 02MO 02MC 02RD 02RO	1	0	1.15285992622	-99.0	288.0	-83	297	1
2.7	2015_May_04_1227	s	s	2	2	SIC	320	ABS	2	0	02VD 02VO 10VC 02MD 02MO 02MC 02RD 02RO	0	1	2.04774212837	None	None	None	None	1
2.7	2015_May_04_1227	s	s	2	2	SIC	321	ABS	1	1	02VD 02VO 02VC 02MD 10MO 02MC 02RD 02RO	0	1	2.08282613754	None	None	None	None	1
2.7	2015_May_04_1227	s	s	2	2	SIC	322	RC	2	2	09VD 02VO 02VC 02MD 02MO 02MC 02RD 02RO	1	0	1.87955594063	489.0	-360.0	497	-356	1
2.7	2015_May_04_1227	s	s	2	2	SIC	323	RC	2	1	02VD 09VO 02VC 02MD 02MO 02MC 02RD 02RO	1	0	0.905745029449	-258.0	-54.0	-256	-47	1
2.7	2015_May_04_1227	s	s	2	2	SIC	324	ABS	2	2	10VD 02VO 02VC 02MD 02MO 02MC 02RD 02RO	0	1	2.99757194519	None	None	None	None	1
2.7	2015_May_04_1227	s	s	2	2	SIC	325	RC	2	0	02VD 02VO 09VC 02MD 02MO 02MC 02RD 02RO	1	0	1.8777680397	287.0	372.0	282	374	1
2.7	2015_May_04_1227	s	s	2	2	SIC	326	RC	1	0	02VD 02VO 02VC 02MD 02MO 09MC 02RD 02RO	1	0	0.928890943527	-533.0	220.0	-542	216	1
2.7	2015_May_04_1227	s	s	2	2	SIC	327	ABS	0	2	02VD 02VO 02VC 02MD 02MO 02MC 10RD 02RO	0	1	2.25933098793	None	None	None	None	1
2.7	2015_May_04_1227	s	s	2	2	SIC	328	RC	1	1	02VD 02VO 02VC 02MD 09MO 02MC 02RD 02RO	1	0	2.70667314529	497.0	373.0	500	367	1
2.7	2015_May_04_1227	s	s	2	2	SIC	329	ABS	1	0	02VD 02VO 02VC 02MD 02MO 10MC 02RD 02RO	0	1	2.53003406525	None	None	None	None	1
2.7	2015_May_04_1227	s	s	2	2	SIC	330	ABS	2	0	02VD 02VO 10VC 02MD 02MO 02MC 02RD 02RO	0	1	1.5954580307	None	None	None	None	1
2.7	2015_May_04_1227	s	s	2	2	SIC	331	RC	0	2	02VD 02VO 02VC 02MD 02MO 02MC 09RD 02RO	1	0	1.74712395668	509.0	264.0	514	266	1
2.7	2015_May_04_1227	s	s	2	2	SIC	332	RC	0	1	02VD 02VO 02VC 02MD 02MO 02MC 02RD 09RO	1	0	1.17643213272	-312.0	5.0	-317	1	1
2.7	2015_May_04_1227	s	s	2	2	SIC	333	ABS	2	1	02VD 10VO 02VC 02MD 02MO 02MC 02RD 02RO	0	1	1.74170303345	None	None	None	None	1
2.7	2015_May_04_1227	s	s	2	2	SIC	334	RC	1	2	02VD 02VO 02VC 09MD 02MO 02MC 02RD 02RO	1	0	1.07836914062	-513.0	365.0	-510	363	1
2.7	2015_May_04_1227	s	s	2	2	SIC	335	ABS	1	2	02VD 02VO 02VC 10MD 02MO 02MC 02RD 02RO	0	1	1.66845703125	None	None	None	None	1
2.7	2015_May_04_1227	s	s	2	2	SIC	336	ABS	0	1	02VD 02VO 02VC 02MD 02MO 02MC 02RD 10RO	0	1	3.19606113434	None	None	None	None	1
2.7	2015_May_04_1227	s	s	2	2	SIC	337	ABS	0	2	02VD 02VO 02VC 02MD 02MO 02MC 10RD 02RO	0	1	1.90188884735	None	None	None	None	1
2.7	2015_May_04_1227	s	s	2	2	SIC	338	ABS	1	2	02VD 02VO 02VC 10MD 02MO 02MC 02RD 02RO	0	1	1.89434099197	None	None	None	None	1
2.7	2015_May_04_1227	s	s	2	2	SIC	339	ABS	2	2	10VD 02VO 02VC 02MD 02MO 02MC 02RD 02RO	0	1	1.21912312508	None	None	None	None	1
2.7	2015_May_04_1227	s	s	2	2	SIC	340	ABS	2	1	02VD 10VO 02VC 02MD 02MO 02MC 02RD 02RO	0	1	1.71828103065	None	None	None	None	1
2.7	2015_May_04_1227	s	s	2	2	SIC	341	RC	1	2	02VD 02VO 02VC 09MD 02MO 02MC 02RD 02RO	1	0	1.36474514008	-43.0	389.0	-48	394	1
2.7	2015_May_04_1227	s	s	2	2	SIC	342	RC	1	1	02VD 02VO 02VC 02MD 09MO 02MC 02RD 02RO	1	0	3.57526898384	-388.0	43.0	-394	50	1
2.7	2015_May_04_1227	s	s	2	2	SIC	343	RC	2	2	09VD 02VO 02VC 02MD 02MO 02MC 02RD 02RO	1	0	1.12449908257	-435.0	358.0	-436	360	1
2.7	2015_May_04_1227	s	s	2	2	SIC	344	RC	1	0	02VD 02VO 02VC 02MD 02MO 09MC 02RD 02RO	1	0	1.01162004471	29.0	310.0	40	313	1
2.7	2015_May_04_1227	s	s	2	2	SIC	345	RC	0	2	02VD 02VO 02VC 02MD 02MO 02MC 09RD 02RO	1	0	1.38332700729	107.0	-118.0	108	-112	1
2.7	2015_May_04_1227	s	s	2	2	SIC	346	RC	0	1	02VD 02VO 02VC 02MD 02MO 02MC 02RD 09RO	1	0	0.806669950485	-232.0	328.0	-228	330	1
2.7	2015_May_04_1227	s	s	2	2	SIC	347	ABS	1	0	02VD 02VO 02VC 02MD 02MO 10MC 02RD 02RO	0	1	2.38430905342	None	None	None	None	1
2.7	2015_May_04_1227	s	s	2	2	SIC	348	RC	2	1	02VD 09VO 02VC 02MD 02MO 02MC 02RD 02RO	1	0	1.23022603989	216.0	-201.0	214	-193	1
2.7	2015_May_04_1227	s	s	2	2	SIC	349	ABS	2	0	02VD 02VO 10VC 02MD 02MO 02MC 02RD 02RO	0	1	2.09452795982	None	None	None	None	1
2.7	2015_May_04_1227	s	s	2	2	SIC	350	ABS	0	1	02VD 02VO 02VC 02MD 02MO 02MC 02RD 10RO	0	1	2.753677845	None	None	None	None	1
2.7	2015_May_04_1227	s	s	2	2	SIC	351	ABS	1	1	02VD 02VO 02VC 02MD 10MO 02MC 02RD 02RO	0	1	1.87072992325	None	None	None	None	1
2.7	2015_May_04_1227	s	s	2	2	SIC	352	RC	2	0	02VD 02VO 09VC 02MD 02MO 02MC 02RD 02RO	1	0	1.19992589951	-464.0	-119.0	-463	-114	1
2.7	2015_May_04_1227	s	s	2	2	SIC	353	RC	0	1	02VD 02VO 02VC 02MD 02MO 02MC 02RD 09RO	1	0	1.41866612434	-305.0	74.0	-312	79	1
2.7	2015_May_04_1227	s	s	2	2	SIC	354	RC	2	0	02VD 02VO 09VC 02MD 02MO 02MC 02RD 02RO	1	0	1.31769585609	536.0	389.0	539	395	1
2.7	2015_May_04_1227	s	s	2	2	SIC	355	RC	2	2	09VD 02VO 02VC 02MD 02MO 02MC 02RD 02RO	1	0	1.43053197861	522.0	-331.0	530	-330	1
2.7	2015_May_04_1227	s	s	2	2	SIC	356	ABS	1	1	02VD 02VO 02VC 02MD 10MO 02MC 02RD 02RO	0	1	2.21210694313	None	None	None	None	1
2.7	2015_May_04_1227	s	s	2	2	SIC	357	ABS	2	2	10VD 02VO 02VC 02MD 02MO 02MC 02RD 02RO	0	1	1.38320994377	None	None	None	None	1
2.7	2015_May_04_1227	s	s	2	2	SIC	358	ABS	1	2	02VD 02VO 02VC 10MD 02MO 02MC 02RD 02RO	0	1	1.97684311867	None	None	None	None	1
2.7	2015_May_04_1227	s	s	2	2	SIC	359	ABS	0	1	02VD 02VO 02VC 02MD 02MO 02MC 02RD 10RO	0	1	3.22124195099	None	None	None	None	1
2.7	2015_May_04_1227	s	s	2	2	SIC	360	RC	1	0	02VD 02VO 02VC 02MD 02MO 09MC 02RD 02RO	1	0	1.77379703522	466.0	-223.0	468	-222	1
2.7	2015_May_04_1227	s	s	2	2	SIC	361	RC	2	1	02VD 09VO 02VC 02MD 02MO 02MC 02RD 02RO	1	0	1.15985798836	420.0	-45.0	411	-43	1
2.7	2015_May_04_1227	s	s	2	2	SIC	362	RC	0	2	02VD 02VO 02VC 02MD 02MO 02MC 09RD 02RO	1	0	1.277312994	12.0	285.0	5	281	1
2.7	2015_May_04_1227	s	s	2	2	SIC	363	RC	1	2	02VD 02VO 02VC 09MD 02MO 02MC 02RD 02RO	1	0	0.900647878647	-319.0	90.0	-328	90	1
2.7	2015_May_04_1227	s	s	2	2	SIC	364	ABS	2	0	02VD 02VO 10VC 02MD 02MO 02MC 02RD 02RO	0	1	1.86574101448	None	None	None	None	1
2.7	2015_May_04_1227	s	s	2	2	SIC	365	ABS	0	2	02VD 02VO 02VC 02MD 02MO 02MC 10RD 02RO	0	1	2.35352492332	None	None	None	None	1
2.7	2015_May_04_1227	s	s	2	2	SIC	366	ABS	2	1	02VD 10VO 02VC 02MD 02MO 02MC 02RD 02RO	0	1	1.90620303154	None	None	None	None	1
2.7	2015_May_04_1227	s	s	2	2	SIC	367	ABS	1	0	02VD 02VO 02VC 02MD 02MO 10MC 02RD 02RO	0	1	2.1772840023	None	None	None	None	1
2.7	2015_May_04_1227	s	s	2	2	SIC	368	RC	1	1	02VD 02VO 02VC 02MD 09MO 02MC 02RD 02RO	1	0	1.49422097206	235.0	346.0	236	347	1
2.7	2015_May_04_1227	s	s	2	2	SIC	369	RC	0	1	02VD 02VO 02VC 02MD 02MO 02MC 02RD 09RO	1	0	1.02338314056	284.0	186.0	285	184	1
2.7	2015_May_04_1227	s	s	2	2	SIC	370	ABS	0	1	02VD 02VO 02VC 02MD 02MO 02MC 02RD 10RO	0	1	3.47167897224	None	None	None	None	1
2.7	2015_May_04_1227	s	s	2	2	SIC	371	RC	1	1	02VD 02VO 02VC 02MD 09MO 02MC 02RD 02RO	1	0	0.912556886673	-273.0	362.0	-273	360	1
2.7	2015_May_04_1227	s	s	2	2	SIC	372	ABS	1	2	02VD 02VO 02VC 10MD 02MO 02MC 02RD 02RO	0	1	1.90400314331	None	None	None	None	1
2.7	2015_May_04_1227	s	s	2	2	SIC	373	ABS	2	0	02VD 02VO 10VC 02MD 02MO 02MC 02RD 02RO	0	1	1.68256402016	None	None	None	None	1
2.7	2015_May_04_1227	s	s	2	2	SIC	374	RC	2	0	02VD 02VO 09VC 02MD 02MO 02MC 02RD 02RO	1	0	0.761319875717	149.0	131.0	159	133	1
2.7	2015_May_04_1227	s	s	2	2	SIC	375	ABS	2	2	10VD 02VO 02VC 02MD 02MO 02MC 02RD 02RO	0	1	1.54818701744	None	None	None	None	1
2.7	2015_May_04_1227	s	s	2	2	SIC	376	RC	0	2	02VD 02VO 02VC 02MD 02MO 02MC 09RD 02RO	1	0	0.740869998932	-184.0	271.0	-178	273	1
2.7	2015_May_04_1227	s	s	2	2	SIC	377	ABS	2	1	02VD 10VO 02VC 02MD 02MO 02MC 02RD 02RO	0	1	1.87091803551	None	None	None	None	1
2.7	2015_May_04_1227	s	s	2	2	SIC	378	RC	1	2	02VD 02VO 02VC 09MD 02MO 02MC 02RD 02RO	1	0	1.38347506523	411.0	-75.0	404	-68	1
2.7	2015_May_04_1227	s	s	2	2	SIC	379	ABS	1	0	02VD 02VO 02VC 02MD 02MO 10MC 02RD 02RO	0	1	2.77717494965	None	None	None	None	1
2.7	2015_May_04_1227	s	s	2	2	SIC	380	ABS	1	1	02VD 02VO 02VC 02MD 10MO 02MC 02RD 02RO	0	1	2.42794799805	None	None	None	None	1
2.7	2015_May_04_1227	s	s	2	2	SIC	381	RC	2	2	09VD 02VO 02VC 02MD 02MO 02MC 02RD 02RO	1	0	1.18863105774	418.0	60.0	410	60	1
2.7	2015_May_04_1227	s	s	2	2	SIC	382	ABS	0	2	02VD 02VO 02VC 02MD 02MO 02MC 10RD 02RO	0	1	2.28987503052	None	None	None	None	1
2.7	2015_May_04_1227	s	s	2	2	SIC	383	RC	2	1	02VD 09VO 02VC 02MD 02MO 02MC 02RD 02RO	1	0	1.38816285133	342.0	283.0	349	290	1
2.7	2015_May_04_1227	s	s	2	2	SIC	384	RC	1	0	02VD 02VO 02VC 02MD 02MO 09MC 02RD 02RO	1	0	0.771358966827	181.0	279.0	173	273	1
2.7	2015_May_04_1227	s	s	2	2	SIC	385	ABS	1	0	02VD 02VO 02VC 02MD 02MO 10MC 02RD 02RO	0	1	2.57712388039	None	None	None	None	1
2.7	2015_May_04_1227	s	s	2	2	SIC	386	ABS	0	1	02VD 02VO 02VC 02MD 02MO 02MC 02RD 10RO	0	1	2.75354504585	None	None	None	None	1
2.7	2015_May_04_1227	s	s	2	2	SIC	387	RC	0	2	02VD 02VO 02VC 02MD 02MO 02MC 09RD 02RO	1	0	0.76441693306	-370.0	111.0	-380	111	1
2.7	2015_May_04_1227	s	s	2	2	SIC	388	ABS	2	2	10VD 02VO 02VC 02MD 02MO 02MC 02RD 02RO	0	1	1.80637407303	None	None	None	None	1
2.7	2015_May_04_1227	s	s	2	2	SIC	389	RC	2	1	02VD 09VO 02VC 02MD 02MO 02MC 02RD 02RO	1	0	1.37172102928	-293.0	368.0	-300	369	1
2.7	2015_May_04_1227	s	s	2	2	SIC	390	ABS	1	2	02VD 02VO 02VC 10MD 02MO 02MC 02RD 02RO	0	1	1.32949018478	None	None	None	None	1
2.7	2015_May_04_1227	s	s	2	2	SIC	391	RC	2	0	02VD 02VO 09VC 02MD 02MO 02MC 02RD 02RO	1	0	0.729094028473	184.0	72.0	181	70	1
2.7	2015_May_04_1227	s	s	2	2	SIC	392	RC	0	1	02VD 02VO 02VC 02MD 02MO 02MC 02RD 09RO	1	0	3.08330202103	476.0	256.0	467	254	1
2.7	2015_May_04_1227	s	s	2	2	SIC	393	RC	1	1	02VD 02VO 02VC 02MD 09MO 02MC 02RD 02RO	1	0	2.23088884354	-482.0	-328.0	-478	-319	1
2.7	2015_May_04_1227	s	s	2	2	SIC	394	RC	1	0	02VD 02VO 02VC 02MD 02MO 09MC 02RD 02RO	1	0	1.15976309776	253.0	60.0	249	63	1
2.7	2015_May_04_1227	s	s	2	2	SIC	395	ABS	1	1	02VD 02VO 02VC 02MD 10MO 02MC 02RD 02RO	0	1	1.65397500992	None	None	None	None	1
2.7	2015_May_04_1227	s	s	2	2	SIC	396	ABS	2	0	02VD 02VO 10VC 02MD 02MO 02MC 02RD 02RO	0	1	1.52952694893	None	None	None	None	1
2.7	2015_May_04_1227	s	s	2	2	SIC	397	ABS	2	1	02VD 10VO 02VC 02MD 02MO 02MC 02RD 02RO	0	1	1.47894501686	None	None	None	None	1
2.7	2015_May_04_1227	s	s	2	2	SIC	398	RC	1	2	02VD 02VO 02VC 09MD 02MO 02MC 02RD 02RO	1	0	1.17045712471	-258.0	-241.0	-257	-239	1
2.7	2015_May_04_1227	s	s	2	2	SIC	399	ABS	0	2	02VD 02VO 02VC 02MD 02MO 02MC 10RD 02RO	0	1	2.6422932148	None	None	None	None	1
2.7	2015_May_04_1227	s	s	2	2	SIC	400	RC	2	2	09VD 02VO 02VC 02MD 02MO 02MC 02RD 02RO	1	0	1.93604207039	233.0	-302.0	232	-299	1
2.7	2015_May_04_1227	s	s	2	2	SIC	401	RC	1	2	02VD 02VO 02VC 09MD 02MO 02MC 02RD 02RO	1	0	0.738643169403	30.0	-236.0	32	-243	1
2.7	2015_May_04_1227	s	s	2	2	SIC	402	ABS	1	2	02VD 02VO 02VC 10MD 02MO 02MC 02RD 02RO	0	1	1.52430510521	None	None	None	None	1
2.7	2015_May_04_1227	s	s	2	2	SIC	403	RC	2	1	02VD 09VO 02VC 02MD 02MO 02MC 02RD 02RO	1	0	0.937727928162	-222.0	28.0	-212	33	1
2.7	2015_May_04_1227	s	s	2	2	SIC	404	ABS	1	1	02VD 02VO 02VC 02MD 10MO 02MC 02RD 02RO	0	1	2.9016149044	None	None	None	None	1
2.7	2015_May_04_1227	s	s	2	2	SIC	405	RC	1	0	02VD 02VO 02VC 02MD 02MO 09MC 02RD 02RO	1	0	1.61883807182	251.0	354.0	248	355	1
2.7	2015_May_04_1227	s	s	2	2	SIC	406	ABS	0	2	02VD 02VO 02VC 02MD 02MO 02MC 10RD 02RO	0	1	2.32484579086	None	None	None	None	1
2.7	2015_May_04_1227	s	s	2	2	SIC	407	ABS	1	0	02VD 02VO 02VC 02MD 02MO 10MC 02RD 02RO	0	1	3.14900398254	None	None	None	None	1
2.7	2015_May_04_1227	s	s	2	2	SIC	408	RC	2	0	02VD 02VO 09VC 02MD 02MO 02MC 02RD 02RO	1	0	1.65902400017	-56.0	-304.0	-64	-300	1
2.7	2015_May_04_1227	s	s	2	2	SIC	409	RC	0	1	02VD 02VO 02VC 02MD 02MO 02MC 02RD 09RO	1	0	1.24448895454	-207.0	-325.0	-205	-318	1
2.7	2015_May_04_1227	s	s	2	2	SIC	410	RC	0	2	02VD 02VO 02VC 02MD 02MO 02MC 09RD 02RO	1	0	1.0437810421	-328.0	192.0	-334	187	1
2.7	2015_May_04_1227	s	s	2	2	SIC	411	ABS	0	1	02VD 02VO 02VC 02MD 02MO 02MC 02RD 10RO	0	1	2.92229604721	None	None	None	None	1
2.7	2015_May_04_1227	s	s	2	2	SIC	412	ABS	2	2	10VD 02VO 02VC 02MD 02MO 02MC 02RD 02RO	0	1	1.93654489517	None	None	None	None	1
2.7	2015_May_04_1227	s	s	2	2	SIC	413	ABS	2	0	02VD 02VO 10VC 02MD 02MO 02MC 02RD 02RO	0	1	1.63549399376	None	None	None	None	1
2.7	2015_May_04_1227	s	s	2	2	SIC	414	ABS	2	1	02VD 10VO 02VC 02MD 02MO 02MC 02RD 02RO	0	1	1.88953208923	None	None	None	None	1
2.7	2015_May_04_1227	s	s	2	2	SIC	415	RC	1	1	02VD 02VO 02VC 02MD 09MO 02MC 02RD 02RO	1	0	1.19991898537	-264.0	-174.0	-274	-176	1
2.7	2015_May_04_1227	s	s	2	2	SIC	416	RC	2	2	09VD 02VO 02VC 02MD 02MO 02MC 02RD 02RO	1	0	1.21175599098	126.0	281.0	125	277	1
2.7	2015_May_04_1227	s	s	2	2	SIC	417	ABS	2	1	02VD 10VO 02VC 02MD 02MO 02MC 02RD 02RO	0	1	1.84730100632	None	None	None	None	1
2.7	2015_May_04_1227	s	s	2	2	SIC	418	ABS	0	2	02VD 02VO 02VC 02MD 02MO 02MC 10RD 02RO	0	1	1.76216983795	None	None	None	None	1
2.7	2015_May_04_1227	s	s	2	2	SIC	419	ABS	0	1	02VD 02VO 02VC 02MD 02MO 02MC 02RD 10RO	0	1	3.24317097664	None	None	None	None	1
2.7	2015_May_04_1227	s	s	2	2	SIC	420	RC	0	1	02VD 02VO 02VC 02MD 02MO 02MC 02RD 09RO	1	0	3.29298710823	368.0	-387.0	362	-381	1
2.7	2015_May_04_1227	s	s	2	2	SIC	421	RC	1	0	02VD 02VO 02VC 02MD 02MO 09MC 02RD 02RO	1	0	1.30101895332	244.0	209.0	239	209	1
2.7	2015_May_04_1227	s	s	2	2	SIC	422	RC	2	0	02VD 02VO 09VC 02MD 02MO 02MC 02RD 02RO	1	0	1.18336987495	-517.0	332.0	-516	334	1
2.7	2015_May_04_1227	s	s	2	2	SIC	423	RC	1	2	02VD 02VO 02VC 09MD 02MO 02MC 02RD 02RO	1	0	1.26567912102	276.0	47.0	276	48	1
2.7	2015_May_04_1227	s	s	2	2	SIC	424	ABS	1	2	02VD 02VO 02VC 10MD 02MO 02MC 02RD 02RO	0	1	1.86590600014	None	None	None	None	1
2.7	2015_May_04_1227	s	s	2	2	SIC	425	ABS	1	1	02VD 02VO 02VC 02MD 10MO 02MC 02RD 02RO	0	1	1.61191105843	None	None	None	None	1
2.7	2015_May_04_1227	s	s	2	2	SIC	426	RC	1	1	02VD 02VO 02VC 02MD 09MO 02MC 02RD 02RO	1	0	0.924998044968	252.0	-118.0	254	-114	1
2.7	2015_May_04_1227	s	s	2	2	SIC	427	RC	2	1	02VD 09VO 02VC 02MD 02MO 02MC 02RD 02RO	1	0	1.47761201859	-489.0	-402.0	-484	-397	1
2.7	2015_May_04_1227	s	s	2	2	SIC	428	ABS	1	0	02VD 02VO 02VC 02MD 02MO 10MC 02RD 02RO	0	1	1.51376914978	None	None	None	None	1
2.7	2015_May_04_1227	s	s	2	2	SIC	429	RC	0	2	02VD 02VO 02VC 02MD 02MO 02MC 09RD 02RO	1	0	2.65462493896	255.0	286.0	261	277	1
2.7	2015_May_04_1227	s	s	2	2	SIC	430	ABS	2	0	02VD 02VO 10VC 02MD 02MO 02MC 02RD 02RO	0	1	1.71790599823	None	None	None	None	1
2.7	2015_May_04_1227	s	s	2	2	SIC	431	ABS	2	2	10VD 02VO 02VC 02MD 02MO 02MC 02RD 02RO	0	1	2.04745483398	None	None	None	None	1
2.7	2015_May_04_1227	s	s	2	2	SIC	432	RC	2	2	09VD 02VO 02VC 02MD 02MO 02MC 02RD 02RO	1	0	0.818228006363	-40.0	-120.0	-40	-114	1
2.7	2015_May_04_1227	s	s	2	2	SIC	433	ABS	1	2	02VD 02VO 02VC 10MD 02MO 02MC 02RD 02RO	0	1	2.10612797737	None	None	None	None	1
2.7	2015_May_04_1227	s	s	2	2	SIC	434	ABS	0	2	02VD 02VO 02VC 02MD 02MO 02MC 10RD 02RO	0	1	1.90622019768	None	None	None	None	1
2.7	2015_May_04_1227	s	s	2	2	SIC	435	ABS	2	2	10VD 02VO 02VC 02MD 02MO 02MC 02RD 02RO	0	1	3.50688505173	None	None	None	None	1
2.7	2015_May_04_1227	s	s	2	2	SIC	436	ABS	2	1	02VD 10VO 02VC 02MD 02MO 02MC 02RD 02RO	0	1	1.5603621006	None	None	None	None	1
2.7	2015_May_04_1227	s	s	2	2	SIC	437	ABS	0	1	02VD 02VO 02VC 02MD 02MO 02MC 02RD 10RO	0	1	3.58943104744	None	None	None	None	1
2.7	2015_May_04_1227	s	s	2	2	SIC	438	ABS	1	1	02VD 02VO 02VC 02MD 10MO 02MC 02RD 02RO	0	1	1.96908807755	None	None	None	None	1
2.7	2015_May_04_1227	s	s	2	2	SIC	439	RC	2	0	02VD 02VO 09VC 02MD 02MO 02MC 02RD 02RO	1	0	2.05916500092	-353.0	338.0	-349	341	1
2.7	2015_May_04_1227	s	s	2	2	SIC	440	ABS	2	0	02VD 02VO 10VC 02MD 02MO 02MC 02RD 02RO	0	1	2.08269190788	None	None	None	None	1
2.7	2015_May_04_1227	s	s	2	2	SIC	441	RC	0	1	02VD 02VO 02VC 02MD 02MO 02MC 02RD 09RO	1	0	0.799782037735	-225.0	211.0	-224	212	1
2.7	2015_May_04_1227	s	s	2	2	SIC	442	ABS	1	0	02VD 02VO 02VC 02MD 02MO 10MC 02RD 02RO	0	1	1.7767457962	None	None	None	None	1
2.7	2015_May_04_1227	s	s	2	2	SIC	443	RC	1	2	02VD 02VO 02VC 09MD 02MO 02MC 02RD 02RO	1	0	0.588031053543	68.0	159.0	73	149	1
2.7	2015_May_04_1227	s	s	2	2	SIC	444	RC	2	1	02VD 09VO 02VC 02MD 02MO 02MC 02RD 02RO	1	0	1.84311199188	24.0	-255.0	25	-264	1
2.7	2015_May_04_1227	s	s	2	2	SIC	445	RC	1	1	02VD 02VO 02VC 02MD 09MO 02MC 02RD 02RO	1	0	0.799752950668	-135.0	-172.0	-138	-176	1
2.7	2015_May_04_1227	s	s	2	2	SIC	446	RC	2	2	09VD 02VO 02VC 02MD 02MO 02MC 02RD 02RO	1	0	1.0233039856	-326.0	257.0	-326	252	1
2.7	2015_May_04_1227	s	s	2	2	SIC	447	RC	1	0	02VD 02VO 02VC 02MD 02MO 09MC 02RD 02RO	1	0	1.12930011749	-403.0	-181.0	-403	-182	1
2.7	2015_May_04_1227	s	s	2	2	SIC	448	RC	0	2	02VD 02VO 02VC 02MD 02MO 02MC 09RD 02RO	1	0	0.936106920242	-453.0	177.0	-444	183	1
2.7	2015_May_04_1227	s	s	2	2	SIC	449	RC	2	1	02VD 09VO 02VC 02MD 02MO 02MC 02RD 02RO	1	0	0.929184913635	-418.0	299.0	-415	303	1
2.7	2015_May_04_1227	s	s	2	2	SIC	450	ABS	2	0	02VD 02VO 10VC 02MD 02MO 02MC 02RD 02RO	0	1	2.00726795197	None	None	None	None	1
2.7	2015_May_04_1227	s	s	2	2	SIC	451	RC	1	1	02VD 02VO 02VC 02MD 09MO 02MC 02RD 02RO	1	0	2.13670086861	328.0	-286.0	337	-284	1
2.7	2015_May_04_1227	s	s	2	2	SIC	452	ABS	2	1	02VD 10VO 02VC 02MD 02MO 02MC 02RD 02RO	0	1	1.6589910984	None	None	None	None	1
2.7	2015_May_04_1227	s	s	2	2	SIC	453	RC	0	1	02VD 02VO 02VC 02MD 02MO 02MC 02RD 09RO	1	0	3.20834183693	-272.0	-201.0	69	-65	0
2.7	2015_May_04_1227	s	s	2	2	SIC	454	RC	0	2	02VD 02VO 02VC 02MD 02MO 02MC 09RD 02RO	1	0	1.29417204857	-494.0	-69.0	-503	-63	1
2.7	2015_May_04_1227	s	s	2	2	SIC	455	ABS	0	2	02VD 02VO 02VC 02MD 02MO 02MC 10RD 02RO	0	1	1.73854017258	None	None	None	None	1
2.7	2015_May_04_1227	s	s	2	2	SIC	456	ABS	1	0	02VD 02VO 02VC 02MD 02MO 10MC 02RD 02RO	0	1	2.92520499229	None	None	None	None	1
2.7	2015_May_04_1227	s	s	2	2	SIC	457	ABS	1	1	02VD 02VO 02VC 02MD 10MO 02MC 02RD 02RO	0	1	2.80075287819	None	None	None	None	1
2.7	2015_May_04_1227	s	s	2	2	SIC	458	RC	2	0	02VD 02VO 09VC 02MD 02MO 02MC 02RD 02RO	1	0	0.799823045731	159.0	-227.0	156	-227	1
2.7	2015_May_04_1227	s	s	2	2	SIC	459	ABS	0	1	02VD 02VO 02VC 02MD 02MO 02MC 02RD 10RO	0	1	2.93967914581	None	None	None	None	1
2.7	2015_May_04_1227	s	s	2	2	SIC	460	RC	1	0	02VD 02VO 02VC 02MD 02MO 09MC 02RD 02RO	1	0	1.82400393486	325.0	-402.0	319	-408	1
2.7	2015_May_04_1227	s	s	2	2	SIC	461	RC	2	2	09VD 02VO 02VC 02MD 02MO 02MC 02RD 02RO	1	0	0.82337808609	-121.0	-51.0	-117	-49	1
2.7	2015_May_04_1227	s	s	2	2	SIC	462	ABS	2	2	10VD 02VO 02VC 02MD 02MO 02MC 02RD 02RO	0	1	2.12485599518	None	None	None	None	1
2.7	2015_May_04_1227	s	s	2	2	SIC	463	ABS	1	2	02VD 02VO 02VC 10MD 02MO 02MC 02RD 02RO	0	1	2.51515293121	None	None	None	None	1
2.7	2015_May_04_1227	s	s	2	2	SIC	464	RC	1	2	02VD 02VO 02VC 09MD 02MO 02MC 02RD 02RO	1	0	1.10095000267	418.0	158.0	410	158	1
2.7	2015_May_04_1227	s	s	2	2	SIC	465	RC	1	0	02VD 02VO 02VC 02MD 02MO 09MC 02RD 02RO	1	0	2.871352911	331.0	-375.0	321	-368	1
2.7	2015_May_04_1227	s	s	2	2	SIC	466	RC	1	2	02VD 02VO 02VC 09MD 02MO 02MC 02RD 02RO	1	0	0.964574098587	-477.0	-43.0	-484	-46	1
2.7	2015_May_04_1227	s	s	2	2	SIC	467	ABS	1	0	02VD 02VO 02VC 02MD 02MO 10MC 02RD 02RO	0	1	1.90613698959	None	None	None	None	1
2.7	2015_May_04_1227	s	s	2	2	SIC	468	ABS	1	2	02VD 02VO 02VC 10MD 02MO 02MC 02RD 02RO	0	1	2.08275604248	None	None	None	None	1
2.7	2015_May_04_1227	s	s	2	2	SIC	469	RC	2	2	09VD 02VO 02VC 02MD 02MO 02MC 02RD 02RO	1	0	0.752724170685	-424.0	323.0	-421	317	1
2.7	2015_May_04_1227	s	s	2	2	SIC	470	ABS	2	2	10VD 02VO 02VC 02MD 02MO 02MC 02RD 02RO	0	1	1.87080383301	None	None	None	None	1
2.7	2015_May_04_1227	s	s	2	2	SIC	471	ABS	2	1	02VD 10VO 02VC 02MD 02MO 02MC 02RD 02RO	0	1	1.71790003777	None	None	None	None	1
2.7	2015_May_04_1227	s	s	2	2	SIC	472	RC	2	1	02VD 09VO 02VC 02MD 02MO 02MC 02RD 02RO	1	0	1.52957415581	359.0	401.0	363	410	1
2.7	2015_May_04_1227	s	s	2	2	SIC	473	ABS	1	1	02VD 02VO 02VC 02MD 10MO 02MC 02RD 02RO	0	1	2.09257912636	None	None	None	None	1
2.7	2015_May_04_1227	s	s	2	2	SIC	474	RC	1	1	02VD 02VO 02VC 02MD 09MO 02MC 02RD 02RO	1	0	1.94844579697	525.0	-288.0	521	-288	1
2.7	2015_May_04_1227	s	s	2	2	SIC	475	ABS	0	2	02VD 02VO 02VC 02MD 02MO 02MC 10RD 02RO	0	1	1.71778798103	None	None	None	None	1
2.7	2015_May_04_1227	s	s	2	2	SIC	476	RC	2	0	02VD 02VO 09VC 02MD 02MO 02MC 02RD 02RO	1	0	0.691395998001	-339.0	19.0	-346	20	1
2.7	2015_May_04_1227	s	s	2	2	SIC	477	RC	0	1	02VD 02VO 02VC 02MD 02MO 02MC 02RD 09RO	1	0	0.853352069855	-63.0	-180.0	-70	-180	1
2.7	2015_May_04_1227	s	s	2	2	SIC	478	RC	0	2	02VD 02VO 02VC 02MD 02MO 02MC 09RD 02RO	1	0	1.41182303429	499.0	268.0	507	271	1
2.7	2015_May_04_1227	s	s	2	2	SIC	479	ABS	2	0	02VD 02VO 10VC 02MD 02MO 02MC 02RD 02RO	0	1	1.51285791397	None	None	None	None	1
2.7	2015_May_04_1227	s	s	2	2	SIC	480	ABS	0	1	02VD 02VO 02VC 02MD 02MO 02MC 02RD 10RO	1	0	3.16072201729	None	None	22	-16	0
