Version	Date	Stimuli	Method	Subject	Session	Condition	Trial	Target	Channel1	Channel2	Distractors	LMouseButton	RMouseButton	RT	TargetX	TargetY	ResponseX	ResponseY	Correct
2.7	2015_May_06_1213	s	s	2	4	Capacity	1	RC	2	0	15VC 08MC	1	0	0.98530292511	-105.0	306.0	-103	305	1
2.7	2015_May_06_1213	s	s	2	4	Capacity	2	ABS	2	0	16VC 08MC	0	1	1.71307420731	None	None	None	None	1
2.7	2015_May_06_1213	s	s	2	4	Capacity	3	RC	1	0	08VC 15MC	1	0	2.01210093498	-352.0	-356.0	-350	-357	1
2.7	2015_May_06_1213	s	s	2	4	Capacity	4	ABS	1	0	08VC 16MC	0	1	3.2715909481	None	None	None	None	1
2.7	2015_May_06_1213	s	s	2	4	Capacity	5	ABS	1	0	08VC 16MC	0	1	2.08328700066	None	None	None	None	1
2.7	2015_May_06_1213	s	s	2	4	Capacity	6	RC	1	0	08VC 15MC	1	0	0.688170909882	-388.0	347.0	-389	342	1
2.7	2015_May_06_1213	s	s	2	4	Capacity	7	ABS	2	0	16VC 08MC	0	1	1.77673482895	None	None	None	None	1
2.7	2015_May_06_1213	s	s	2	4	Capacity	8	RC	2	0	15VC 08MC	1	0	1.18280601501	431.0	265.0	427	257	1
2.7	2015_May_06_1213	s	s	2	4	Capacity	9	RC	1	0	08VC 15MC	1	0	1.20916604996	528.0	219.0	531	225	1
2.7	2015_May_06_1213	s	s	2	4	Capacity	10	ABS	1	0	08VC 16MC	0	1	1.40008091927	None	None	None	None	1
2.7	2015_May_06_1213	s	s	2	4	Capacity	11	ABS	2	0	16VC 08MC	0	1	1.74843788147	None	None	None	None	1
2.7	2015_May_06_1213	s	s	2	4	Capacity	12	RC	2	0	15VC 08MC	1	0	0.835477113724	405.0	-317.0	399	-311	1
2.7	2015_May_06_1213	s	s	2	4	Capacity	13	ABS	1	0	08VC 16MC	0	1	1.88264918327	None	None	None	None	1
2.7	2015_May_06_1213	s	s	2	4	Capacity	14	RC	1	0	08VC 15MC	1	0	0.650521993637	38.0	131.0	39	140	1
2.7	2015_May_06_1213	s	s	2	4	Capacity	15	RC	2	0	15VC 08MC	1	0	0.618005990982	-211.0	102.0	-208	97	1
2.7	2015_May_06_1213	s	s	2	4	Capacity	16	ABS	2	0	16VC 08MC	0	1	1.86594390869	None	None	None	None	1
2.7	2015_May_06_1213	s	s	2	4	Capacity	17	RC	2	0	15VC 08MC	1	0	0.571622133255	211.0	398.0	213	401	1
2.7	2015_May_06_1213	s	s	2	4	Capacity	18	RC	1	0	08VC 15MC	1	0	1.11267781258	523.0	-106.0	529	-101	1
2.7	2015_May_06_1213	s	s	2	4	Capacity	19	ABS	1	0	08VC 16MC	0	1	2.48934102058	None	None	None	None	1
2.7	2015_May_06_1213	s	s	2	4	Capacity	20	ABS	2	0	16VC 08MC	0	1	2.05923390388	None	None	None	None	1
2.7	2015_May_06_1213	s	s	2	4	Capacity	21	RC	2	0	15VC 08MC	1	0	0.571614027023	98.0	4.0	101	8	1
2.7	2015_May_06_1213	s	s	2	4	Capacity	22	ABS	2	0	16VC 08MC	0	1	1.62111115456	None	None	None	None	1
2.7	2015_May_06_1213	s	s	2	4	Capacity	23	ABS	1	0	08VC 16MC	0	1	1.85109901428	None	None	None	None	1
2.7	2015_May_06_1213	s	s	2	4	Capacity	24	RC	1	0	08VC 15MC	1	0	0.776794195175	-206.0	376.0	-205	381	1
2.7	2015_May_06_1213	s	s	2	4	Capacity	25	ABS	2	0	16VC 08MC	0	1	1.21173596382	None	None	None	None	1
2.7	2015_May_06_1213	s	s	2	4	Capacity	26	ABS	1	0	08VC 16MC	0	1	2.3017449379	None	None	None	None	1
2.7	2015_May_06_1213	s	s	2	4	Capacity	27	RC	1	0	08VC 15MC	1	0	0.93522810936	477.0	-106.0	474	-106	1
2.7	2015_May_06_1213	s	s	2	4	Capacity	28	RC	2	0	15VC 08MC	1	0	0.61999297142	318.0	381.0	319	372	1
2.7	2015_May_06_1213	s	s	2	4	Capacity	29	RC	1	0	08VC 15MC	1	0	0.776534080505	-145.0	-44.0	-147	-39	1
2.7	2015_May_06_1213	s	s	2	4	Capacity	30	ABS	1	0	08VC 16MC	0	1	1.89109110832	None	None	None	None	1
2.7	2015_May_06_1213	s	s	2	4	Capacity	31	ABS	2	0	16VC 08MC	0	1	1.31253385544	None	None	None	None	1
2.7	2015_May_06_1213	s	s	2	4	Capacity	32	RC	2	0	15VC 08MC	1	0	0.744649887085	16.0	-132.0	18	-141	1
2.7	2015_May_06_1213	s	s	2	4	Capacity	33	RC	1	0	08VC 15MC	1	0	0.529055118561	262.0	-31.0	262	-36	1
2.7	2015_May_06_1213	s	s	2	4	Capacity	34	RC	2	0	15VC 08MC	1	0	0.583013057709	348.0	133.0	354	125	1
2.7	2015_May_06_1213	s	s	2	4	Capacity	35	ABS	1	0	08VC 16MC	0	1	1.71294307709	None	None	None	None	1
2.7	2015_May_06_1213	s	s	2	4	Capacity	36	ABS	2	0	16VC 08MC	0	1	1.30068492889	None	None	None	None	1
2.7	2015_May_06_1213	s	s	2	4	Capacity	37	ABS	2	0	16VC 08MC	0	1	1.0940527916	None	None	None	None	1
2.7	2015_May_06_1213	s	s	2	4	Capacity	38	RC	1	0	08VC 15MC	1	0	0.653492927551	-60.0	223.0	-54	231	1
2.7	2015_May_06_1213	s	s	2	4	Capacity	39	ABS	1	0	08VC 16MC	0	1	2.12979197502	None	None	None	None	1
2.7	2015_May_06_1213	s	s	2	4	Capacity	40	RC	2	0	15VC 08MC	1	0	0.493659973145	446.0	-171.0	447	-175	1
2.7	2015_May_06_1213	s	s	2	4	Capacity	41	ABS	1	0	08VC 16MC	0	1	2.19560408592	None	None	None	None	1
2.7	2015_May_06_1213	s	s	2	4	Capacity	42	RC	2	0	15VC 08MC	1	0	0.74748301506	-524.0	278.0	-519	281	1
2.7	2015_May_06_1213	s	s	2	4	Capacity	43	ABS	2	0	16VC 08MC	0	1	1.70287108421	None	None	None	None	1
2.7	2015_May_06_1213	s	s	2	4	Capacity	44	RC	1	0	08VC 15MC	1	0	0.564327955246	-49.0	187.0	-54	191	1
2.7	2015_May_06_1213	s	s	2	4	Capacity	45	RC	1	0	08VC 15MC	1	0	1.05365109444	336.0	368.0	345	374	1
2.7	2015_May_06_1213	s	s	2	4	Capacity	46	ABS	1	0	08VC 16MC	0	1	1.66586613655	None	None	None	None	1
2.7	2015_May_06_1213	s	s	2	4	Capacity	47	ABS	2	0	16VC 08MC	0	1	1.14105606079	None	None	None	None	1
2.7	2015_May_06_1213	s	s	2	4	Capacity	48	RC	2	0	15VC 08MC	0	1	1.43581700325	512.0	178.0	None	None	0
2.7	2015_May_06_1213	s	s	2	4	Capacity	49	RC	1	0	08VC 15MC	1	0	0.635419130325	-187.0	-20.0	-185	-20	1
2.7	2015_May_06_1213	s	s	2	4	Capacity	50	RC	2	0	15VC 08MC	1	0	0.717339038849	316.0	181.0	319	184	1
2.7	2015_May_06_1213	s	s	2	4	Capacity	51	ABS	1	0	08VC 16MC	0	1	1.80698800087	None	None	None	None	1
2.7	2015_May_06_1213	s	s	2	4	Capacity	52	ABS	2	0	16VC 08MC	0	1	1.6305577755	None	None	None	None	1
2.7	2015_May_06_1213	s	s	2	4	Capacity	53	RC	2	0	15VC 08MC	1	0	0.623245954514	-189.0	-217.0	-191	-211	1
2.7	2015_May_06_1213	s	s	2	4	Capacity	54	ABS	2	0	16VC 08MC	0	1	1.63061213493	None	None	None	None	1
2.7	2015_May_06_1213	s	s	2	4	Capacity	55	ABS	1	0	08VC 16MC	0	1	1.34121894836	None	None	None	None	1
2.7	2015_May_06_1213	s	s	2	4	Capacity	56	RC	1	0	08VC 15MC	1	0	0.682063102722	476.0	-23.0	467	-16	1
2.7	2015_May_06_1213	s	s	2	4	Capacity	57	ABS	1	0	08VC 16MC	0	1	2.54866099358	None	None	None	None	1
2.7	2015_May_06_1213	s	s	2	4	Capacity	58	ABS	2	0	16VC 08MC	0	1	1.31766200066	None	None	None	None	1
2.7	2015_May_06_1213	s	s	2	4	Capacity	59	RC	1	0	08VC 15MC	1	0	0.630120038986	226.0	-126.0	220	-119	1
2.7	2015_May_06_1213	s	s	2	4	Capacity	60	RC	2	0	15VC 08MC	1	0	0.517382144928	-230.0	-111.0	-227	-107	1
2.7	2015_May_06_1213	s	s	2	4	Capacity	61	RC	1	0	08VC 15MC	1	0	0.988065958023	-197.0	-58.0	-189	-55	1
2.7	2015_May_06_1213	s	s	2	4	Capacity	62	RC	2	0	15VC 08MC	1	0	0.611438035965	-526.0	21.0	-530	15	1
2.7	2015_May_06_1213	s	s	2	4	Capacity	63	ABS	2	0	16VC 08MC	0	1	1.18304395676	None	None	None	None	1
2.7	2015_May_06_1213	s	s	2	4	Capacity	64	ABS	1	0	08VC 16MC	0	1	2.10627913475	None	None	None	None	1
2.7	2015_May_06_1213	s	s	2	4	Capacity	1	RC	0	2	15RD 08RO	1	0	1.4297709465	87.0	-377.0	94	-373	1
2.7	2015_May_06_1213	s	s	2	4	Capacity	2	ABS	0	1	08RD 16RO	0	1	4.22495985031	None	None	None	None	1
2.7	2015_May_06_1213	s	s	2	4	Capacity	3	ABS	0	2	16RD 08RO	0	1	2.25934696198	None	None	None	None	1
2.7	2015_May_06_1213	s	s	2	4	Capacity	4	RC	0	1	08RD 15RO	1	0	1.36218905449	175.0	-53.0	180	-50	1
2.7	2015_May_06_1213	s	s	2	4	Capacity	5	RC	0	1	08RD 15RO	1	0	1.66762399673	499.0	-179.0	504	-174	1
2.7	2015_May_06_1213	s	s	2	4	Capacity	6	ABS	0	2	16RD 08RO	0	1	3.07151317596	None	None	None	None	1
2.7	2015_May_06_1213	s	s	2	4	Capacity	7	ABS	0	1	08RD 16RO	0	1	4.22539806366	None	None	None	None	1
2.7	2015_May_06_1213	s	s	2	4	Capacity	8	RC	0	2	15RD 08RO	1	0	0.5878469944	-329.0	357.0	-329	353	1
2.7	2015_May_06_1213	s	s	2	4	Capacity	9	ABS	0	1	08RD 16RO	0	1	3.87217998505	None	None	None	None	1
2.7	2015_May_06_1213	s	s	2	4	Capacity	10	RC	0	1	08RD 15RO	1	0	1.12566685677	-288.0	-258.0	-288	-255	1
2.7	2015_May_06_1213	s	s	2	4	Capacity	11	ABS	0	2	16RD 08RO	0	1	2.88314509392	None	None	None	None	1
2.7	2015_May_06_1213	s	s	2	4	Capacity	12	RC	0	2	15RD 08RO	1	0	1.01168489456	-495.0	-411.0	-488	-402	1
2.7	2015_May_06_1213	s	s	2	4	Capacity	13	ABS	0	1	08RD 16RO	0	1	4.43119907379	None	None	None	None	1
2.7	2015_May_06_1213	s	s	2	4	Capacity	14	RC	0	2	15RD 08RO	1	0	0.959131002426	-463.0	113.0	-464	117	1
2.7	2015_May_06_1213	s	s	2	4	Capacity	15	RC	0	1	08RD 15RO	1	0	0.713147163391	-123.0	147.0	-121	142	1
2.7	2015_May_06_1213	s	s	2	4	Capacity	16	ABS	0	2	16RD 08RO	0	1	2.51821017265	None	None	None	None	1
2.7	2015_May_06_1213	s	s	2	4	Capacity	17	RC	0	1	08RD 15RO	1	0	2.35717701912	465.0	-403.0	458	-406	1
2.7	2015_May_06_1213	s	s	2	4	Capacity	18	ABS	0	1	08RD 16RO	0	1	4.30736804008	None	None	None	None	1
2.7	2015_May_06_1213	s	s	2	4	Capacity	19	RC	0	2	15RD 08RO	1	0	2.15707182884	5.0	-240.0	12	-238	1
2.7	2015_May_06_1213	s	s	2	4	Capacity	20	ABS	0	2	16RD 08RO	0	1	2.38877511024	None	None	None	None	1
2.7	2015_May_06_1213	s	s	2	4	Capacity	21	RC	0	2	15RD 08RO	1	0	1.81884813309	204.0	35.0	216	36	1
2.7	2015_May_06_1213	s	s	2	4	Capacity	22	ABS	0	2	16RD 08RO	0	1	2.4451379776	None	None	None	None	1
2.7	2015_May_06_1213	s	s	2	4	Capacity	23	ABS	0	1	08RD 16RO	0	1	4.24341416359	None	None	None	None	1
2.7	2015_May_06_1213	s	s	2	4	Capacity	24	RC	0	1	08RD 15RO	1	0	2.51587891579	308.0	152.0	306	158	1
2.7	2015_May_06_1213	s	s	2	4	Capacity	25	ABS	0	1	08RD 16RO	0	1	4.04331707954	None	None	None	None	1
2.7	2015_May_06_1213	s	s	2	4	Capacity	26	RC	0	2	15RD 08RO	1	0	0.611351013184	-113.0	222.0	-106	221	1
2.7	2015_May_06_1213	s	s	2	4	Capacity	27	RC	0	1	08RD 15RO	1	0	1.11751103401	-9.0	236.0	-14	228	1
2.7	2015_May_06_1213	s	s	2	4	Capacity	28	ABS	0	2	16RD 08RO	0	1	1.94819808006	None	None	None	None	1
2.7	2015_May_06_1213	s	s	2	4	Capacity	29	ABS	0	2	16RD 08RO	0	1	2.02389097214	None	None	None	None	1
2.7	2015_May_06_1213	s	s	2	4	Capacity	30	RC	0	1	08RD 15RO	1	0	0.964556932449	-337.0	-165.0	-333	-164	1
2.7	2015_May_06_1213	s	s	2	4	Capacity	31	ABS	0	1	08RD 16RO	0	1	4.20147204399	None	None	None	None	1
2.7	2015_May_06_1213	s	s	2	4	Capacity	32	RC	0	2	15RD 08RO	1	0	0.811541080475	-167.0	-87.0	-170	-85	1
2.7	2015_May_06_1213	s	s	2	4	Capacity	33	RC	0	1	08RD 15RO	1	0	1.18813800812	158.0	181.0	162	178	1
2.7	2015_May_06_1213	s	s	2	4	Capacity	34	ABS	0	1	08RD 16RO	0	1	4.92860412598	None	None	None	None	1
2.7	2015_May_06_1213	s	s	2	4	Capacity	35	RC	0	2	15RD 08RO	1	0	0.958550930023	-149.0	-326.0	-153	-326	1
2.7	2015_May_06_1213	s	s	2	4	Capacity	36	ABS	0	2	16RD 08RO	0	1	2.28948497772	None	None	None	None	1
2.7	2015_May_06_1213	s	s	2	4	Capacity	37	ABS	0	2	16RD 08RO	0	1	2.42934298515	None	None	None	None	1
2.7	2015_May_06_1213	s	s	2	4	Capacity	38	ABS	0	1	08RD 16RO	0	1	3.77755999565	None	None	None	None	1
2.7	2015_May_06_1213	s	s	2	4	Capacity	39	RC	0	1	08RD 15RO	1	0	2.70176315308	71.0	-381.0	75	-378	1
2.7	2015_May_06_1213	s	s	2	4	Capacity	40	RC	0	2	15RD 08RO	1	0	2.49474000931	-288.0	405.0	-286	410	1
2.7	2015_May_06_1213	s	s	2	4	Capacity	41	RC	0	1	08RD 15RO	1	0	1.02337002754	-243.0	-183.0	-244	-184	1
2.7	2015_May_06_1213	s	s	2	4	Capacity	42	ABS	0	1	08RD 16RO	0	1	6.66152906418	None	None	None	None	1
2.7	2015_May_06_1213	s	s	2	4	Capacity	43	ABS	0	2	16RD 08RO	0	1	2.28283309937	None	None	None	None	1
2.7	2015_May_06_1213	s	s	2	4	Capacity	44	RC	0	2	15RD 08RO	1	0	1.63589406013	-315.0	-261.0	-318	-259	1
2.7	2015_May_06_1213	s	s	2	4	Capacity	45	ABS	0	2	16RD 08RO	0	1	2.71838903427	None	None	None	None	1
2.7	2015_May_06_1213	s	s	2	4	Capacity	46	RC	0	2	15RD 08RO	1	0	1.31280112267	-485.0	-338.0	-475	-333	1
2.7	2015_May_06_1213	s	s	2	4	Capacity	47	ABS	0	1	08RD 16RO	0	1	3.70707201958	None	None	None	None	1
2.7	2015_May_06_1213	s	s	2	4	Capacity	48	RC	0	1	08RD 15RO	1	0	0.788298130035	-246.0	301.0	-241	303	1
2.7	2015_May_06_1213	s	s	2	4	Capacity	49	ABS	0	1	08RD 16RO	0	1	4.56626391411	None	None	None	None	1
2.7	2015_May_06_1213	s	s	2	4	Capacity	50	RC	0	1	08RD 15RO	1	0	1.05872893333	115.0	9.0	117	8	1
2.7	2015_May_06_1213	s	s	2	4	Capacity	51	ABS	0	2	16RD 08RO	0	1	2.79319000244	None	None	None	None	1
2.7	2015_May_06_1213	s	s	2	4	Capacity	52	RC	0	2	15RD 08RO	1	0	1.72442603111	208.0	22.0	201	30	1
2.7	2015_May_06_1213	s	s	2	4	Capacity	53	ABS	0	2	16RD 08RO	0	1	2.77520990372	None	None	None	None	1
2.7	2015_May_06_1213	s	s	2	4	Capacity	54	RC	0	2	15RD 08RO	1	0	0.902155160904	-344.0	75.0	-345	75	1
2.7	2015_May_06_1213	s	s	2	4	Capacity	55	RC	0	1	08RD 15RO	1	0	1.4184551239	-530.0	-376.0	-539	-379	1
2.7	2015_May_06_1213	s	s	2	4	Capacity	56	ABS	0	1	08RD 16RO	0	1	3.83647918701	None	None	None	None	1
2.7	2015_May_06_1213	s	s	2	4	Capacity	57	ABS	0	1	08RD 16RO	0	1	4.38977193832	None	None	None	None	1
2.7	2015_May_06_1213	s	s	2	4	Capacity	58	ABS	0	2	16RD 08RO	0	1	2.53004717827	None	None	None	None	1
2.7	2015_May_06_1213	s	s	2	4	Capacity	59	RC	0	1	08RD 15RO	1	0	0.693765878677	-357.0	58.0	-356	53	1
2.7	2015_May_06_1213	s	s	2	4	Capacity	60	RC	0	2	15RD 08RO	1	0	2.56535696983	375.0	-393.0	372	-385	1
2.7	2015_May_06_1213	s	s	2	4	Capacity	61	ABS	0	2	16RD 08RO	0	1	2.32999897003	None	None	None	None	1
2.7	2015_May_06_1213	s	s	2	4	Capacity	62	RC	0	2	15RD 08RO	1	0	1.21170711517	71.0	-203.0	59	-201	1
2.7	2015_May_06_1213	s	s	2	4	Capacity	63	ABS	0	1	08RD 16RO	0	1	4.43128299713	None	None	None	None	1
2.7	2015_May_06_1213	s	s	2	4	Capacity	64	RC	0	1	08RD 15RO	1	0	1.87080383301	441.0	221.0	443	222	1
2.7	2015_May_06_1213	s	s	2	4	SIC	1	RC	1	1	02VD 02VO 02VC 02MD 09MO 02MC 02RD 02RO	1	0	0.525394916534	-33.0	-14.0	-35	-11	1
2.7	2015_May_06_1213	s	s	2	4	SIC	2	ABS	1	0	02VD 02VO 02VC 02MD 02MO 10MC 02RD 02RO	0	1	2.08276104927	None	None	None	None	1
2.7	2015_May_06_1213	s	s	2	4	SIC	3	ABS	2	2	10VD 02VO 02VC 02MD 02MO 02MC 02RD 02RO	0	1	1.63547301292	None	None	None	None	1
2.7	2015_May_06_1213	s	s	2	4	SIC	4	ABS	2	0	02VD 02VO 10VC 02MD 02MO 02MC 02RD 02RO	0	1	1.43537402153	None	None	None	None	1
2.7	2015_May_06_1213	s	s	2	4	SIC	5	ABS	1	2	02VD 02VO 02VC 10MD 02MO 02MC 02RD 02RO	0	1	1.71305513382	None	None	None	None	1
2.7	2015_May_06_1213	s	s	2	4	SIC	6	ABS	0	2	02VD 02VO 02VC 02MD 02MO 02MC 10RD 02RO	0	1	1.80061101913	None	None	None	None	1
2.7	2015_May_06_1213	s	s	2	4	SIC	7	RC	0	1	02VD 02VO 02VC 02MD 02MO 02MC 02RD 09RO	1	0	0.776191949844	16.0	-137.0	19	-141	1
2.7	2015_May_06_1213	s	s	2	4	SIC	8	RC	0	2	02VD 02VO 02VC 02MD 02MO 02MC 09RD 02RO	1	0	0.641792058945	-167.0	245.0	-168	241	1
2.7	2015_May_06_1213	s	s	2	4	SIC	9	ABS	2	1	02VD 10VO 02VC 02MD 02MO 02MC 02RD 02RO	0	1	2.29462695122	None	None	None	None	1
2.7	2015_May_06_1213	s	s	2	4	SIC	10	RC	2	1	02VD 09VO 02VC 02MD 02MO 02MC 02RD 02RO	1	0	1.30569982529	415.0	-258.0	412	-257	1
2.7	2015_May_06_1213	s	s	2	4	SIC	11	RC	1	2	02VD 02VO 02VC 09MD 02MO 02MC 02RD 02RO	1	0	0.811524868011	-243.0	366.0	-244	364	1
2.7	2015_May_06_1213	s	s	2	4	SIC	12	ABS	1	1	02VD 02VO 02VC 02MD 10MO 02MC 02RD 02RO	0	1	2.78395795822	None	None	None	None	1
2.7	2015_May_06_1213	s	s	2	4	SIC	13	RC	2	0	02VD 02VO 09VC 02MD 02MO 02MC 02RD 02RO	1	0	0.630058050156	50.0	252.0	55	242	1
2.7	2015_May_06_1213	s	s	2	4	SIC	14	RC	1	0	02VD 02VO 02VC 02MD 02MO 09MC 02RD 02RO	1	0	0.797018051147	253.0	-88.0	257	-88	1
2.7	2015_May_06_1213	s	s	2	4	SIC	15	RC	2	2	09VD 02VO 02VC 02MD 02MO 02MC 02RD 02RO	1	0	1.15288090706	474.0	147.0	472	147	1
2.7	2015_May_06_1213	s	s	2	4	SIC	16	ABS	0	1	02VD 02VO 02VC 02MD 02MO 02MC 02RD 10RO	0	1	2.96010994911	None	None	None	None	1
2.7	2015_May_06_1213	s	s	2	4	SIC	17	ABS	1	2	02VD 02VO 02VC 10MD 02MO 02MC 02RD 02RO	0	1	1.05875992775	None	None	None	None	1
2.7	2015_May_06_1213	s	s	2	4	SIC	18	ABS	2	1	02VD 10VO 02VC 02MD 02MO 02MC 02RD 02RO	0	1	1.38826799393	None	None	None	None	1
2.7	2015_May_06_1213	s	s	2	4	SIC	19	RC	1	1	02VD 02VO 02VC 02MD 09MO 02MC 02RD 02RO	1	0	0.658536911011	-21.0	386.0	-18	392	1
2.7	2015_May_06_1213	s	s	2	4	SIC	20	RC	2	2	09VD 02VO 02VC 02MD 02MO 02MC 02RD 02RO	1	0	0.641840934753	70.0	338.0	67	340	1
2.7	2015_May_06_1213	s	s	2	4	SIC	21	ABS	2	2	10VD 02VO 02VC 02MD 02MO 02MC 02RD 02RO	0	1	1.24216103554	None	None	None	None	1
2.7	2015_May_06_1213	s	s	2	4	SIC	22	ABS	2	0	02VD 02VO 10VC 02MD 02MO 02MC 02RD 02RO	0	1	1.38232207298	None	None	None	None	1
2.7	2015_May_06_1213	s	s	2	4	SIC	23	RC	0	2	02VD 02VO 02VC 02MD 02MO 02MC 09RD 02RO	1	0	1.44218707085	-172.0	-391.0	-185	-388	1
2.7	2015_May_06_1213	s	s	2	4	SIC	24	RC	1	0	02VD 02VO 02VC 02MD 02MO 09MC 02RD 02RO	1	0	0.95277094841	-533.0	-196.0	-532	-192	1
2.7	2015_May_06_1213	s	s	2	4	SIC	25	RC	2	0	02VD 02VO 09VC 02MD 02MO 02MC 02RD 02RO	1	0	0.936208963394	-116.0	-298.0	-116	-295	1
2.7	2015_May_06_1213	s	s	2	4	SIC	26	RC	0	1	02VD 02VO 02VC 02MD 02MO 02MC 02RD 09RO	1	0	1.27908396721	-407.0	-198.0	-402	-198	1
2.7	2015_May_06_1213	s	s	2	4	SIC	27	ABS	1	1	02VD 02VO 02VC 02MD 10MO 02MC 02RD 02RO	0	1	1.33736896515	None	None	None	None	1
2.7	2015_May_06_1213	s	s	2	4	SIC	28	ABS	0	1	02VD 02VO 02VC 02MD 02MO 02MC 02RD 10RO	0	1	4.06911206245	None	None	None	None	1
2.7	2015_May_06_1213	s	s	2	4	SIC	29	RC	2	1	02VD 09VO 02VC 02MD 02MO 02MC 02RD 02RO	1	0	1.10581111908	510.0	258.0	510	254	1
2.7	2015_May_06_1213	s	s	2	4	SIC	30	RC	1	2	02VD 02VO 02VC 09MD 02MO 02MC 02RD 02RO	1	0	0.629889011383	-378.0	-77.0	-379	-79	1
2.7	2015_May_06_1213	s	s	2	4	SIC	31	ABS	0	2	02VD 02VO 02VC 02MD 02MO 02MC 10RD 02RO	0	1	1.70604205132	None	None	None	None	1
2.7	2015_May_06_1213	s	s	2	4	SIC	32	ABS	1	0	02VD 02VO 02VC 02MD 02MO 10MC 02RD 02RO	0	1	1.95334887505	None	None	None	None	1
2.7	2015_May_06_1213	s	s	2	4	SIC	33	ABS	2	1	02VD 10VO 02VC 02MD 02MO 02MC 02RD 02RO	0	1	1.79518079758	None	None	None	None	1
2.7	2015_May_06_1213	s	s	2	4	SIC	34	RC	2	1	02VD 09VO 02VC 02MD 02MO 02MC 02RD 02RO	1	0	1.04691195488	-130.0	-339.0	-126	-346	1
2.7	2015_May_06_1213	s	s	2	4	SIC	35	RC	0	1	02VD 02VO 02VC 02MD 02MO 02MC 02RD 09RO	1	0	0.924511909485	-256.0	-328.0	-250	-328	1
2.7	2015_May_06_1213	s	s	2	4	SIC	36	ABS	0	2	02VD 02VO 02VC 02MD 02MO 02MC 10RD 02RO	0	1	1.65392780304	None	None	None	None	1
2.7	2015_May_06_1213	s	s	2	4	SIC	37	ABS	0	1	02VD 02VO 02VC 02MD 02MO 02MC 02RD 10RO	0	1	3.52537798882	None	None	None	None	1
2.7	2015_May_06_1213	s	s	2	4	SIC	38	RC	2	2	09VD 02VO 02VC 02MD 02MO 02MC 02RD 02RO	1	0	1.11756277084	438.0	-26.0	428	-19	1
2.7	2015_May_06_1213	s	s	2	4	SIC	39	ABS	1	1	02VD 02VO 02VC 02MD 10MO 02MC 02RD 02RO	0	1	2.20720100403	None	None	None	None	1
2.7	2015_May_06_1213	s	s	2	4	SIC	40	ABS	1	0	02VD 02VO 02VC 02MD 02MO 10MC 02RD 02RO	0	1	1.55955195427	None	None	None	None	1
2.7	2015_May_06_1213	s	s	2	4	SIC	41	RC	1	2	02VD 02VO 02VC 09MD 02MO 02MC 02RD 02RO	1	0	0.73566198349	-194.0	133.0	-199	136	1
2.7	2015_May_06_1213	s	s	2	4	SIC	42	RC	0	2	02VD 02VO 02VC 02MD 02MO 02MC 09RD 02RO	1	0	0.80829000473	-8.0	-289.0	-15	-291	1
2.7	2015_May_06_1213	s	s	2	4	SIC	43	ABS	1	2	02VD 02VO 02VC 10MD 02MO 02MC 02RD 02RO	0	1	1.9768409729	None	None	None	None	1
2.7	2015_May_06_1213	s	s	2	4	SIC	44	RC	2	0	02VD 02VO 09VC 02MD 02MO 02MC 02RD 02RO	1	0	0.670309066772	-220.0	-218.0	-228	-211	1
2.7	2015_May_06_1213	s	s	2	4	SIC	45	ABS	2	0	02VD 02VO 10VC 02MD 02MO 02MC 02RD 02RO	0	1	1.41554808617	None	None	None	None	1
2.7	2015_May_06_1213	s	s	2	4	SIC	46	RC	1	1	02VD 02VO 02VC 02MD 09MO 02MC 02RD 02RO	1	0	0.688948869705	68.0	-117.0	66	-111	1
2.7	2015_May_06_1213	s	s	2	4	SIC	47	ABS	2	2	10VD 02VO 02VC 02MD 02MO 02MC 02RD 02RO	0	1	1.55979609489	None	None	None	None	1
2.7	2015_May_06_1213	s	s	2	4	SIC	48	RC	1	0	02VD 02VO 02VC 02MD 02MO 09MC 02RD 02RO	1	0	0.917297124863	458.0	251.0	462	258	1
2.7	2015_May_06_1213	s	s	2	4	SIC	49	ABS	2	2	10VD 02VO 02VC 02MD 02MO 02MC 02RD 02RO	0	1	1.74149298668	None	None	None	None	1
2.7	2015_May_06_1213	s	s	2	4	SIC	50	RC	1	2	02VD 02VO 02VC 09MD 02MO 02MC 02RD 02RO	1	0	0.712260007858	101.0	324.0	102	322	1
2.7	2015_May_06_1213	s	s	2	4	SIC	51	ABS	0	2	02VD 02VO 02VC 02MD 02MO 02MC 10RD 02RO	0	1	1.67927098274	None	None	None	None	1
2.7	2015_May_06_1213	s	s	2	4	SIC	52	RC	0	2	02VD 02VO 02VC 02MD 02MO 02MC 09RD 02RO	1	0	1.10123991966	173.0	-366.0	177	-372	1
2.7	2015_May_06_1213	s	s	2	4	SIC	53	ABS	2	0	02VD 02VO 10VC 02MD 02MO 02MC 02RD 02RO	0	1	1.47738790512	None	None	None	None	1
2.7	2015_May_06_1213	s	s	2	4	SIC	54	RC	2	0	02VD 02VO 09VC 02MD 02MO 02MC 02RD 02RO	1	0	0.807265996933	-152.0	105.0	-158	109	1
2.7	2015_May_06_1213	s	s	2	4	SIC	55	RC	2	2	09VD 02VO 02VC 02MD 02MO 02MC 02RD 02RO	1	0	0.952758073807	255.0	292.0	253	300	1
2.7	2015_May_06_1213	s	s	2	4	SIC	56	RC	0	1	02VD 02VO 02VC 02MD 02MO 02MC 02RD 09RO	1	0	0.634979963303	-30.0	176.0	-27	182	1
2.7	2015_May_06_1213	s	s	2	4	SIC	57	ABS	0	1	02VD 02VO 02VC 02MD 02MO 02MC 02RD 10RO	0	1	4.88419914246	None	None	None	None	1
2.7	2015_May_06_1213	s	s	2	4	SIC	58	RC	1	1	02VD 02VO 02VC 02MD 09MO 02MC 02RD 02RO	1	0	0.736016988754	-263.0	233.0	-267	234	1
2.7	2015_May_06_1213	s	s	2	4	SIC	59	ABS	1	1	02VD 02VO 02VC 02MD 10MO 02MC 02RD 02RO	0	1	2.42409682274	None	None	None	None	1
2.7	2015_May_06_1213	s	s	2	4	SIC	60	ABS	2	1	02VD 10VO 02VC 02MD 02MO 02MC 02RD 02RO	0	1	1.33666205406	None	None	None	None	1
2.7	2015_May_06_1213	s	s	2	4	SIC	61	RC	1	0	02VD 02VO 02VC 02MD 02MO 09MC 02RD 02RO	1	0	0.983810186386	-306.0	-32.0	-308	-33	1
2.7	2015_May_06_1213	s	s	2	4	SIC	62	ABS	1	0	02VD 02VO 02VC 02MD 02MO 10MC 02RD 02RO	0	1	1.77687811852	None	None	None	None	1
2.7	2015_May_06_1213	s	s	2	4	SIC	63	RC	2	1	02VD 09VO 02VC 02MD 02MO 02MC 02RD 02RO	1	0	0.740857124329	-111.0	-34.0	-103	-31	1
2.7	2015_May_06_1213	s	s	2	4	SIC	64	ABS	1	2	02VD 02VO 02VC 10MD 02MO 02MC 02RD 02RO	0	1	1.35977888107	None	None	None	None	1
2.7	2015_May_06_1213	s	s	2	4	SIC	65	RC	0	1	02VD 02VO 02VC 02MD 02MO 02MC 02RD 09RO	1	0	1.08892893791	-362.0	-67.0	-354	-66	1
2.7	2015_May_06_1213	s	s	2	4	SIC	66	RC	1	2	02VD 02VO 02VC 09MD 02MO 02MC 02RD 02RO	1	0	1.06571793556	206.0	-270.0	207	-269	1
2.7	2015_May_06_1213	s	s	2	4	SIC	67	RC	1	1	02VD 02VO 02VC 02MD 09MO 02MC 02RD 02RO	1	0	1.30035591125	-515.0	247.0	-520	252	1
2.7	2015_May_06_1213	s	s	2	4	SIC	68	ABS	1	2	02VD 02VO 02VC 10MD 02MO 02MC 02RD 02RO	0	1	1.09397602081	None	None	None	None	1
2.7	2015_May_06_1213	s	s	2	4	SIC	69	ABS	0	2	02VD 02VO 02VC 02MD 02MO 02MC 10RD 02RO	0	1	1.52445292473	None	None	None	None	1
2.7	2015_May_06_1213	s	s	2	4	SIC	70	RC	1	0	02VD 02VO 02VC 02MD 02MO 09MC 02RD 02RO	1	0	0.823304891586	63.0	-340.0	70	-333	1
2.7	2015_May_06_1213	s	s	2	4	SIC	71	RC	2	2	09VD 02VO 02VC 02MD 02MO 02MC 02RD 02RO	1	0	0.95038485527	400.0	-146.0	404	-148	1
2.7	2015_May_06_1213	s	s	2	4	SIC	72	ABS	2	2	10VD 02VO 02VC 02MD 02MO 02MC 02RD 02RO	0	1	1.48242998123	None	None	None	None	1
2.7	2015_May_06_1213	s	s	2	4	SIC	73	ABS	0	1	02VD 02VO 02VC 02MD 02MO 02MC 02RD 10RO	0	1	2.06610989571	None	None	None	None	1
2.7	2015_May_06_1213	s	s	2	4	SIC	74	ABS	1	0	02VD 02VO 02VC 02MD 02MO 10MC 02RD 02RO	0	1	1.68893718719	None	None	None	None	1
2.7	2015_May_06_1213	s	s	2	4	SIC	75	ABS	2	1	02VD 10VO 02VC 02MD 02MO 02MC 02RD 02RO	0	1	1.32423400879	None	None	None	None	1
2.7	2015_May_06_1213	s	s	2	4	SIC	76	RC	2	0	02VD 02VO 09VC 02MD 02MO 02MC 02RD 02RO	1	0	0.941335916519	-309.0	66.0	-312	64	1
2.7	2015_May_06_1213	s	s	2	4	SIC	77	ABS	1	1	02VD 02VO 02VC 02MD 10MO 02MC 02RD 02RO	0	1	2.29466700554	None	None	None	None	1
2.7	2015_May_06_1213	s	s	2	4	SIC	78	RC	0	2	02VD 02VO 02VC 02MD 02MO 02MC 09RD 02RO	1	0	0.912161827087	-9.0	-190.0	-12	-196	1
2.7	2015_May_06_1213	s	s	2	4	SIC	79	RC	2	1	02VD 09VO 02VC 02MD 02MO 02MC 02RD 02RO	1	0	0.646703958511	-240.0	237.0	-243	236	1
2.7	2015_May_06_1213	s	s	2	4	SIC	80	ABS	2	0	02VD 02VO 10VC 02MD 02MO 02MC 02RD 02RO	0	1	2.31810498238	None	None	None	None	1
2.7	2015_May_06_1213	s	s	2	4	SIC	81	RC	2	0	02VD 02VO 09VC 02MD 02MO 02MC 02RD 02RO	1	0	1.41175913811	311.0	154.0	315	152	1
2.7	2015_May_06_1213	s	s	2	4	SIC	82	ABS	2	0	02VD 02VO 10VC 02MD 02MO 02MC 02RD 02RO	0	1	1.74165201187	None	None	None	None	1
2.7	2015_May_06_1213	s	s	2	4	SIC	83	RC	1	2	02VD 02VO 02VC 09MD 02MO 02MC 02RD 02RO	1	0	1.04234600067	-516.0	-219.0	-504	-214	1
2.7	2015_May_06_1213	s	s	2	4	SIC	84	ABS	2	1	02VD 10VO 02VC 02MD 02MO 02MC 02RD 02RO	0	1	1.77186107635	None	None	None	None	1
2.7	2015_May_06_1213	s	s	2	4	SIC	85	RC	2	1	02VD 09VO 02VC 02MD 02MO 02MC 02RD 02RO	1	0	0.634958982468	155.0	45.0	163	41	1
2.7	2015_May_06_1213	s	s	2	4	SIC	86	RC	1	0	02VD 02VO 02VC 02MD 02MO 09MC 02RD 02RO	1	0	1.75314307213	-48.0	326.0	-45	313	1
2.7	2015_May_06_1213	s	s	2	4	SIC	87	ABS	1	2	02VD 02VO 02VC 10MD 02MO 02MC 02RD 02RO	0	1	1.47695612907	None	None	None	None	1
2.7	2015_May_06_1213	s	s	2	4	SIC	88	ABS	1	0	02VD 02VO 02VC 02MD 02MO 10MC 02RD 02RO	0	1	1.34494900703	None	None	None	None	1
2.7	2015_May_06_1213	s	s	2	4	SIC	89	RC	0	2	02VD 02VO 02VC 02MD 02MO 02MC 09RD 02RO	1	0	1.23036503792	257.0	-233.0	249	-239	1
2.7	2015_May_06_1213	s	s	2	4	SIC	90	ABS	0	1	02VD 02VO 02VC 02MD 02MO 02MC 02RD 10RO	0	1	3.996311903	None	None	None	None	1
2.7	2015_May_06_1213	s	s	2	4	SIC	91	RC	0	1	02VD 02VO 02VC 02MD 02MO 02MC 02RD 09RO	1	0	1.71303606033	506.0	184.0	506	182	1
2.7	2015_May_06_1213	s	s	2	4	SIC	92	ABS	2	2	10VD 02VO 02VC 02MD 02MO 02MC 02RD 02RO	0	1	1.32430005074	None	None	None	None	1
2.7	2015_May_06_1213	s	s	2	4	SIC	93	ABS	0	2	02VD 02VO 02VC 02MD 02MO 02MC 10RD 02RO	0	1	2.00037884712	None	None	None	None	1
2.7	2015_May_06_1213	s	s	2	4	SIC	94	RC	2	2	09VD 02VO 02VC 02MD 02MO 02MC 02RD 02RO	1	0	0.877300024033	-133.0	291.0	-134	295	1
2.7	2015_May_06_1213	s	s	2	4	SIC	95	RC	1	1	02VD 02VO 02VC 02MD 09MO 02MC 02RD 02RO	1	0	1.02342200279	102.0	-248.0	103	-251	1
2.7	2015_May_06_1213	s	s	2	4	SIC	96	ABS	1	1	02VD 02VO 02VC 02MD 10MO 02MC 02RD 02RO	0	1	1.2660150528	None	None	None	None	1
2.7	2015_May_06_1213	s	s	2	4	SIC	97	ABS	1	2	02VD 02VO 02VC 10MD 02MO 02MC 02RD 02RO	0	1	1.47072601318	None	None	None	None	1
2.7	2015_May_06_1213	s	s	2	4	SIC	98	ABS	1	1	02VD 02VO 02VC 02MD 10MO 02MC 02RD 02RO	0	1	1.61891412735	None	None	None	None	1
2.7	2015_May_06_1213	s	s	2	4	SIC	99	RC	1	1	02VD 02VO 02VC 02MD 09MO 02MC 02RD 02RO	1	0	0.914272069931	-308.0	169.0	-306	165	1
2.7	2015_May_06_1213	s	s	2	4	SIC	100	RC	1	2	02VD 02VO 02VC 09MD 02MO 02MC 02RD 02RO	1	0	0.894047021866	-487.0	324.0	-484	319	1
2.7	2015_May_06_1213	s	s	2	4	SIC	101	ABS	2	0	02VD 02VO 10VC 02MD 02MO 02MC 02RD 02RO	0	1	1.24705791473	None	None	None	None	1
2.7	2015_May_06_1213	s	s	2	4	SIC	102	ABS	1	0	02VD 02VO 02VC 02MD 02MO 10MC 02RD 02RO	0	1	1.98374605179	None	None	None	None	1
2.7	2015_May_06_1213	s	s	2	4	SIC	103	RC	2	1	02VD 09VO 02VC 02MD 02MO 02MC 02RD 02RO	1	0	1.30573320389	-51.0	-336.0	-56	-332	1
2.7	2015_May_06_1213	s	s	2	4	SIC	104	ABS	0	1	02VD 02VO 02VC 02MD 02MO 02MC 02RD 10RO	0	1	2.91845011711	None	None	None	None	1
2.7	2015_May_06_1213	s	s	2	4	SIC	105	RC	2	2	09VD 02VO 02VC 02MD 02MO 02MC 02RD 02RO	1	0	1.57652902603	432.0	330.0	428	332	1
2.7	2015_May_06_1213	s	s	2	4	SIC	106	ABS	0	2	02VD 02VO 02VC 02MD 02MO 02MC 10RD 02RO	0	1	1.7650039196	None	None	None	None	1
2.7	2015_May_06_1213	s	s	2	4	SIC	107	ABS	2	1	02VD 10VO 02VC 02MD 02MO 02MC 02RD 02RO	0	1	1.31142997742	None	None	None	None	1
2.7	2015_May_06_1213	s	s	2	4	SIC	108	RC	0	2	02VD 02VO 02VC 02MD 02MO 02MC 09RD 02RO	1	0	2.57258605957	-163.0	-246.0	-167	-259	1
2.7	2015_May_06_1213	s	s	2	4	SIC	109	ABS	2	2	10VD 02VO 02VC 02MD 02MO 02MC 02RD 02RO	0	1	1.29422688484	None	None	None	None	1
2.7	2015_May_06_1213	s	s	2	4	SIC	110	RC	1	0	02VD 02VO 02VC 02MD 02MO 09MC 02RD 02RO	1	0	1.63017582893	85.0	-54.0	90	-47	1
2.7	2015_May_06_1213	s	s	2	4	SIC	111	RC	2	0	02VD 02VO 09VC 02MD 02MO 02MC 02RD 02RO	1	0	0.865358829498	339.0	-188.0	349	-190	1
2.7	2015_May_06_1213	s	s	2	4	SIC	112	RC	0	1	02VD 02VO 02VC 02MD 02MO 02MC 02RD 09RO	1	0	1.34821987152	101.0	237.0	95	239	1
2.7	2015_May_06_1213	s	s	2	4	SIC	113	ABS	2	1	02VD 10VO 02VC 02MD 02MO 02MC 02RD 02RO	0	1	1.46745491028	None	None	None	None	1
2.7	2015_May_06_1213	s	s	2	4	SIC	114	RC	2	1	02VD 09VO 02VC 02MD 02MO 02MC 02RD 02RO	1	0	0.893952131271	295.0	165.0	295	170	1
2.7	2015_May_06_1213	s	s	2	4	SIC	115	RC	2	2	09VD 02VO 02VC 02MD 02MO 02MC 02RD 02RO	1	0	1.76038599014	512.0	316.0	509	317	1
2.7	2015_May_06_1213	s	s	2	4	SIC	116	ABS	1	0	02VD 02VO 02VC 02MD 02MO 10MC 02RD 02RO	0	1	2.16053080559	None	None	None	None	1
2.7	2015_May_06_1213	s	s	2	4	SIC	117	RC	1	1	02VD 02VO 02VC 02MD 09MO 02MC 02RD 02RO	1	0	0.721784114838	40.0	-258.0	38	-258	1
2.7	2015_May_06_1213	s	s	2	4	SIC	118	ABS	2	2	10VD 02VO 02VC 02MD 02MO 02MC 02RD 02RO	0	1	1.41866397858	None	None	None	None	1
2.7	2015_May_06_1213	s	s	2	4	SIC	119	RC	0	1	02VD 02VO 02VC 02MD 02MO 02MC 02RD 09RO	1	0	0.690913915634	69.0	277.0	60	284	1
2.7	2015_May_06_1213	s	s	2	4	SIC	120	RC	2	0	02VD 02VO 09VC 02MD 02MO 02MC 02RD 02RO	1	0	1.19498205185	-151.0	-307.0	-146	-308	1
2.7	2015_May_06_1213	s	s	2	4	SIC	121	RC	1	0	02VD 02VO 02VC 02MD 02MO 09MC 02RD 02RO	1	0	0.658511161804	-134.0	114.0	-127	107	1
2.7	2015_May_06_1213	s	s	2	4	SIC	122	ABS	1	1	02VD 02VO 02VC 02MD 10MO 02MC 02RD 02RO	0	1	2.81930494308	None	None	None	None	1
2.7	2015_May_06_1213	s	s	2	4	SIC	123	ABS	0	1	02VD 02VO 02VC 02MD 02MO 02MC 02RD 10RO	0	1	4.33777809143	None	None	None	None	1
2.7	2015_May_06_1213	s	s	2	4	SIC	124	ABS	0	2	02VD 02VO 02VC 02MD 02MO 02MC 10RD 02RO	0	1	1.95329213142	None	None	None	None	1
2.7	2015_May_06_1213	s	s	2	4	SIC	125	RC	0	2	02VD 02VO 02VC 02MD 02MO 02MC 09RD 02RO	1	0	1.00025892258	408.0	247.0	411	243	1
2.7	2015_May_06_1213	s	s	2	4	SIC	126	ABS	2	0	02VD 02VO 10VC 02MD 02MO 02MC 02RD 02RO	0	1	1.61889195442	None	None	None	None	1
2.7	2015_May_06_1213	s	s	2	4	SIC	127	ABS	1	2	02VD 02VO 02VC 10MD 02MO 02MC 02RD 02RO	0	1	1.64725899696	None	None	None	None	1
2.7	2015_May_06_1213	s	s	2	4	SIC	128	RC	1	2	02VD 02VO 02VC 09MD 02MO 02MC 02RD 02RO	1	0	1.19999504089	380.0	-372.0	388	-376	1
2.7	2015_May_06_1213	s	s	2	4	SIC	129	ABS	1	2	02VD 02VO 02VC 10MD 02MO 02MC 02RD 02RO	0	1	1.65885090828	None	None	None	None	1
2.7	2015_May_06_1213	s	s	2	4	SIC	130	ABS	0	1	02VD 02VO 02VC 02MD 02MO 02MC 02RD 10RO	0	1	3.43102121353	None	None	None	None	1
2.7	2015_May_06_1213	s	s	2	4	SIC	131	RC	2	0	02VD 02VO 09VC 02MD 02MO 02MC 02RD 02RO	1	0	1.01868796349	522.0	-238.0	532	-233	1
2.7	2015_May_06_1213	s	s	2	4	SIC	132	RC	0	1	02VD 02VO 02VC 02MD 02MO 02MC 02RD 09RO	1	0	1.03166103363	-309.0	-57.0	-303	-60	1
2.7	2015_May_06_1213	s	s	2	4	SIC	133	ABS	2	0	02VD 02VO 10VC 02MD 02MO 02MC 02RD 02RO	0	1	1.72162795067	None	None	None	None	1
2.7	2015_May_06_1213	s	s	2	4	SIC	134	RC	1	2	02VD 02VO 02VC 09MD 02MO 02MC 02RD 02RO	1	0	0.876396894455	213.0	220.0	210	225	1
2.7	2015_May_06_1213	s	s	2	4	SIC	135	RC	2	1	02VD 09VO 02VC 02MD 02MO 02MC 02RD 02RO	1	0	0.764410018921	316.0	201.0	315	207	1
2.7	2015_May_06_1213	s	s	2	4	SIC	136	ABS	1	1	02VD 02VO 02VC 02MD 10MO 02MC 02RD 02RO	0	1	2.59584593773	None	None	None	None	1
2.7	2015_May_06_1213	s	s	2	4	SIC	137	ABS	2	1	02VD 10VO 02VC 02MD 02MO 02MC 02RD 02RO	0	1	1.78843784332	None	None	None	None	1
2.7	2015_May_06_1213	s	s	2	4	SIC	138	RC	2	2	09VD 02VO 02VC 02MD 02MO 02MC 02RD 02RO	1	0	0.944714069366	403.0	-275.0	412	-276	1
2.7	2015_May_06_1213	s	s	2	4	SIC	139	RC	0	2	02VD 02VO 02VC 02MD 02MO 02MC 09RD 02RO	1	0	0.85608792305	145.0	297.0	137	295	1
2.7	2015_May_06_1213	s	s	2	4	SIC	140	ABS	1	0	02VD 02VO 02VC 02MD 02MO 10MC 02RD 02RO	0	1	2.9152469635	None	None	None	None	1
2.7	2015_May_06_1213	s	s	2	4	SIC	141	RC	1	0	02VD 02VO 02VC 02MD 02MO 09MC 02RD 02RO	1	0	1.07807993889	498.0	27.0	496	30	1
2.7	2015_May_06_1213	s	s	2	4	SIC	142	ABS	2	2	10VD 02VO 02VC 02MD 02MO 02MC 02RD 02RO	0	1	1.38460302353	None	None	None	None	1
2.7	2015_May_06_1213	s	s	2	4	SIC	143	ABS	0	2	02VD 02VO 02VC 02MD 02MO 02MC 10RD 02RO	0	1	1.65502691269	None	None	None	None	1
2.7	2015_May_06_1213	s	s	2	4	SIC	144	RC	1	1	02VD 02VO 02VC 02MD 09MO 02MC 02RD 02RO	1	0	0.806651830673	48.0	245.0	57	247	1
2.7	2015_May_06_1213	s	s	2	4	SIC	145	ABS	0	1	02VD 02VO 02VC 02MD 02MO 02MC 02RD 10RO	0	1	2.71205997467	None	None	None	None	1
2.7	2015_May_06_1213	s	s	2	4	SIC	146	RC	1	0	02VD 02VO 02VC 02MD 02MO 09MC 02RD 02RO	1	0	0.55260515213	-244.0	39.0	-244	37	1
2.7	2015_May_06_1213	s	s	2	4	SIC	147	ABS	1	1	02VD 02VO 02VC 02MD 10MO 02MC 02RD 02RO	0	1	1.71797013283	None	None	None	None	1
2.7	2015_May_06_1213	s	s	2	4	SIC	148	ABS	2	2	10VD 02VO 02VC 02MD 02MO 02MC 02RD 02RO	0	1	1.46819591522	None	None	None	None	1
2.7	2015_May_06_1213	s	s	2	4	SIC	149	RC	0	1	02VD 02VO 02VC 02MD 02MO 02MC 02RD 09RO	1	0	1.43183588982	-421.0	336.0	-419	332	1
2.7	2015_May_06_1213	s	s	2	4	SIC	150	RC	2	0	02VD 02VO 09VC 02MD 02MO 02MC 02RD 02RO	1	0	1.1295030117	308.0	47.0	306	43	1
2.7	2015_May_06_1213	s	s	2	4	SIC	151	RC	1	2	02VD 02VO 02VC 09MD 02MO 02MC 02RD 02RO	1	0	0.68202996254	319.0	103.0	322	105	1
2.7	2015_May_06_1213	s	s	2	4	SIC	152	ABS	2	1	02VD 10VO 02VC 02MD 02MO 02MC 02RD 02RO	0	1	1.14108109474	None	None	None	None	1
2.7	2015_May_06_1213	s	s	2	4	SIC	153	ABS	1	0	02VD 02VO 02VC 02MD 02MO 10MC 02RD 02RO	0	1	2.55035090446	None	None	None	None	1
2.7	2015_May_06_1213	s	s	2	4	SIC	154	RC	1	1	02VD 02VO 02VC 02MD 09MO 02MC 02RD 02RO	1	0	1.21172785759	451.0	-24.0	451	-24	1
2.7	2015_May_06_1213	s	s	2	4	SIC	155	ABS	0	2	02VD 02VO 02VC 02MD 02MO 02MC 10RD 02RO	0	1	1.55972504616	None	None	None	None	1
2.7	2015_May_06_1213	s	s	2	4	SIC	156	RC	2	1	02VD 09VO 02VC 02MD 02MO 02MC 02RD 02RO	1	0	1.12708997726	-199.0	-60.0	-206	-63	1
2.7	2015_May_06_1213	s	s	2	4	SIC	157	RC	0	2	02VD 02VO 02VC 02MD 02MO 02MC 09RD 02RO	1	0	1.71226000786	-139.0	-319.0	-142	-333	1
2.7	2015_May_06_1213	s	s	2	4	SIC	158	ABS	2	0	02VD 02VO 10VC 02MD 02MO 02MC 02RD 02RO	0	1	1.71781897545	None	None	None	None	1
2.7	2015_May_06_1213	s	s	2	4	SIC	159	RC	2	2	09VD 02VO 02VC 02MD 02MO 02MC 02RD 02RO	1	0	1.66600799561	-76.0	-370.0	-79	-367	1
2.7	2015_May_06_1213	s	s	2	4	SIC	160	ABS	1	2	02VD 02VO 02VC 10MD 02MO 02MC 02RD 02RO	0	1	1.85908102989	None	None	None	None	1
2.7	2015_May_06_1213	s	s	2	4	SIC	161	ABS	0	2	02VD 02VO 02VC 02MD 02MO 02MC 10RD 02RO	0	1	2.19508504868	None	None	None	None	1
2.7	2015_May_06_1213	s	s	2	4	SIC	162	RC	0	1	02VD 02VO 02VC 02MD 02MO 02MC 02RD 09RO	1	0	0.958862781525	81.0	139.0	86	133	1
2.7	2015_May_06_1213	s	s	2	4	SIC	163	ABS	2	0	02VD 02VO 10VC 02MD 02MO 02MC 02RD 02RO	0	1	1.94141507149	None	None	None	None	1
2.7	2015_May_06_1213	s	s	2	4	SIC	164	RC	1	2	02VD 02VO 02VC 09MD 02MO 02MC 02RD 02RO	1	0	1.18318581581	-492.0	271.0	-501	277	1
2.7	2015_May_06_1213	s	s	2	4	SIC	165	RC	0	2	02VD 02VO 02VC 02MD 02MO 02MC 09RD 02RO	1	0	0.748032093048	-309.0	3.0	-299	2	1
2.7	2015_May_06_1213	s	s	2	4	SIC	166	ABS	2	2	10VD 02VO 02VC 02MD 02MO 02MC 02RD 02RO	0	1	1.83598589897	None	None	None	None	1
2.7	2015_May_06_1213	s	s	2	4	SIC	167	RC	1	1	02VD 02VO 02VC 02MD 09MO 02MC 02RD 02RO	1	0	1.62368202209	522.0	-78.0	514	-79	1
2.7	2015_May_06_1213	s	s	2	4	SIC	168	ABS	2	1	02VD 10VO 02VC 02MD 02MO 02MC 02RD 02RO	0	1	1.65415906906	None	None	None	None	1
2.7	2015_May_06_1213	s	s	2	4	SIC	169	ABS	1	0	02VD 02VO 02VC 02MD 02MO 10MC 02RD 02RO	0	1	2.46312308311	None	None	None	None	1
2.7	2015_May_06_1213	s	s	2	4	SIC	170	RC	1	0	02VD 02VO 02VC 02MD 02MO 09MC 02RD 02RO	1	0	1.03270792961	-141.0	-267.0	-136	-264	1
2.7	2015_May_06_1213	s	s	2	4	SIC	171	RC	2	2	09VD 02VO 02VC 02MD 02MO 02MC 02RD 02RO	1	0	0.587837934494	-274.0	-48.0	-280	-51	1
2.7	2015_May_06_1213	s	s	2	4	SIC	172	ABS	1	1	02VD 02VO 02VC 02MD 10MO 02MC 02RD 02RO	0	1	2.29463601112	None	None	None	None	1
2.7	2015_May_06_1213	s	s	2	4	SIC	173	RC	2	0	02VD 02VO 09VC 02MD 02MO 02MC 02RD 02RO	1	0	1.08227586746	419.0	326.0	418	323	1
2.7	2015_May_06_1213	s	s	2	4	SIC	174	ABS	1	2	02VD 02VO 02VC 10MD 02MO 02MC 02RD 02RO	0	1	1.63544893265	None	None	None	None	1
2.7	2015_May_06_1213	s	s	2	4	SIC	175	RC	2	1	02VD 09VO 02VC 02MD 02MO 02MC 02RD 02RO	1	0	0.853769779205	351.0	190.0	351	190	1
2.7	2015_May_06_1213	s	s	2	4	SIC	176	ABS	0	1	02VD 02VO 02VC 02MD 02MO 02MC 02RD 10RO	0	1	3.17237186432	None	None	None	None	1
2.7	2015_May_06_1213	s	s	2	4	SIC	177	ABS	1	1	02VD 02VO 02VC 02MD 10MO 02MC 02RD 02RO	0	1	1.84210920334	None	None	None	None	1
2.7	2015_May_06_1213	s	s	2	4	SIC	178	RC	2	2	09VD 02VO 02VC 02MD 02MO 02MC 02RD 02RO	1	0	1.34113407135	190.0	-324.0	183	-326	1
2.7	2015_May_06_1213	s	s	2	4	SIC	179	RC	1	1	02VD 02VO 02VC 02MD 09MO 02MC 02RD 02RO	1	0	1.25879597664	-519.0	-187.0	-519	-191	1
2.7	2015_May_06_1213	s	s	2	4	SIC	180	RC	0	2	02VD 02VO 02VC 02MD 02MO 02MC 09RD 02RO	1	0	0.93610906601	-301.0	-60.0	-308	-67	1
2.7	2015_May_06_1213	s	s	2	4	SIC	181	ABS	2	0	02VD 02VO 10VC 02MD 02MO 02MC 02RD 02RO	0	1	1.9014852047	None	None	None	None	1
2.7	2015_May_06_1213	s	s	2	4	SIC	182	RC	0	1	02VD 02VO 02VC 02MD 02MO 02MC 02RD 09RO	0	1	2.86649489403	422.0	-399.0	None	None	0
2.7	2015_May_06_1213	s	s	2	4	SIC	183	ABS	0	1	02VD 02VO 02VC 02MD 02MO 02MC 02RD 10RO	0	1	3.84835600853	None	None	None	None	1
2.7	2015_May_06_1213	s	s	2	4	SIC	184	ABS	1	0	02VD 02VO 02VC 02MD 02MO 10MC 02RD 02RO	0	1	2.6006360054	None	None	None	None	1
2.7	2015_May_06_1213	s	s	2	4	SIC	185	ABS	1	2	02VD 02VO 02VC 10MD 02MO 02MC 02RD 02RO	0	1	1.81203913689	None	None	None	None	1
2.7	2015_May_06_1213	s	s	2	4	SIC	186	RC	2	1	02VD 09VO 02VC 02MD 02MO 02MC 02RD 02RO	1	0	0.71245098114	-267.0	82.0	-265	78	1
2.7	2015_May_06_1213	s	s	2	4	SIC	187	ABS	2	2	10VD 02VO 02VC 02MD 02MO 02MC 02RD 02RO	0	1	1.86762809753	None	None	None	None	1
2.7	2015_May_06_1213	s	s	2	4	SIC	188	ABS	0	2	02VD 02VO 02VC 02MD 02MO 02MC 10RD 02RO	0	1	2.22392916679	None	None	None	None	1
2.7	2015_May_06_1213	s	s	2	4	SIC	189	RC	2	0	02VD 02VO 09VC 02MD 02MO 02MC 02RD 02RO	1	0	1.83060216904	-280.0	363.0	-278	360	1
2.7	2015_May_06_1213	s	s	2	4	SIC	190	ABS	2	1	02VD 10VO 02VC 02MD 02MO 02MC 02RD 02RO	0	1	2.00961995125	None	None	None	None	1
2.7	2015_May_06_1213	s	s	2	4	SIC	191	RC	1	0	02VD 02VO 02VC 02MD 02MO 09MC 02RD 02RO	1	0	0.693866014481	-286.0	141.0	-290	141	1
2.7	2015_May_06_1213	s	s	2	4	SIC	192	RC	1	2	02VD 02VO 02VC 09MD 02MO 02MC 02RD 02RO	1	0	1.29414319992	-151.0	-320.0	-147	-322	1
2.7	2015_May_06_1213	s	s	2	4	SIC	193	RC	2	2	09VD 02VO 02VC 02MD 02MO 02MC 02RD 02RO	1	0	1.22351908684	-484.0	179.0	-488	180	1
2.7	2015_May_06_1213	s	s	2	4	SIC	194	RC	2	1	02VD 09VO 02VC 02MD 02MO 02MC 02RD 02RO	1	0	0.924450159073	-302.0	339.0	-306	337	1
2.7	2015_May_06_1213	s	s	2	4	SIC	195	ABS	2	2	10VD 02VO 02VC 02MD 02MO 02MC 02RD 02RO	0	1	1.57664203644	None	None	None	None	1
2.7	2015_May_06_1213	s	s	2	4	SIC	196	ABS	1	1	02VD 02VO 02VC 02MD 10MO 02MC 02RD 02RO	0	1	1.78851509094	None	None	None	None	1
2.7	2015_May_06_1213	s	s	2	4	SIC	197	RC	0	1	02VD 02VO 02VC 02MD 02MO 02MC 02RD 09RO	1	0	2.03571105003	50.0	-135.0	56	-141	1
2.7	2015_May_06_1213	s	s	2	4	SIC	198	ABS	0	2	02VD 02VO 02VC 02MD 02MO 02MC 10RD 02RO	0	1	1.59737110138	None	None	None	None	1
2.7	2015_May_06_1213	s	s	2	4	SIC	199	ABS	2	1	02VD 10VO 02VC 02MD 02MO 02MC 02RD 02RO	0	1	1.59509205818	None	None	None	None	1
2.7	2015_May_06_1213	s	s	2	4	SIC	200	RC	1	1	02VD 02VO 02VC 02MD 09MO 02MC 02RD 02RO	1	0	1.74140191078	501.0	60.0	510	65	1
2.7	2015_May_06_1213	s	s	2	4	SIC	201	RC	1	2	02VD 02VO 02VC 09MD 02MO 02MC 02RD 02RO	1	0	0.97167801857	-462.0	228.0	-458	227	1
2.7	2015_May_06_1213	s	s	2	4	SIC	202	ABS	1	2	02VD 02VO 02VC 10MD 02MO 02MC 02RD 02RO	0	1	1.6943230629	None	None	None	None	1
2.7	2015_May_06_1213	s	s	2	4	SIC	203	ABS	0	1	02VD 02VO 02VC 02MD 02MO 02MC 02RD 10RO	0	1	2.43631696701	None	None	None	None	1
2.7	2015_May_06_1213	s	s	2	4	SIC	204	ABS	1	0	02VD 02VO 02VC 02MD 02MO 10MC 02RD 02RO	0	1	1.83062314987	None	None	None	None	1
2.7	2015_May_06_1213	s	s	2	4	SIC	205	RC	2	0	02VD 02VO 09VC 02MD 02MO 02MC 02RD 02RO	1	0	0.618317127228	197.0	5.0	206	3	1
2.7	2015_May_06_1213	s	s	2	4	SIC	206	ABS	2	0	02VD 02VO 10VC 02MD 02MO 02MC 02RD 02RO	0	1	1.52638196945	None	None	None	None	1
2.7	2015_May_06_1213	s	s	2	4	SIC	207	RC	0	2	02VD 02VO 02VC 02MD 02MO 02MC 09RD 02RO	1	0	0.952676057816	417.0	-172.0	426	-166	1
2.7	2015_May_06_1213	s	s	2	4	SIC	208	RC	1	0	02VD 02VO 02VC 02MD 02MO 09MC 02RD 02RO	1	0	0.724454164505	-59.0	144.0	-66	146	1
2.7	2015_May_06_1213	s	s	2	4	SIC	209	RC	0	1	02VD 02VO 02VC 02MD 02MO 02MC 02RD 09RO	1	0	1.04696512222	-334.0	126.0	-330	136	1
2.7	2015_May_06_1213	s	s	2	4	SIC	210	ABS	2	0	02VD 02VO 10VC 02MD 02MO 02MC 02RD 02RO	0	1	1.44222998619	None	None	None	None	1
2.7	2015_May_06_1213	s	s	2	4	SIC	211	RC	1	2	02VD 02VO 02VC 09MD 02MO 02MC 02RD 02RO	1	0	0.818987846375	-183.0	7.0	-185	4	1
2.7	2015_May_06_1213	s	s	2	4	SIC	212	RC	1	0	02VD 02VO 02VC 02MD 02MO 09MC 02RD 02RO	1	0	0.552577972412	-117.0	61.0	-115	51	1
2.7	2015_May_06_1213	s	s	2	4	SIC	213	ABS	1	1	02VD 02VO 02VC 02MD 10MO 02MC 02RD 02RO	0	1	2.18874692917	None	None	None	None	1
2.7	2015_May_06_1213	s	s	2	4	SIC	214	RC	2	0	02VD 02VO 09VC 02MD 02MO 02MC 02RD 02RO	1	0	0.689097166061	342.0	155.0	346	148	1
2.7	2015_May_06_1213	s	s	2	4	SIC	215	ABS	0	1	02VD 02VO 02VC 02MD 02MO 02MC 02RD 10RO	0	1	3.06650209427	None	None	None	None	1
2.7	2015_May_06_1213	s	s	2	4	SIC	216	ABS	2	2	10VD 02VO 02VC 02MD 02MO 02MC 02RD 02RO	0	1	1.67081999779	None	None	None	None	1
2.7	2015_May_06_1213	s	s	2	4	SIC	217	ABS	0	2	02VD 02VO 02VC 02MD 02MO 02MC 10RD 02RO	0	1	1.40043997765	None	None	None	None	1
2.7	2015_May_06_1213	s	s	2	4	SIC	218	ABS	1	0	02VD 02VO 02VC 02MD 02MO 10MC 02RD 02RO	0	1	1.92762684822	None	None	None	None	1
2.7	2015_May_06_1213	s	s	2	4	SIC	219	RC	2	2	09VD 02VO 02VC 02MD 02MO 02MC 02RD 02RO	1	0	1.1244430542	399.0	210.0	397	212	1
2.7	2015_May_06_1213	s	s	2	4	SIC	220	ABS	1	2	02VD 02VO 02VC 10MD 02MO 02MC 02RD 02RO	0	1	1.18819904327	None	None	None	None	1
2.7	2015_May_06_1213	s	s	2	4	SIC	221	RC	2	1	02VD 09VO 02VC 02MD 02MO 02MC 02RD 02RO	1	0	1.08220219612	369.0	41.0	362	49	1
2.7	2015_May_06_1213	s	s	2	4	SIC	222	RC	0	2	02VD 02VO 02VC 02MD 02MO 02MC 09RD 02RO	1	0	0.57115483284	-89.0	-5.0	-77	-3	1
2.7	2015_May_06_1213	s	s	2	4	SIC	223	ABS	2	1	02VD 10VO 02VC 02MD 02MO 02MC 02RD 02RO	0	1	1.4304420948	None	None	None	None	1
2.7	2015_May_06_1213	s	s	2	4	SIC	224	RC	1	1	02VD 02VO 02VC 02MD 09MO 02MC 02RD 02RO	1	0	1.94152498245	-406.0	-342.0	-400	-333	1
2.7	2015_May_06_1213	s	s	2	4	SIC	225	ABS	2	2	10VD 02VO 02VC 02MD 02MO 02MC 02RD 02RO	0	1	1.83072304726	None	None	None	None	1
2.7	2015_May_06_1213	s	s	2	4	SIC	226	RC	0	2	02VD 02VO 02VC 02MD 02MO 02MC 09RD 02RO	1	0	1.51772904396	-316.0	320.0	-317	313	1
2.7	2015_May_06_1213	s	s	2	4	SIC	227	ABS	1	1	02VD 02VO 02VC 02MD 10MO 02MC 02RD 02RO	0	1	1.92484879494	None	None	None	None	1
2.7	2015_May_06_1213	s	s	2	4	SIC	228	RC	1	2	02VD 02VO 02VC 09MD 02MO 02MC 02RD 02RO	1	0	1.97302699089	-312.0	-322.0	-317	-322	1
2.7	2015_May_06_1213	s	s	2	4	SIC	229	RC	2	2	09VD 02VO 02VC 02MD 02MO 02MC 02RD 02RO	1	0	1.12931203842	-59.0	-362.0	-66	-364	1
2.7	2015_May_06_1213	s	s	2	4	SIC	230	RC	2	0	02VD 02VO 09VC 02MD 02MO 02MC 02RD 02RO	1	0	0.889039039612	261.0	88.0	256	86	1
2.7	2015_May_06_1213	s	s	2	4	SIC	231	ABS	2	1	02VD 10VO 02VC 02MD 02MO 02MC 02RD 02RO	0	1	1.70614504814	None	None	None	None	1
2.7	2015_May_06_1213	s	s	2	4	SIC	232	RC	1	0	02VD 02VO 02VC 02MD 02MO 09MC 02RD 02RO	1	0	1.08940601349	-397.0	279.0	-396	275	1
2.7	2015_May_06_1213	s	s	2	4	SIC	233	ABS	1	2	02VD 02VO 02VC 10MD 02MO 02MC 02RD 02RO	0	1	1.43046212196	None	None	None	None	1
2.7	2015_May_06_1213	s	s	2	4	SIC	234	RC	0	1	02VD 02VO 02VC 02MD 02MO 02MC 02RD 09RO	1	0	1.47076010704	181.0	-217.0	179	-210	1
2.7	2015_May_06_1213	s	s	2	4	SIC	235	RC	1	1	02VD 02VO 02VC 02MD 09MO 02MC 02RD 02RO	1	0	0.500382900238	-72.0	92.0	-75	95	1
2.7	2015_May_06_1213	s	s	2	4	SIC	236	ABS	0	2	02VD 02VO 02VC 02MD 02MO 02MC 10RD 02RO	0	1	1.87907290459	None	None	None	None	1
2.7	2015_May_06_1213	s	s	2	4	SIC	237	ABS	2	0	02VD 02VO 10VC 02MD 02MO 02MC 02RD 02RO	0	1	1.32942914963	None	None	None	None	1
2.7	2015_May_06_1213	s	s	2	4	SIC	238	ABS	0	1	02VD 02VO 02VC 02MD 02MO 02MC 02RD 10RO	0	1	2.90673899651	None	None	None	None	1
2.7	2015_May_06_1213	s	s	2	4	SIC	239	RC	2	1	02VD 09VO 02VC 02MD 02MO 02MC 02RD 02RO	1	0	0.674088001251	-84.0	-89.0	-85	-90	1
2.7	2015_May_06_1213	s	s	2	4	SIC	240	ABS	1	0	02VD 02VO 02VC 02MD 02MO 10MC 02RD 02RO	0	1	2.22398018837	None	None	None	None	1
2.7	2015_May_06_1213	s	s	2	4	SIC	241	RC	1	1	02VD 02VO 02VC 02MD 09MO 02MC 02RD 02RO	1	0	2.23613190651	525.0	-233.0	531	-233	1
2.7	2015_May_06_1213	s	s	2	4	SIC	242	ABS	2	0	02VD 02VO 10VC 02MD 02MO 02MC 02RD 02RO	0	1	1.21856498718	None	None	None	None	1
2.7	2015_May_06_1213	s	s	2	4	SIC	243	RC	2	0	02VD 02VO 09VC 02MD 02MO 02MC 02RD 02RO	1	0	0.634989023209	-315.0	286.0	-320	289	1
2.7	2015_May_06_1213	s	s	2	4	SIC	244	ABS	0	1	02VD 02VO 02VC 02MD 02MO 02MC 02RD 10RO	0	1	1.92455196381	None	None	None	None	1
2.7	2015_May_06_1213	s	s	2	4	SIC	245	RC	0	2	02VD 02VO 02VC 02MD 02MO 02MC 09RD 02RO	1	0	0.961302042007	335.0	239.0	340	239	1
2.7	2015_May_06_1213	s	s	2	4	SIC	246	RC	1	0	02VD 02VO 02VC 02MD 02MO 09MC 02RD 02RO	1	0	0.540802955627	93.0	48.0	93	44	1
2.7	2015_May_06_1213	s	s	2	4	SIC	247	ABS	1	1	02VD 02VO 02VC 02MD 10MO 02MC 02RD 02RO	0	1	1.55306196213	None	None	None	None	1
2.7	2015_May_06_1213	s	s	2	4	SIC	248	RC	0	1	02VD 02VO 02VC 02MD 02MO 02MC 02RD 09RO	1	0	1.58835315704	-183.0	-363.0	-178	-369	1
2.7	2015_May_06_1213	s	s	2	4	SIC	249	RC	2	1	02VD 09VO 02VC 02MD 02MO 02MC 02RD 02RO	1	0	0.823158979416	-409.0	312.0	-419	314	1
2.7	2015_May_06_1213	s	s	2	4	SIC	250	ABS	2	1	02VD 10VO 02VC 02MD 02MO 02MC 02RD 02RO	0	1	1.57662606239	None	None	None	None	1
2.7	2015_May_06_1213	s	s	2	4	SIC	251	ABS	2	2	10VD 02VO 02VC 02MD 02MO 02MC 02RD 02RO	0	1	1.53545689583	None	None	None	None	1
2.7	2015_May_06_1213	s	s	2	4	SIC	252	RC	1	2	02VD 02VO 02VC 09MD 02MO 02MC 02RD 02RO	1	0	0.605785131454	-81.0	139.0	-85	132	1
2.7	2015_May_06_1213	s	s	2	4	SIC	253	ABS	1	2	02VD 02VO 02VC 10MD 02MO 02MC 02RD 02RO	0	1	1.18318796158	None	None	None	None	1
2.7	2015_May_06_1213	s	s	2	4	SIC	254	ABS	1	0	02VD 02VO 02VC 02MD 02MO 10MC 02RD 02RO	0	1	2.32519102097	None	None	None	None	1
2.7	2015_May_06_1213	s	s	2	4	SIC	255	RC	2	2	09VD 02VO 02VC 02MD 02MO 02MC 02RD 02RO	1	0	1.44755506516	-285.0	-315.0	-283	-314	1
2.7	2015_May_06_1213	s	s	2	4	SIC	256	ABS	0	2	02VD 02VO 02VC 02MD 02MO 02MC 10RD 02RO	0	1	2.40054798126	None	None	None	None	1
2.7	2015_May_06_1213	s	s	2	4	SIC	257	ABS	2	1	02VD 10VO 02VC 02MD 02MO 02MC 02RD 02RO	0	1	1.95045089722	None	None	None	None	1
2.7	2015_May_06_1213	s	s	2	4	SIC	258	ABS	1	2	02VD 02VO 02VC 10MD 02MO 02MC 02RD 02RO	0	1	1.8355691433	None	None	None	None	1
2.7	2015_May_06_1213	s	s	2	4	SIC	259	RC	2	1	02VD 09VO 02VC 02MD 02MO 02MC 02RD 02RO	1	0	0.903074026108	185.0	-66.0	179	-66	1
2.7	2015_May_06_1213	s	s	2	4	SIC	260	ABS	2	2	10VD 02VO 02VC 02MD 02MO 02MC 02RD 02RO	0	1	2.12990689278	None	None	None	None	1
2.7	2015_May_06_1213	s	s	2	4	SIC	261	RC	2	2	09VD 02VO 02VC 02MD 02MO 02MC 02RD 02RO	1	0	0.606546163559	-142.0	260.0	-151	266	1
2.7	2015_May_06_1213	s	s	2	4	SIC	262	RC	1	2	02VD 02VO 02VC 09MD 02MO 02MC 02RD 02RO	1	0	1.50595092773	511.0	47.0	507	40	1
2.7	2015_May_06_1213	s	s	2	4	SIC	263	RC	1	1	02VD 02VO 02VC 02MD 09MO 02MC 02RD 02RO	1	0	1.26517081261	288.0	-336.0	286	-339	1
2.7	2015_May_06_1213	s	s	2	4	SIC	264	RC	0	2	02VD 02VO 02VC 02MD 02MO 02MC 09RD 02RO	1	0	0.653642892838	190.0	234.0	195	234	1
2.7	2015_May_06_1213	s	s	2	4	SIC	265	ABS	1	1	02VD 02VO 02VC 02MD 10MO 02MC 02RD 02RO	0	1	1.84270691872	None	None	None	None	1
2.7	2015_May_06_1213	s	s	2	4	SIC	266	RC	2	0	02VD 02VO 09VC 02MD 02MO 02MC 02RD 02RO	1	0	0.717425107956	172.0	-64.0	173	-66	1
2.7	2015_May_06_1213	s	s	2	4	SIC	267	ABS	0	1	02VD 02VO 02VC 02MD 02MO 02MC 02RD 10RO	0	1	2.64783596992	None	None	None	None	1
2.7	2015_May_06_1213	s	s	2	4	SIC	268	ABS	2	0	02VD 02VO 10VC 02MD 02MO 02MC 02RD 02RO	0	1	1.48241305351	None	None	None	None	1
2.7	2015_May_06_1213	s	s	2	4	SIC	269	ABS	1	0	02VD 02VO 02VC 02MD 02MO 10MC 02RD 02RO	0	1	2.0071811676	None	None	None	None	1
2.7	2015_May_06_1213	s	s	2	4	SIC	270	RC	1	0	02VD 02VO 02VC 02MD 02MO 09MC 02RD 02RO	1	0	0.690407037735	-382.0	-50.0	-394	-49	1
2.7	2015_May_06_1213	s	s	2	4	SIC	271	ABS	0	2	02VD 02VO 02VC 02MD 02MO 02MC 10RD 02RO	0	1	1.43040800095	None	None	None	None	1
2.7	2015_May_06_1213	s	s	2	4	SIC	272	RC	0	1	02VD 02VO 02VC 02MD 02MO 02MC 02RD 09RO	1	0	0.594718933105	-243.0	10.0	-245	13	1
2.7	2015_May_06_1213	s	s	2	4	SIC	273	ABS	1	2	02VD 02VO 02VC 10MD 02MO 02MC 02RD 02RO	0	1	1.41871500015	None	None	None	None	1
2.7	2015_May_06_1213	s	s	2	4	SIC	274	ABS	1	1	02VD 02VO 02VC 02MD 10MO 02MC 02RD 02RO	0	1	1.8530318737	None	None	None	None	1
2.7	2015_May_06_1213	s	s	2	4	SIC	275	ABS	2	1	02VD 10VO 02VC 02MD 02MO 02MC 02RD 02RO	0	1	1.49424099922	None	None	None	None	1
2.7	2015_May_06_1213	s	s	2	4	SIC	276	RC	2	0	02VD 02VO 09VC 02MD 02MO 02MC 02RD 02RO	1	0	1.07741999626	-474.0	369.0	-477	378	1
2.7	2015_May_06_1213	s	s	2	4	SIC	277	RC	1	2	02VD 02VO 02VC 09MD 02MO 02MC 02RD 02RO	1	0	0.924094200134	1.0	-184.0	-2	-181	1
2.7	2015_May_06_1213	s	s	2	4	SIC	278	ABS	2	2	10VD 02VO 02VC 02MD 02MO 02MC 02RD 02RO	0	1	1.27049088478	None	None	None	None	1
2.7	2015_May_06_1213	s	s	2	4	SIC	279	RC	1	0	02VD 02VO 02VC 02MD 02MO 09MC 02RD 02RO	1	0	1.48928999901	-318.0	-331.0	-323	-330	1
2.7	2015_May_06_1213	s	s	2	4	SIC	280	RC	1	1	02VD 02VO 02VC 02MD 09MO 02MC 02RD 02RO	1	0	0.505549907684	-160.0	9.0	-149	10	1
2.7	2015_May_06_1213	s	s	2	4	SIC	281	RC	2	1	02VD 09VO 02VC 02MD 02MO 02MC 02RD 02RO	1	0	0.587896108627	13.0	200.0	19	203	1
2.7	2015_May_06_1213	s	s	2	4	SIC	282	RC	0	1	02VD 02VO 02VC 02MD 02MO 02MC 02RD 09RO	1	0	1.28231287003	-176.0	258.0	-175	256	1
2.7	2015_May_06_1213	s	s	2	4	SIC	283	ABS	0	2	02VD 02VO 02VC 02MD 02MO 02MC 10RD 02RO	0	1	1.84170198441	None	None	None	None	1
2.7	2015_May_06_1213	s	s	2	4	SIC	284	RC	0	2	02VD 02VO 02VC 02MD 02MO 02MC 09RD 02RO	1	0	1.34123301506	31.0	400.0	25	394	1
2.7	2015_May_06_1213	s	s	2	4	SIC	285	ABS	2	0	02VD 02VO 10VC 02MD 02MO 02MC 02RD 02RO	0	1	1.2470510006	None	None	None	None	1
2.7	2015_May_06_1213	s	s	2	4	SIC	286	ABS	0	1	02VD 02VO 02VC 02MD 02MO 02MC 02RD 10RO	0	1	2.76543807983	None	None	None	None	1
2.7	2015_May_06_1213	s	s	2	4	SIC	287	RC	2	2	09VD 02VO 02VC 02MD 02MO 02MC 02RD 02RO	1	0	0.758538961411	-291.0	259.0	-283	266	1
2.7	2015_May_06_1213	s	s	2	4	SIC	288	ABS	1	0	02VD 02VO 02VC 02MD 02MO 10MC 02RD 02RO	0	1	1.98600482941	None	None	None	None	1
2.7	2015_May_06_1213	s	s	2	4	SIC	289	ABS	0	1	02VD 02VO 02VC 02MD 02MO 02MC 02RD 10RO	0	1	2.83148503304	None	None	None	None	1
2.7	2015_May_06_1213	s	s	2	4	SIC	290	ABS	2	1	02VD 10VO 02VC 02MD 02MO 02MC 02RD 02RO	0	1	1.65902400017	None	None	None	None	1
2.7	2015_May_06_1213	s	s	2	4	SIC	291	RC	2	1	02VD 09VO 02VC 02MD 02MO 02MC 02RD 02RO	0	1	1.45884203911	416.0	-377.0	None	None	0
2.7	2015_May_06_1213	s	s	2	4	SIC	292	RC	0	1	02VD 02VO 02VC 02MD 02MO 02MC 02RD 09RO	1	0	1.43534398079	360.0	-161.0	351	-164	1
2.7	2015_May_06_1213	s	s	2	4	SIC	293	RC	1	1	02VD 02VO 02VC 02MD 09MO 02MC 02RD 02RO	1	0	1.77189397812	366.0	296.0	356	300	1
2.7	2015_May_06_1213	s	s	2	4	SIC	294	ABS	0	2	02VD 02VO 02VC 02MD 02MO 02MC 10RD 02RO	0	1	1.58273887634	None	None	None	None	1
2.7	2015_May_06_1213	s	s	2	4	SIC	295	RC	0	2	02VD 02VO 02VC 02MD 02MO 02MC 09RD 02RO	1	0	0.717385053635	-330.0	74.0	-334	72	1
2.7	2015_May_06_1213	s	s	2	4	SIC	296	ABS	2	2	10VD 02VO 02VC 02MD 02MO 02MC 02RD 02RO	0	1	1.04693412781	None	None	None	None	1
2.7	2015_May_06_1213	s	s	2	4	SIC	297	RC	1	2	02VD 02VO 02VC 09MD 02MO 02MC 02RD 02RO	1	0	0.823323965073	54.0	393.0	57	390	1
2.7	2015_May_06_1213	s	s	2	4	SIC	298	ABS	1	2	02VD 02VO 02VC 10MD 02MO 02MC 02RD 02RO	0	1	1.35004997253	None	None	None	None	1
2.7	2015_May_06_1213	s	s	2	4	SIC	299	RC	2	2	09VD 02VO 02VC 02MD 02MO 02MC 02RD 02RO	1	0	0.735238790512	-439.0	157.0	-444	153	1
2.7	2015_May_06_1213	s	s	2	4	SIC	300	RC	1	0	02VD 02VO 02VC 02MD 02MO 09MC 02RD 02RO	1	0	0.571121931076	-282.0	9.0	-279	-1	1
2.7	2015_May_06_1213	s	s	2	4	SIC	301	RC	2	0	02VD 02VO 09VC 02MD 02MO 02MC 02RD 02RO	1	0	1.24705195427	141.0	-293.0	147	-285	1
2.7	2015_May_06_1213	s	s	2	4	SIC	302	ABS	1	0	02VD 02VO 02VC 02MD 02MO 10MC 02RD 02RO	0	1	2.6712911129	None	None	None	None	1
2.7	2015_May_06_1213	s	s	2	4	SIC	303	ABS	2	0	02VD 02VO 10VC 02MD 02MO 02MC 02RD 02RO	0	1	1.21840786934	None	None	None	None	1
2.7	2015_May_06_1213	s	s	2	4	SIC	304	ABS	1	1	02VD 02VO 02VC 02MD 10MO 02MC 02RD 02RO	0	1	1.32447290421	None	None	None	None	1
2.7	2015_May_06_1213	s	s	2	4	SIC	305	RC	1	1	02VD 02VO 02VC 02MD 09MO 02MC 02RD 02RO	1	0	2.070966959	472.0	-370.0	478	-367	1
2.7	2015_May_06_1213	s	s	2	4	SIC	306	ABS	2	1	02VD 10VO 02VC 02MD 02MO 02MC 02RD 02RO	0	1	1.66780805588	None	None	None	None	1
2.7	2015_May_06_1213	s	s	2	4	SIC	307	RC	2	0	02VD 02VO 09VC 02MD 02MO 02MC 02RD 02RO	1	0	0.865458011627	-59.0	179.0	-55	173	1
2.7	2015_May_06_1213	s	s	2	4	SIC	308	RC	2	1	02VD 09VO 02VC 02MD 02MO 02MC 02RD 02RO	1	0	0.783143043518	295.0	-191.0	296	-194	1
2.7	2015_May_06_1213	s	s	2	4	SIC	309	ABS	1	1	02VD 02VO 02VC 02MD 10MO 02MC 02RD 02RO	0	1	2.09477090836	None	None	None	None	1
2.7	2015_May_06_1213	s	s	2	4	SIC	310	ABS	1	0	02VD 02VO 02VC 02MD 02MO 10MC 02RD 02RO	0	1	1.52945017815	None	None	None	None	1
2.7	2015_May_06_1213	s	s	2	4	SIC	311	RC	0	1	02VD 02VO 02VC 02MD 02MO 02MC 02RD 09RO	1	0	1.86591792107	447.0	-161.0	448	-157	1
2.7	2015_May_06_1213	s	s	2	4	SIC	312	RC	2	2	09VD 02VO 02VC 02MD 02MO 02MC 02RD 02RO	1	0	0.994211912155	511.0	97.0	518	94	1
2.7	2015_May_06_1213	s	s	2	4	SIC	313	RC	1	0	02VD 02VO 02VC 02MD 02MO 09MC 02RD 02RO	1	0	1.10336589813	-79.0	-368.0	-85	-373	1
2.7	2015_May_06_1213	s	s	2	4	SIC	314	ABS	2	0	02VD 02VO 10VC 02MD 02MO 02MC 02RD 02RO	0	1	1.33632206917	None	None	None	None	1
2.7	2015_May_06_1213	s	s	2	4	SIC	315	RC	1	2	02VD 02VO 02VC 09MD 02MO 02MC 02RD 02RO	1	0	1.17644691467	-138.0	-385.0	-137	-380	1
2.7	2015_May_06_1213	s	s	2	4	SIC	316	ABS	2	2	10VD 02VO 02VC 02MD 02MO 02MC 02RD 02RO	0	1	1.70245909691	None	None	None	None	1
2.7	2015_May_06_1213	s	s	2	4	SIC	317	ABS	0	2	02VD 02VO 02VC 02MD 02MO 02MC 10RD 02RO	0	1	1.9013209343	None	None	None	None	1
2.7	2015_May_06_1213	s	s	2	4	SIC	318	ABS	1	2	02VD 02VO 02VC 10MD 02MO 02MC 02RD 02RO	0	1	1.5856730938	None	None	None	None	1
2.7	2015_May_06_1213	s	s	2	4	SIC	319	RC	0	2	02VD 02VO 02VC 02MD 02MO 02MC 09RD 02RO	1	0	1.18862986565	-339.0	-343.0	-334	-346	1
2.7	2015_May_06_1213	s	s	2	4	SIC	320	ABS	0	1	02VD 02VO 02VC 02MD 02MO 02MC 02RD 10RO	0	1	3.94991397858	None	None	None	None	1
2.7	2015_May_06_1213	s	s	2	4	SIC	321	RC	1	1	02VD 02VO 02VC 02MD 09MO 02MC 02RD 02RO	1	0	0.999937057495	-273.0	-395.0	-283	-393	1
2.7	2015_May_06_1213	s	s	2	4	SIC	322	ABS	1	2	02VD 02VO 02VC 10MD 02MO 02MC 02RD 02RO	0	1	1.63033294678	None	None	None	None	1
2.7	2015_May_06_1213	s	s	2	4	SIC	323	ABS	1	1	02VD 02VO 02VC 02MD 10MO 02MC 02RD 02RO	0	1	1.91862916946	None	None	None	None	1
2.7	2015_May_06_1213	s	s	2	4	SIC	324	ABS	1	0	02VD 02VO 02VC 02MD 02MO 10MC 02RD 02RO	0	1	2.83653116226	None	None	None	None	1
2.7	2015_May_06_1213	s	s	2	4	SIC	325	ABS	0	2	02VD 02VO 02VC 02MD 02MO 02MC 10RD 02RO	0	1	3.61998605728	None	None	None	None	1
2.7	2015_May_06_1213	s	s	2	4	SIC	326	ABS	2	2	10VD 02VO 02VC 02MD 02MO 02MC 02RD 02RO	0	1	2.1773750782	None	None	None	None	1
2.7	2015_May_06_1213	s	s	2	4	SIC	327	ABS	2	1	02VD 10VO 02VC 02MD 02MO 02MC 02RD 02RO	0	1	1.74704694748	None	None	None	None	1
2.7	2015_May_06_1213	s	s	2	4	SIC	328	RC	1	2	02VD 02VO 02VC 09MD 02MO 02MC 02RD 02RO	1	0	1.01164603233	-60.0	-256.0	-58	-253	1
2.7	2015_May_06_1213	s	s	2	4	SIC	329	ABS	2	0	02VD 02VO 10VC 02MD 02MO 02MC 02RD 02RO	0	1	1.61869716644	None	None	None	None	1
2.7	2015_May_06_1213	s	s	2	4	SIC	330	RC	2	2	09VD 02VO 02VC 02MD 02MO 02MC 02RD 02RO	1	0	0.764517068863	-275.0	137.0	-271	133	1
2.7	2015_May_06_1213	s	s	2	4	SIC	331	RC	0	2	02VD 02VO 02VC 02MD 02MO 02MC 09RD 02RO	1	0	0.889132022858	-48.0	-219.0	-44	-215	1
2.7	2015_May_06_1213	s	s	2	4	SIC	332	RC	2	1	02VD 09VO 02VC 02MD 02MO 02MC 02RD 02RO	1	0	0.658546924591	-140.0	-183.0	-140	-189	1
2.7	2015_May_06_1213	s	s	2	4	SIC	333	ABS	0	1	02VD 02VO 02VC 02MD 02MO 02MC 02RD 10RO	0	1	3.68357491493	None	None	None	None	1
2.7	2015_May_06_1213	s	s	2	4	SIC	334	RC	2	0	02VD 02VO 09VC 02MD 02MO 02MC 02RD 02RO	1	0	0.682110071182	-415.0	11.0	-412	16	1
2.7	2015_May_06_1213	s	s	2	4	SIC	335	RC	0	1	02VD 02VO 02VC 02MD 02MO 02MC 02RD 09RO	1	0	2.15952706337	-153.0	-354.0	-150	-354	1
2.7	2015_May_06_1213	s	s	2	4	SIC	336	RC	1	0	02VD 02VO 02VC 02MD 02MO 09MC 02RD 02RO	1	0	0.877913951874	114.0	312.0	107	308	1
2.7	2015_May_06_1213	s	s	2	4	SIC	337	ABS	2	2	10VD 02VO 02VC 02MD 02MO 02MC 02RD 02RO	0	1	1.70115399361	None	None	None	None	1
2.7	2015_May_06_1213	s	s	2	4	SIC	338	RC	0	1	02VD 02VO 02VC 02MD 02MO 02MC 02RD 09RO	1	0	0.623156785965	-45.0	291.0	-42	298	1
2.7	2015_May_06_1213	s	s	2	4	SIC	339	ABS	2	1	02VD 10VO 02VC 02MD 02MO 02MC 02RD 02RO	0	1	1.5272090435	None	None	None	None	1
2.7	2015_May_06_1213	s	s	2	4	SIC	340	RC	2	1	02VD 09VO 02VC 02MD 02MO 02MC 02RD 02RO	1	0	1.19498801231	410.0	246.0	406	243	1
2.7	2015_May_06_1213	s	s	2	4	SIC	341	RC	1	2	02VD 02VO 02VC 09MD 02MO 02MC 02RD 02RO	1	0	0.729173898697	222.0	210.0	231	211	1
2.7	2015_May_06_1213	s	s	2	4	SIC	342	ABS	2	0	02VD 02VO 10VC 02MD 02MO 02MC 02RD 02RO	0	1	1.81201887131	None	None	None	None	1
2.7	2015_May_06_1213	s	s	2	4	SIC	343	RC	0	2	02VD 02VO 02VC 02MD 02MO 02MC 09RD 02RO	1	0	1.30243802071	359.0	244.0	367	250	1
2.7	2015_May_06_1213	s	s	2	4	SIC	344	ABS	0	1	02VD 02VO 02VC 02MD 02MO 02MC 02RD 10RO	0	1	2.23077392578	None	None	None	None	1
2.7	2015_May_06_1213	s	s	2	4	SIC	345	RC	2	0	02VD 02VO 09VC 02MD 02MO 02MC 02RD 02RO	1	0	0.606494903564	-253.0	144.0	-265	147	1
2.7	2015_May_06_1213	s	s	2	4	SIC	346	RC	1	0	02VD 02VO 02VC 02MD 02MO 09MC 02RD 02RO	1	0	0.890506982803	123.0	312.0	124	318	1
2.7	2015_May_06_1213	s	s	2	4	SIC	347	RC	1	1	02VD 02VO 02VC 02MD 09MO 02MC 02RD 02RO	1	0	0.854096889496	-522.0	-48.0	-527	-54	1
2.7	2015_May_06_1213	s	s	2	4	SIC	348	ABS	1	2	02VD 02VO 02VC 10MD 02MO 02MC 02RD 02RO	0	1	1.61194086075	None	None	None	None	1
2.7	2015_May_06_1213	s	s	2	4	SIC	349	ABS	1	0	02VD 02VO 02VC 02MD 02MO 10MC 02RD 02RO	0	1	1.64215898514	None	None	None	None	1
2.7	2015_May_06_1213	s	s	2	4	SIC	350	ABS	0	2	02VD 02VO 02VC 02MD 02MO 02MC 10RD 02RO	0	1	1.68921518326	None	None	None	None	1
2.7	2015_May_06_1213	s	s	2	4	SIC	351	RC	2	2	09VD 02VO 02VC 02MD 02MO 02MC 02RD 02RO	1	0	0.629969835281	-202.0	359.0	-206	352	1
2.7	2015_May_06_1213	s	s	2	4	SIC	352	ABS	1	1	02VD 02VO 02VC 02MD 10MO 02MC 02RD 02RO	0	1	1.63052105904	None	None	None	None	1
2.7	2015_May_06_1213	s	s	2	4	SIC	353	RC	2	1	02VD 09VO 02VC 02MD 02MO 02MC 02RD 02RO	1	0	1.20674109459	-62.0	-375.0	-55	-373	1
2.7	2015_May_06_1213	s	s	2	4	SIC	354	ABS	2	0	02VD 02VO 10VC 02MD 02MO 02MC 02RD 02RO	0	1	1.1737780571	None	None	None	None	1
2.7	2015_May_06_1213	s	s	2	4	SIC	355	RC	2	0	02VD 02VO 09VC 02MD 02MO 02MC 02RD 02RO	1	0	0.597831010818	12.0	-80.0	12	-76	1
2.7	2015_May_06_1213	s	s	2	4	SIC	356	ABS	0	1	02VD 02VO 02VC 02MD 02MO 02MC 02RD 10RO	0	1	3.14209294319	None	None	None	None	1
2.7	2015_May_06_1213	s	s	2	4	SIC	357	ABS	1	2	02VD 02VO 02VC 10MD 02MO 02MC 02RD 02RO	0	1	1.61195802689	None	None	None	None	1
2.7	2015_May_06_1213	s	s	2	4	SIC	358	RC	0	2	02VD 02VO 02VC 02MD 02MO 02MC 09RD 02RO	1	0	1.44228601456	389.0	261.0	390	258	1
2.7	2015_May_06_1213	s	s	2	4	SIC	359	ABS	1	1	02VD 02VO 02VC 02MD 10MO 02MC 02RD 02RO	0	1	1.52951693535	None	None	None	None	1
2.7	2015_May_06_1213	s	s	2	4	SIC	360	RC	2	2	09VD 02VO 02VC 02MD 02MO 02MC 02RD 02RO	1	0	1.40022397041	6.0	289.0	2	286	1
2.7	2015_May_06_1213	s	s	2	4	SIC	361	RC	1	2	02VD 02VO 02VC 09MD 02MO 02MC 02RD 02RO	1	0	0.500001907349	113.0	86.0	119	86	1
2.7	2015_May_06_1213	s	s	2	4	SIC	362	ABS	2	1	02VD 10VO 02VC 02MD 02MO 02MC 02RD 02RO	0	1	1.81743001938	None	None	None	None	1
2.7	2015_May_06_1213	s	s	2	4	SIC	363	ABS	1	0	02VD 02VO 02VC 02MD 02MO 10MC 02RD 02RO	0	1	1.87085795403	None	None	None	None	1
2.7	2015_May_06_1213	s	s	2	4	SIC	364	ABS	2	2	10VD 02VO 02VC 02MD 02MO 02MC 02RD 02RO	0	1	1.37658691406	None	None	None	None	1
2.7	2015_May_06_1213	s	s	2	4	SIC	365	ABS	0	2	02VD 02VO 02VC 02MD 02MO 02MC 10RD 02RO	0	1	1.51776814461	None	None	None	None	1
2.7	2015_May_06_1213	s	s	2	4	SIC	366	RC	1	0	02VD 02VO 02VC 02MD 02MO 09MC 02RD 02RO	1	0	1.45897889137	445.0	-18.0	454	-15	1
2.7	2015_May_06_1213	s	s	2	4	SIC	367	RC	0	1	02VD 02VO 02VC 02MD 02MO 02MC 02RD 09RO	1	0	1.67080402374	-126.0	398.0	-124	399	1
2.7	2015_May_06_1213	s	s	2	4	SIC	368	RC	1	1	02VD 02VO 02VC 02MD 09MO 02MC 02RD 02RO	1	0	0.900871038437	-378.0	-60.0	-377	-55	1
2.7	2015_May_06_1213	s	s	2	4	SIC	369	RC	0	1	02VD 02VO 02VC 02MD 02MO 02MC 02RD 09RO	1	0	0.724099159241	81.0	20.0	81	19	1
2.7	2015_May_06_1213	s	s	2	4	SIC	370	ABS	1	1	02VD 02VO 02VC 02MD 10MO 02MC 02RD 02RO	0	1	2.61930990219	None	None	None	None	1
2.7	2015_May_06_1213	s	s	2	4	SIC	371	ABS	2	1	02VD 10VO 02VC 02MD 02MO 02MC 02RD 02RO	0	1	1.89441895485	None	None	None	None	1
2.7	2015_May_06_1213	s	s	2	4	SIC	372	ABS	1	2	02VD 02VO 02VC 10MD 02MO 02MC 02RD 02RO	0	1	1.4000878334	None	None	None	None	1
2.7	2015_May_06_1213	s	s	2	4	SIC	373	ABS	1	0	02VD 02VO 02VC 02MD 02MO 10MC 02RD 02RO	0	1	2.12474489212	None	None	None	None	1
2.7	2015_May_06_1213	s	s	2	4	SIC	374	RC	0	2	02VD 02VO 02VC 02MD 02MO 02MC 09RD 02RO	1	0	1.05337905884	56.0	-279.0	58	-279	1
2.7	2015_May_06_1213	s	s	2	4	SIC	375	ABS	2	0	02VD 02VO 10VC 02MD 02MO 02MC 02RD 02RO	0	1	1.54128217697	None	None	None	None	1
2.7	2015_May_06_1213	s	s	2	4	SIC	376	RC	1	0	02VD 02VO 02VC 02MD 02MO 09MC 02RD 02RO	1	0	0.929280042648	323.0	-229.0	316	-223	1
2.7	2015_May_06_1213	s	s	2	4	SIC	377	ABS	0	2	02VD 02VO 02VC 02MD 02MO 02MC 10RD 02RO	0	1	1.28924798965	None	None	None	None	1
2.7	2015_May_06_1213	s	s	2	4	SIC	378	ABS	0	1	02VD 02VO 02VC 02MD 02MO 02MC 02RD 10RO	0	1	2.50157904625	None	None	None	None	1
2.7	2015_May_06_1213	s	s	2	4	SIC	379	ABS	2	2	10VD 02VO 02VC 02MD 02MO 02MC 02RD 02RO	0	1	1.54122114182	None	None	None	None	1
2.7	2015_May_06_1213	s	s	2	4	SIC	380	RC	2	1	02VD 09VO 02VC 02MD 02MO 02MC 02RD 02RO	1	0	0.726108789444	55.0	277.0	56	268	1
2.7	2015_May_06_1213	s	s	2	4	SIC	381	RC	1	1	02VD 02VO 02VC 02MD 09MO 02MC 02RD 02RO	1	0	0.838794946671	-157.0	176.0	-162	173	1
2.7	2015_May_06_1213	s	s	2	4	SIC	382	RC	2	0	02VD 02VO 09VC 02MD 02MO 02MC 02RD 02RO	1	0	1.20664906502	360.0	-306.0	358	-313	1
2.7	2015_May_06_1213	s	s	2	4	SIC	383	RC	2	2	09VD 02VO 02VC 02MD 02MO 02MC 02RD 02RO	1	0	0.96452498436	-395.0	312.0	-394	305	1
2.7	2015_May_06_1213	s	s	2	4	SIC	384	RC	1	2	02VD 02VO 02VC 09MD 02MO 02MC 02RD 02RO	1	0	0.62340593338	-245.0	-72.0	-250	-83	1
2.7	2015_May_06_1213	s	s	2	4	SIC	385	RC	0	2	02VD 02VO 02VC 02MD 02MO 02MC 09RD 02RO	1	0	0.641623020172	-367.0	-34.0	-363	-42	1
2.7	2015_May_06_1213	s	s	2	4	SIC	386	ABS	2	2	10VD 02VO 02VC 02MD 02MO 02MC 02RD 02RO	0	1	2.00952386856	None	None	None	None	1
2.7	2015_May_06_1213	s	s	2	4	SIC	387	ABS	1	2	02VD 02VO 02VC 10MD 02MO 02MC 02RD 02RO	0	1	1.54792499542	None	None	None	None	1
2.7	2015_May_06_1213	s	s	2	4	SIC	388	ABS	2	1	02VD 10VO 02VC 02MD 02MO 02MC 02RD 02RO	0	1	1.51229405403	None	None	None	None	1
2.7	2015_May_06_1213	s	s	2	4	SIC	389	RC	2	1	02VD 09VO 02VC 02MD 02MO 02MC 02RD 02RO	1	0	1.37145590782	-386.0	-336.0	-386	-330	1
2.7	2015_May_06_1213	s	s	2	4	SIC	390	RC	0	1	02VD 02VO 02VC 02MD 02MO 02MC 02RD 09RO	1	0	1.18815898895	534.0	-26.0	538	-29	1
2.7	2015_May_06_1213	s	s	2	4	SIC	391	RC	2	0	02VD 02VO 09VC 02MD 02MO 02MC 02RD 02RO	1	0	1.64732813835	-520.0	337.0	-517	343	1
2.7	2015_May_06_1213	s	s	2	4	SIC	392	ABS	1	0	02VD 02VO 02VC 02MD 02MO 10MC 02RD 02RO	0	1	2.04249501228	None	None	None	None	1
2.7	2015_May_06_1213	s	s	2	4	SIC	393	ABS	0	2	02VD 02VO 02VC 02MD 02MO 02MC 10RD 02RO	0	1	1.57677102089	None	None	None	None	1
2.7	2015_May_06_1213	s	s	2	4	SIC	394	RC	1	0	02VD 02VO 02VC 02MD 02MO 09MC 02RD 02RO	1	0	2.25970506668	38.0	399.0	35	403	1
2.7	2015_May_06_1213	s	s	2	4	SIC	395	RC	1	2	02VD 02VO 02VC 09MD 02MO 02MC 02RD 02RO	1	0	0.653399944305	92.0	48.0	82	46	1
2.7	2015_May_06_1213	s	s	2	4	SIC	396	ABS	1	1	02VD 02VO 02VC 02MD 10MO 02MC 02RD 02RO	0	1	2.15321922302	None	None	None	None	1
2.7	2015_May_06_1213	s	s	2	4	SIC	397	RC	2	2	09VD 02VO 02VC 02MD 02MO 02MC 02RD 02RO	1	0	0.889074087143	380.0	-99.0	390	-96	1
2.7	2015_May_06_1213	s	s	2	4	SIC	398	ABS	0	1	02VD 02VO 02VC 02MD 02MO 02MC 02RD 10RO	0	1	2.49846315384	None	None	None	None	1
2.7	2015_May_06_1213	s	s	2	4	SIC	399	RC	1	1	02VD 02VO 02VC 02MD 09MO 02MC 02RD 02RO	0	1	2.18410897255	526.0	90.0	None	None	0
2.7	2015_May_06_1213	s	s	2	4	SIC	400	ABS	2	0	02VD 02VO 10VC 02MD 02MO 02MC 02RD 02RO	0	1	2.10625505447	None	None	None	None	1
2.7	2015_May_06_1213	s	s	2	4	SIC	401	ABS	2	0	02VD 02VO 10VC 02MD 02MO 02MC 02RD 02RO	0	1	1.75984096527	None	None	None	None	1
2.7	2015_May_06_1213	s	s	2	4	SIC	402	RC	1	0	02VD 02VO 02VC 02MD 02MO 09MC 02RD 02RO	1	0	0.976283788681	157.0	335.0	148	336	1
2.7	2015_May_06_1213	s	s	2	4	SIC	403	ABS	1	1	02VD 02VO 02VC 02MD 10MO 02MC 02RD 02RO	0	1	1.30145311356	None	None	None	None	1
2.7	2015_May_06_1213	s	s	2	4	SIC	404	ABS	1	2	02VD 02VO 02VC 10MD 02MO 02MC 02RD 02RO	0	1	1.21171808243	None	None	None	None	1
2.7	2015_May_06_1213	s	s	2	4	SIC	405	ABS	0	1	02VD 02VO 02VC 02MD 02MO 02MC 02RD 10RO	0	1	2.99575710297	None	None	None	None	1
2.7	2015_May_06_1213	s	s	2	4	SIC	406	RC	0	2	02VD 02VO 02VC 02MD 02MO 02MC 09RD 02RO	1	0	0.759848833084	-49.0	-87.0	-51	-83	1
2.7	2015_May_06_1213	s	s	2	4	SIC	407	RC	1	1	02VD 02VO 02VC 02MD 09MO 02MC 02RD 02RO	1	0	1.27643990517	-471.0	28.0	-468	25	1
2.7	2015_May_06_1213	s	s	2	4	SIC	408	ABS	2	2	10VD 02VO 02VC 02MD 02MO 02MC 02RD 02RO	1	0	1.84465503693	None	None	-58	-157	0
2.7	2015_May_06_1213	s	s	2	4	SIC	409	RC	2	2	09VD 02VO 02VC 02MD 02MO 02MC 02RD 02RO	1	0	0.651283025742	45.0	-251.0	42	-263	1
2.7	2015_May_06_1213	s	s	2	4	SIC	410	ABS	2	1	02VD 10VO 02VC 02MD 02MO 02MC 02RD 02RO	0	1	2.01953697205	None	None	None	None	1
2.7	2015_May_06_1213	s	s	2	4	SIC	411	ABS	0	2	02VD 02VO 02VC 02MD 02MO 02MC 10RD 02RO	0	1	1.94144010544	None	None	None	None	1
2.7	2015_May_06_1213	s	s	2	4	SIC	412	RC	0	1	02VD 02VO 02VC 02MD 02MO 02MC 02RD 09RO	1	0	1.65902304649	-532.0	-241.0	-536	-239	1
2.7	2015_May_06_1213	s	s	2	4	SIC	413	RC	2	0	02VD 02VO 09VC 02MD 02MO 02MC 02RD 02RO	1	0	0.630197048187	143.0	114.0	137	118	1
2.7	2015_May_06_1213	s	s	2	4	SIC	414	ABS	1	0	02VD 02VO 02VC 02MD 02MO 10MC 02RD 02RO	0	1	1.67072916031	None	None	None	None	1
2.7	2015_May_06_1213	s	s	2	4	SIC	415	RC	2	1	02VD 09VO 02VC 02MD 02MO 02MC 02RD 02RO	1	0	0.670305013657	-232.0	-162.0	-240	-163	1
2.7	2015_May_06_1213	s	s	2	4	SIC	416	RC	1	2	02VD 02VO 02VC 09MD 02MO 02MC 02RD 02RO	1	0	0.658522844315	-17.0	-183.0	-14	-179	1
2.7	2015_May_06_1213	s	s	2	4	SIC	417	RC	2	2	09VD 02VO 02VC 02MD 02MO 02MC 02RD 02RO	1	0	0.599636077881	45.0	-95.0	41	-101	1
2.7	2015_May_06_1213	s	s	2	4	SIC	418	ABS	0	2	02VD 02VO 02VC 02MD 02MO 02MC 10RD 02RO	0	1	2.45584702492	None	None	None	None	1
2.7	2015_May_06_1213	s	s	2	4	SIC	419	ABS	1	1	02VD 02VO 02VC 02MD 10MO 02MC 02RD 02RO	0	1	1.48936200142	None	None	None	None	1
2.7	2015_May_06_1213	s	s	2	4	SIC	420	ABS	2	0	02VD 02VO 10VC 02MD 02MO 02MC 02RD 02RO	0	1	1.74141597748	None	None	None	None	1
2.7	2015_May_06_1213	s	s	2	4	SIC	421	RC	0	2	02VD 02VO 02VC 02MD 02MO 02MC 09RD 02RO	1	0	1.58840203285	408.0	328.0	403	328	1
2.7	2015_May_06_1213	s	s	2	4	SIC	422	RC	1	0	02VD 02VO 02VC 02MD 02MO 09MC 02RD 02RO	1	0	0.936038970947	171.0	-233.0	170	-238	1
2.7	2015_May_06_1213	s	s	2	4	SIC	423	ABS	2	2	10VD 02VO 02VC 02MD 02MO 02MC 02RD 02RO	0	1	1.5975458622	None	None	None	None	1
2.7	2015_May_06_1213	s	s	2	4	SIC	424	ABS	1	2	02VD 02VO 02VC 10MD 02MO 02MC 02RD 02RO	0	1	2.56537795067	None	None	None	None	1
2.7	2015_May_06_1213	s	s	2	4	SIC	425	ABS	1	0	02VD 02VO 02VC 02MD 02MO 10MC 02RD 02RO	0	1	2.2654812336	None	None	None	None	1
2.7	2015_May_06_1213	s	s	2	4	SIC	426	ABS	0	1	02VD 02VO 02VC 02MD 02MO 02MC 02RD 10RO	0	1	3.19738817215	None	None	None	None	1
2.7	2015_May_06_1213	s	s	2	4	SIC	427	ABS	2	1	02VD 10VO 02VC 02MD 02MO 02MC 02RD 02RO	0	1	1.74142003059	None	None	None	None	1
2.7	2015_May_06_1213	s	s	2	4	SIC	428	RC	2	0	02VD 02VO 09VC 02MD 02MO 02MC 02RD 02RO	1	0	0.914537906647	358.0	127.0	353	129	1
2.7	2015_May_06_1213	s	s	2	4	SIC	429	RC	1	2	02VD 02VO 02VC 09MD 02MO 02MC 02RD 02RO	1	0	0.547512054443	-78.0	56.0	-80	51	1
2.7	2015_May_06_1213	s	s	2	4	SIC	430	RC	2	1	02VD 09VO 02VC 02MD 02MO 02MC 02RD 02RO	1	0	1.96501016617	-422.0	377.0	-420	371	1
2.7	2015_May_06_1213	s	s	2	4	SIC	431	RC	1	1	02VD 02VO 02VC 02MD 09MO 02MC 02RD 02RO	1	0	0.761956930161	-269.0	-79.0	-262	-83	1
2.7	2015_May_06_1213	s	s	2	4	SIC	432	RC	0	1	02VD 02VO 02VC 02MD 02MO 02MC 02RD 09RO	1	0	2.74190688133	-66.0	391.0	-68	382	1
2.7	2015_May_06_1213	s	s	2	4	SIC	433	ABS	1	2	02VD 02VO 02VC 10MD 02MO 02MC 02RD 02RO	0	1	1.60629916191	None	None	None	None	1
2.7	2015_May_06_1213	s	s	2	4	SIC	434	ABS	1	1	02VD 02VO 02VC 02MD 10MO 02MC 02RD 02RO	0	1	2.3181989193	None	None	None	None	1
2.7	2015_May_06_1213	s	s	2	4	SIC	435	RC	1	1	02VD 02VO 02VC 02MD 09MO 02MC 02RD 02RO	1	0	0.917438983917	-87.0	-373.0	-96	-376	1
2.7	2015_May_06_1213	s	s	2	4	SIC	436	ABS	0	2	02VD 02VO 02VC 02MD 02MO 02MC 10RD 02RO	0	1	1.57666182518	None	None	None	None	1
2.7	2015_May_06_1213	s	s	2	4	SIC	437	RC	1	2	02VD 02VO 02VC 09MD 02MO 02MC 02RD 02RO	1	0	0.982980966568	-466.0	-135.0	-473	-135	1
2.7	2015_May_06_1213	s	s	2	4	SIC	438	RC	0	1	02VD 02VO 02VC 02MD 02MO 02MC 02RD 09RO	1	0	1.07715296745	150.0	-153.0	162	-151	1
2.7	2015_May_06_1213	s	s	2	4	SIC	439	ABS	2	0	02VD 02VO 10VC 02MD 02MO 02MC 02RD 02RO	0	1	1.89439797401	None	None	None	None	1
2.7	2015_May_06_1213	s	s	2	4	SIC	440	RC	1	0	02VD 02VO 02VC 02MD 02MO 09MC 02RD 02RO	1	0	1.40715122223	-456.0	-360.0	-450	-352	1
2.7	2015_May_06_1213	s	s	2	4	SIC	441	ABS	0	1	02VD 02VO 02VC 02MD 02MO 02MC 02RD 10RO	0	1	3.94860911369	None	None	None	None	1
2.7	2015_May_06_1213	s	s	2	4	SIC	442	RC	2	0	02VD 02VO 09VC 02MD 02MO 02MC 02RD 02RO	1	0	0.653641939163	44.0	208.0	53	208	1
2.7	2015_May_06_1213	s	s	2	4	SIC	443	RC	2	2	09VD 02VO 02VC 02MD 02MO 02MC 02RD 02RO	1	0	1.28237318993	-453.0	-356.0	-455	-350	1
2.7	2015_May_06_1213	s	s	2	4	SIC	444	ABS	1	0	02VD 02VO 02VC 02MD 02MO 10MC 02RD 02RO	0	1	1.44220304489	None	None	None	None	1
2.7	2015_May_06_1213	s	s	2	4	SIC	445	ABS	2	1	02VD 10VO 02VC 02MD 02MO 02MC 02RD 02RO	0	1	1.51325106621	None	None	None	None	1
2.7	2015_May_06_1213	s	s	2	4	SIC	446	ABS	2	2	10VD 02VO 02VC 02MD 02MO 02MC 02RD 02RO	0	1	1.67750287056	None	None	None	None	1
2.7	2015_May_06_1213	s	s	2	4	SIC	447	RC	0	2	02VD 02VO 02VC 02MD 02MO 02MC 09RD 02RO	1	0	0.634984970093	-54.0	81.0	-45	85	1
2.7	2015_May_06_1213	s	s	2	4	SIC	448	RC	2	1	02VD 09VO 02VC 02MD 02MO 02MC 02RD 02RO	1	0	1.24469208717	-239.0	-220.0	-226	-217	1
2.7	2015_May_06_1213	s	s	2	4	SIC	449	RC	0	2	02VD 02VO 02VC 02MD 02MO 02MC 09RD 02RO	1	0	0.971309900284	81.0	-275.0	72	-269	1
2.7	2015_May_06_1213	s	s	2	4	SIC	450	ABS	2	0	02VD 02VO 10VC 02MD 02MO 02MC 02RD 02RO	0	1	1.83058595657	None	None	None	None	1
2.7	2015_May_06_1213	s	s	2	4	SIC	451	ABS	1	1	02VD 02VO 02VC 02MD 10MO 02MC 02RD 02RO	0	1	1.66550993919	None	None	None	None	1
2.7	2015_May_06_1213	s	s	2	4	SIC	452	ABS	2	1	02VD 10VO 02VC 02MD 02MO 02MC 02RD 02RO	0	1	1.3883099556	None	None	None	None	1
2.7	2015_May_06_1213	s	s	2	4	SIC	453	ABS	0	2	02VD 02VO 02VC 02MD 02MO 02MC 10RD 02RO	0	1	1.45394587517	None	None	None	None	1
2.7	2015_May_06_1213	s	s	2	4	SIC	454	RC	2	2	09VD 02VO 02VC 02MD 02MO 02MC 02RD 02RO	1	0	0.764474153519	-126.0	-273.0	-116	-269	1
2.7	2015_May_06_1213	s	s	2	4	SIC	455	RC	1	2	02VD 02VO 02VC 09MD 02MO 02MC 02RD 02RO	1	0	0.900114059448	-321.0	91.0	-332	93	1
2.7	2015_May_06_1213	s	s	2	4	SIC	456	ABS	1	0	02VD 02VO 02VC 02MD 02MO 10MC 02RD 02RO	0	1	2.3834130764	None	None	None	None	1
2.7	2015_May_06_1213	s	s	2	4	SIC	457	ABS	1	2	02VD 02VO 02VC 10MD 02MO 02MC 02RD 02RO	0	1	1.43540287018	None	None	None	None	1
2.7	2015_May_06_1213	s	s	2	4	SIC	458	ABS	0	1	02VD 02VO 02VC 02MD 02MO 02MC 02RD 10RO	0	1	2.69035220146	None	None	None	None	1
2.7	2015_May_06_1213	s	s	2	4	SIC	459	RC	2	1	02VD 09VO 02VC 02MD 02MO 02MC 02RD 02RO	1	0	1.31281304359	-533.0	-85.0	-543	-83	1
2.7	2015_May_06_1213	s	s	2	4	SIC	460	ABS	2	2	10VD 02VO 02VC 02MD 02MO 02MC 02RD 02RO	0	1	1.61186408997	None	None	None	None	1
2.7	2015_May_06_1213	s	s	2	4	SIC	461	RC	1	1	02VD 02VO 02VC 02MD 09MO 02MC 02RD 02RO	1	0	2.05931901932	-476.0	-389.0	-471	-388	1
2.7	2015_May_06_1213	s	s	2	4	SIC	462	RC	1	0	02VD 02VO 02VC 02MD 02MO 09MC 02RD 02RO	1	0	0.879554986954	-3.0	97.0	-3	99	1
2.7	2015_May_06_1213	s	s	2	4	SIC	463	RC	2	0	02VD 02VO 09VC 02MD 02MO 02MC 02RD 02RO	1	0	0.841894865036	62.0	173.0	60	170	1
2.7	2015_May_06_1213	s	s	2	4	SIC	464	RC	0	1	02VD 02VO 02VC 02MD 02MO 02MC 02RD 09RO	1	0	0.68818116188	-17.0	37.0	-19	36	1
2.7	2015_May_06_1213	s	s	2	4	SIC	465	ABS	1	2	02VD 02VO 02VC 10MD 02MO 02MC 02RD 02RO	0	1	1.68248605728	None	None	None	None	1
2.7	2015_May_06_1213	s	s	2	4	SIC	466	ABS	2	1	02VD 10VO 02VC 02MD 02MO 02MC 02RD 02RO	0	1	1.37185811996	None	None	None	None	1
2.7	2015_May_06_1213	s	s	2	4	SIC	467	ABS	2	2	10VD 02VO 02VC 02MD 02MO 02MC 02RD 02RO	0	1	1.70057988167	None	None	None	None	1
2.7	2015_May_06_1213	s	s	2	4	SIC	468	RC	0	2	02VD 02VO 02VC 02MD 02MO 02MC 09RD 02RO	1	0	1.57194399834	254.0	-273.0	264	-268	1
2.7	2015_May_06_1213	s	s	2	4	SIC	469	RC	1	0	02VD 02VO 02VC 02MD 02MO 09MC 02RD 02RO	0	1	1.46553301811	-298.0	384.0	None	None	0
2.7	2015_May_06_1213	s	s	2	4	SIC	470	ABS	2	0	02VD 02VO 10VC 02MD 02MO 02MC 02RD 02RO	0	1	1.77150797844	None	None	None	None	1
2.7	2015_May_06_1213	s	s	2	4	SIC	471	RC	2	2	09VD 02VO 02VC 02MD 02MO 02MC 02RD 02RO	1	0	1.15980815887	-491.0	-317.0	-495	-317	1
2.7	2015_May_06_1213	s	s	2	4	SIC	472	ABS	0	2	02VD 02VO 02VC 02MD 02MO 02MC 10RD 02RO	0	1	1.73657202721	None	None	None	None	1
2.7	2015_May_06_1213	s	s	2	4	SIC	473	RC	2	0	02VD 02VO 09VC 02MD 02MO 02MC 02RD 02RO	1	0	0.758806943893	108.0	48.0	111	48	1
2.7	2015_May_06_1213	s	s	2	4	SIC	474	ABS	0	1	02VD 02VO 02VC 02MD 02MO 02MC 02RD 10RO	0	1	3.18940186501	None	None	None	None	1
2.7	2015_May_06_1213	s	s	2	4	SIC	475	RC	1	1	02VD 02VO 02VC 02MD 09MO 02MC 02RD 02RO	1	0	1.40683412552	456.0	144.0	455	139	1
2.7	2015_May_06_1213	s	s	2	4	SIC	476	ABS	1	0	02VD 02VO 02VC 02MD 02MO 10MC 02RD 02RO	0	1	1.61889219284	None	None	None	None	1
2.7	2015_May_06_1213	s	s	2	4	SIC	477	RC	1	2	02VD 02VO 02VC 09MD 02MO 02MC 02RD 02RO	1	0	0.970154047012	-45.0	323.0	-52	324	1
2.7	2015_May_06_1213	s	s	2	4	SIC	478	RC	0	1	02VD 02VO 02VC 02MD 02MO 02MC 02RD 09RO	1	0	1.58370494843	-290.0	-236.0	-290	-234	1
2.7	2015_May_06_1213	s	s	2	4	SIC	479	ABS	1	1	02VD 02VO 02VC 02MD 10MO 02MC 02RD 02RO	0	1	2.39544200897	None	None	None	None	1
2.7	2015_May_06_1213	s	s	2	4	SIC	480	RC	2	1	02VD 09VO 02VC 02MD 02MO 02MC 02RD 02RO	1	0	1.38383102417	196.0	169.0	196	160	1
