Version	Date	Stimuli	Method	Subject	Session	Condition	Trial	Target	Channel1	Channel2	Distractors	LMouseButton	RMouseButton	RT	TargetX	TargetY	ResponseX	ResponseY	Correct
2.7	2015_May_03_1927	s	s	2	1	Capacity	1	ABS	0	1	08RD 16RO	0	1	13.2965328693	None	None	None	None	1
2.7	2015_May_03_1927	s	s	2	1	Capacity	2	RC	0	1	08RD 15RO	1	0	2.17701101303	-337.0	220.0	-331	212	1
2.7	2015_May_03_1927	s	s	2	1	Capacity	3	RC	0	2	15RD 08RO	1	0	1.56028008461	-492.0	151.0	-493	151	1
2.7	2015_May_03_1927	s	s	2	1	Capacity	4	ABS	0	2	16RD 08RO	0	1	4.03671097755	None	None	None	None	1
2.7	2015_May_03_1927	s	s	2	1	Capacity	5	ABS	0	2	16RD 08RO	0	1	4.45519089699	None	None	None	None	1
2.7	2015_May_03_1927	s	s	2	1	Capacity	6	ABS	0	1	08RD 16RO	0	1	7.2688331604	None	None	None	None	1
2.7	2015_May_03_1927	s	s	2	1	Capacity	7	RC	0	1	08RD 15RO	1	0	4.56626915932	-502.0	370.0	-505	364	1
2.7	2015_May_03_1927	s	s	2	1	Capacity	8	RC	0	2	15RD 08RO	1	0	3.95433497429	494.0	88.0	503	89	1
2.7	2015_May_03_1927	s	s	2	1	Capacity	9	ABS	0	1	08RD 16RO	0	1	5.65619206429	None	None	None	None	1
2.7	2015_May_03_1927	s	s	2	1	Capacity	10	RC	0	1	08RD 15RO	1	0	1.33794498444	-303.0	53.0	-303	58	1
2.7	2015_May_03_1927	s	s	2	1	Capacity	11	ABS	0	2	16RD 08RO	0	1	2.94919896126	None	None	None	None	1
2.7	2015_May_03_1927	s	s	2	1	Capacity	12	RC	0	2	15RD 08RO	0	1	1.68246793747	203.0	42.0	None	None	0
2.7	2015_May_03_1927	s	s	2	1	Capacity	13	ABS	0	2	16RD 08RO	0	1	3.9728307724	None	None	None	None	1
2.7	2015_May_03_1927	s	s	2	1	Capacity	14	RC	0	1	08RD 15RO	1	0	5.83275318146	351.0	323.0	339	329	1
2.7	2015_May_03_1927	s	s	2	1	Capacity	15	ABS	0	1	08RD 16RO	0	1	6.00610685349	None	None	None	None	1
2.7	2015_May_03_1927	s	s	2	1	Capacity	16	RC	0	2	15RD 08RO	1	0	3.74236392975	235.0	-399.0	231	-401	1
2.7	2015_May_03_1927	s	s	2	1	Capacity	17	ABS	0	1	08RD 16RO	0	1	6.63290882111	None	None	None	None	1
2.7	2015_May_03_1927	s	s	2	1	Capacity	18	ABS	0	2	16RD 08RO	0	1	2.87725615501	None	None	None	None	1
2.7	2015_May_03_1927	s	s	2	1	Capacity	19	RC	0	2	15RD 08RO	1	0	3.43637108803	235.0	96.0	241	93	1
2.7	2015_May_03_1927	s	s	2	1	Capacity	20	RC	0	1	08RD 15RO	0	1	6.02269697189	288.0	273.0	None	None	0
2.7	2015_May_03_1927	s	s	2	1	Capacity	21	RC	0	1	08RD 15RO	1	0	3.80743908882	125.0	215.0	118	215	1
2.7	2015_May_03_1927	s	s	2	1	Capacity	22	ABS	0	1	08RD 16RO	0	1	5.53795099258	None	None	None	None	1
2.7	2015_May_03_1927	s	s	2	1	Capacity	23	RC	0	2	15RD 08RO	1	0	1.64268994331	-152.0	22.0	-155	28	1
2.7	2015_May_03_1927	s	s	2	1	Capacity	24	ABS	0	2	16RD 08RO	0	1	6.20920085907	None	None	None	None	1
2.7	2015_May_03_1927	s	s	2	1	Capacity	25	ABS	0	1	08RD 16RO	0	1	8.74490785599	None	None	None	None	1
2.7	2015_May_03_1927	s	s	2	1	Capacity	26	ABS	0	2	16RD 08RO	0	1	6.68548107147	None	None	None	None	1
2.7	2015_May_03_1927	s	s	2	1	Capacity	27	RC	0	2	15RD 08RO	1	0	1.04702019691	-224.0	217.0	-227	226	1
2.7	2015_May_03_1927	s	s	2	1	Capacity	28	RC	0	1	08RD 15RO	1	0	2.14567303658	-381.0	-137.0	-375	-137	1
2.7	2015_May_03_1927	s	s	2	1	Capacity	29	RC	0	1	08RD 15RO	1	0	2.4191069603	15.0	-338.0	16	-342	1
2.7	2015_May_03_1927	s	s	2	1	Capacity	30	ABS	0	1	08RD 16RO	0	1	6.46152806282	None	None	None	None	1
2.7	2015_May_03_1927	s	s	2	1	Capacity	31	ABS	0	2	16RD 08RO	0	1	4.56637191772	None	None	None	None	1
2.7	2015_May_03_1927	s	s	2	1	Capacity	32	RC	0	2	15RD 08RO	1	0	0.9007999897	-386.0	98.0	-384	97	1
2.7	2015_May_03_1927	s	s	2	1	Capacity	33	ABS	0	1	08RD 16RO	0	1	6.70320892334	None	None	None	None	1
2.7	2015_May_03_1927	s	s	2	1	Capacity	34	RC	0	2	15RD 08RO	1	0	3.41667509079	396.0	205.0	398	195	1
2.7	2015_May_03_1927	s	s	2	1	Capacity	35	ABS	0	2	16RD 08RO	0	1	4.34271597862	None	None	None	None	1
2.7	2015_May_03_1927	s	s	2	1	Capacity	36	RC	0	1	08RD 15RO	1	0	1.36477708817	-50.0	187.0	-58	185	1
2.7	2015_May_03_1927	s	s	2	1	Capacity	37	ABS	0	1	08RD 16RO	0	1	6.50368404388	None	None	None	None	1
2.7	2015_May_03_1927	s	s	2	1	Capacity	38	RC	0	1	08RD 15RO	1	0	2.98658490181	-334.0	-394.0	-332	-397	1
2.7	2015_May_03_1927	s	s	2	1	Capacity	39	ABS	0	2	16RD 08RO	0	1	4.18965291977	None	None	None	None	1
2.7	2015_May_03_1927	s	s	2	1	Capacity	40	RC	0	2	15RD 08RO	1	0	3.56325101852	382.0	279.0	383	280	1
2.7	2015_May_03_1927	s	s	2	1	Capacity	41	RC	0	2	15RD 08RO	1	0	1.7767059803	-506.0	32.0	-494	33	1
2.7	2015_May_03_1927	s	s	2	1	Capacity	42	ABS	0	2	16RD 08RO	0	1	4.47226691246	None	None	None	None	1
2.7	2015_May_03_1927	s	s	2	1	Capacity	43	RC	0	1	08RD 15RO	1	0	2.27835607529	-467.0	-242.0	-465	-250	1
2.7	2015_May_03_1927	s	s	2	1	Capacity	44	ABS	0	1	08RD 16RO	0	1	7.71579694748	None	None	None	None	1
2.7	2015_May_03_1927	s	s	2	1	Capacity	45	ABS	0	2	16RD 08RO	0	1	4.5270550251	None	None	None	None	1
2.7	2015_May_03_1927	s	s	2	1	Capacity	46	RC	0	2	15RD 08RO	1	0	1.93634605408	-506.0	-254.0	-508	-258	1
2.7	2015_May_03_1927	s	s	2	1	Capacity	47	RC	0	1	08RD 15RO	1	0	2.5065369606	-493.0	187.0	-497	190	1
2.7	2015_May_03_1927	s	s	2	1	Capacity	48	ABS	0	1	08RD 16RO	0	1	9.80420184135	None	None	None	None	1
2.7	2015_May_03_1927	s	s	2	1	Capacity	49	ABS	0	2	16RD 08RO	0	1	4.01312994957	None	None	None	None	1
2.7	2015_May_03_1927	s	s	2	1	Capacity	50	RC	0	2	15RD 08RO	1	0	1.4545609951	-68.0	189.0	-68	177	1
2.7	2015_May_03_1927	s	s	2	1	Capacity	51	RC	0	1	08RD 15RO	1	0	2.31339597702	-56.0	368.0	-48	365	1
2.7	2015_May_03_1927	s	s	2	1	Capacity	52	ABS	0	1	08RD 16RO	0	1	7.94126701355	None	None	None	None	1
2.7	2015_May_03_1927	s	s	2	1	Capacity	53	ABS	0	1	08RD 16RO	0	1	7.42664313316	None	None	None	None	1
2.7	2015_May_03_1927	s	s	2	1	Capacity	54	RC	0	2	15RD 08RO	1	0	1.64236783981	-329.0	406.0	-337	411	1
2.7	2015_May_03_1927	s	s	2	1	Capacity	55	RC	0	1	08RD 15RO	1	0	5.29616904259	266.0	74.0	278	75	1
2.7	2015_May_03_1927	s	s	2	1	Capacity	56	ABS	0	2	16RD 08RO	0	1	3.97780799866	None	None	None	None	1
2.7	2015_May_03_1927	s	s	2	1	Capacity	57	RC	0	1	08RD 15RO	1	0	3.93044304848	438.0	319.0	438	322	1
2.7	2015_May_03_1927	s	s	2	1	Capacity	58	RC	0	2	15RD 08RO	1	0	2.18419504166	-450.0	-404.0	-458	-405	1
2.7	2015_May_03_1927	s	s	2	1	Capacity	59	ABS	0	2	16RD 08RO	0	1	3.15082907677	None	None	None	None	1
2.7	2015_May_03_1927	s	s	2	1	Capacity	60	ABS	0	1	08RD 16RO	0	1	4.39022183418	None	None	None	None	1
2.7	2015_May_03_1927	s	s	2	1	Capacity	61	RC	0	1	08RD 15RO	1	0	4.24854397774	270.0	114.0	273	124	1
2.7	2015_May_03_1927	s	s	2	1	Capacity	62	RC	0	2	15RD 08RO	1	0	1.19999599457	-59.0	83.0	-70	86	1
2.7	2015_May_03_1927	s	s	2	1	Capacity	63	ABS	0	1	08RD 16RO	0	1	5.24904704094	None	None	None	None	1
2.7	2015_May_03_1927	s	s	2	1	Capacity	64	ABS	0	2	16RD 08RO	0	1	3.14916086197	None	None	None	None	1
2.7	2015_May_03_1927	s	s	2	1	Capacity	1	RC	1	0	08VC 15MC	1	0	4.76168584824	336.0	202.0	340	201	1
2.7	2015_May_03_1927	s	s	2	1	Capacity	2	ABS	1	0	08VC 16MC	0	1	3.17740106583	None	None	None	None	1
2.7	2015_May_03_1927	s	s	2	1	Capacity	3	ABS	2	0	16VC 08MC	0	1	6.32014799118	None	None	None	None	1
2.7	2015_May_03_1927	s	s	2	1	Capacity	4	RC	2	0	15VC 08MC	1	0	1.50606608391	-216.0	72.0	-225	69	1
2.7	2015_May_03_1927	s	s	2	1	Capacity	5	ABS	1	0	08VC 16MC	0	1	7.19108390808	None	None	None	None	1
2.7	2015_May_03_1927	s	s	2	1	Capacity	6	RC	1	0	08VC 15MC	1	0	1.17159700394	37.0	20.0	43	21	1
2.7	2015_May_03_1927	s	s	2	1	Capacity	7	RC	2	0	15VC 08MC	1	0	3.38934016228	345.0	249.0	338	247	1
2.7	2015_May_03_1927	s	s	2	1	Capacity	8	ABS	2	0	16VC 08MC	0	1	5.89322805405	None	None	None	None	1
2.7	2015_May_03_1927	s	s	2	1	Capacity	9	RC	2	0	15VC 08MC	1	0	1.19529891014	186.0	105.0	183	107	1
2.7	2015_May_03_1927	s	s	2	1	Capacity	10	ABS	1	0	08VC 16MC	0	1	8.67429184914	None	None	None	None	1
2.7	2015_May_03_1927	s	s	2	1	Capacity	11	RC	1	0	08VC 15MC	1	0	2.99598288536	318.0	-35.0	316	-40	1
2.7	2015_May_03_1927	s	s	2	1	Capacity	12	ABS	2	0	16VC 08MC	0	1	3.26668190956	None	None	None	None	1
2.7	2015_May_03_1927	s	s	2	1	Capacity	13	ABS	1	0	08VC 16MC	0	1	8.3329398632	None	None	None	None	1
2.7	2015_May_03_1927	s	s	2	1	Capacity	14	RC	1	0	08VC 15MC	1	0	3.18555593491	-477.0	-337.0	-476	-343	1
2.7	2015_May_03_1927	s	s	2	1	Capacity	15	ABS	2	0	16VC 08MC	0	1	2.63614988327	None	None	None	None	1
2.7	2015_May_03_1927	s	s	2	1	Capacity	16	RC	2	0	15VC 08MC	1	0	0.936470031738	-33.0	69.0	-31	68	1
2.7	2015_May_03_1927	s	s	2	1	Capacity	17	ABS	1	0	08VC 16MC	0	1	4.39898204803	None	None	None	None	1
2.7	2015_May_03_1927	s	s	2	1	Capacity	18	RC	2	0	15VC 08MC	1	0	2.08276414871	-456.0	148.0	-465	148	1
2.7	2015_May_03_1927	s	s	2	1	Capacity	19	RC	1	0	08VC 15MC	1	0	1.36466598511	126.0	2.0	132	4	1
2.7	2015_May_03_1927	s	s	2	1	Capacity	20	ABS	2	0	16VC 08MC	0	1	4.96659994125	None	None	None	None	1
2.7	2015_May_03_1927	s	s	2	1	Capacity	21	RC	2	0	15VC 08MC	1	0	1.61193609238	419.0	336.0	422	330	1
2.7	2015_May_03_1927	s	s	2	1	Capacity	22	ABS	1	0	08VC 16MC	0	1	5.9762878418	None	None	None	None	1
2.7	2015_May_03_1927	s	s	2	1	Capacity	23	RC	1	0	08VC 15MC	1	0	1.15963792801	-247.0	-103.0	-248	-106	1
2.7	2015_May_03_1927	s	s	2	1	Capacity	24	ABS	2	0	16VC 08MC	0	1	3.45492696762	None	None	None	None	1
2.7	2015_May_03_1927	s	s	2	1	Capacity	25	ABS	1	0	08VC 16MC	0	1	3.27158689499	None	None	None	None	1
2.7	2015_May_03_1927	s	s	2	1	Capacity	26	ABS	2	0	16VC 08MC	0	1	3.15410590172	None	None	None	None	1
2.7	2015_May_03_1927	s	s	2	1	Capacity	27	RC	2	0	15VC 08MC	1	0	1.98901295662	-272.0	-283.0	-264	-279	1
2.7	2015_May_03_1927	s	s	2	1	Capacity	28	RC	1	0	08VC 15MC	1	0	1.19504404068	-370.0	99.0	-377	102	1
2.7	2015_May_03_1927	s	s	2	1	Capacity	29	RC	2	0	15VC 08MC	1	0	0.994904994965	141.0	211.0	142	204	1
2.7	2015_May_03_1927	s	s	2	1	Capacity	30	ABS	2	0	16VC 08MC	0	1	3.11858987808	None	None	None	None	1
2.7	2015_May_03_1927	s	s	2	1	Capacity	31	ABS	1	0	08VC 16MC	0	1	6.42150902748	None	None	None	None	1
2.7	2015_May_03_1927	s	s	2	1	Capacity	32	RC	1	0	08VC 15MC	1	0	1.25865006447	526.0	-204.0	521	-197	1
2.7	2015_May_03_1927	s	s	2	1	Capacity	33	ABS	2	0	16VC 08MC	0	1	2.02388691902	None	None	None	None	1
2.7	2015_May_03_1927	s	s	2	1	Capacity	34	RC	2	0	15VC 08MC	1	0	0.983192920685	-274.0	111.0	-274	109	1
2.7	2015_May_03_1927	s	s	2	1	Capacity	35	RC	1	0	08VC 15MC	1	0	1.37658119202	99.0	404.0	97	396	1
2.7	2015_May_03_1927	s	s	2	1	Capacity	36	ABS	1	0	08VC 16MC	0	1	4.11422395706	None	None	None	None	1
2.7	2015_May_03_1927	s	s	2	1	Capacity	37	RC	1	0	08VC 15MC	1	0	1.14109396935	-540.0	-399.0	-540	-397	1
2.7	2015_May_03_1927	s	s	2	1	Capacity	38	RC	2	0	15VC 08MC	1	0	1.72434878349	-284.0	-153.0	-281	-148	1
2.7	2015_May_03_1927	s	s	2	1	Capacity	39	ABS	2	0	16VC 08MC	0	1	3.74942088127	None	None	None	None	1
2.7	2015_May_03_1927	s	s	2	1	Capacity	40	ABS	1	0	08VC 16MC	0	1	2.94248890877	None	None	None	None	1
2.7	2015_May_03_1927	s	s	2	1	Capacity	41	ABS	2	0	16VC 08MC	0	1	2.94816303253	None	None	None	None	1
2.7	2015_May_03_1927	s	s	2	1	Capacity	42	RC	2	0	15VC 08MC	1	0	1.08940601349	-327.0	52.0	-326	53	1
2.7	2015_May_03_1927	s	s	2	1	Capacity	43	ABS	1	0	08VC 16MC	0	1	4.02043890953	None	None	None	None	1
2.7	2015_May_03_1927	s	s	2	1	Capacity	44	RC	1	0	08VC 15MC	1	0	2.32989597321	-395.0	-162.0	-394	-165	1
2.7	2015_May_03_1927	s	s	2	1	Capacity	45	ABS	2	0	16VC 08MC	0	1	3.46001005173	None	None	None	None	1
2.7	2015_May_03_1927	s	s	2	1	Capacity	46	RC	2	0	15VC 08MC	1	0	1.01836419106	-468.0	-26.0	-478	-21	1
2.7	2015_May_03_1927	s	s	2	1	Capacity	47	ABS	1	0	08VC 16MC	0	1	4.70758104324	None	None	None	None	1
2.7	2015_May_03_1927	s	s	2	1	Capacity	48	RC	1	0	08VC 15MC	1	0	1.40682411194	418.0	-125.0	415	-124	1
2.7	2015_May_03_1927	s	s	2	1	Capacity	49	RC	2	0	15VC 08MC	1	0	1.34894108772	55.0	127.0	52	124	1
2.7	2015_May_03_1927	s	s	2	1	Capacity	50	ABS	2	0	16VC 08MC	0	1	1.71555685997	None	None	None	None	1
2.7	2015_May_03_1927	s	s	2	1	Capacity	51	RC	1	0	08VC 15MC	1	0	1.11272096634	-1.0	52.0	-4	43	1
2.7	2015_May_03_1927	s	s	2	1	Capacity	52	ABS	1	0	08VC 16MC	0	1	3.65462589264	None	None	None	None	1
2.7	2015_May_03_1927	s	s	2	1	Capacity	53	ABS	1	0	08VC 16MC	0	1	4.86968016624	None	None	None	None	1
2.7	2015_May_03_1927	s	s	2	1	Capacity	54	ABS	2	0	16VC 08MC	0	1	3.01766085625	None	None	None	None	1
2.7	2015_May_03_1927	s	s	2	1	Capacity	55	RC	2	0	15VC 08MC	1	0	1.4353530407	475.0	-261.0	475	-259	1
2.7	2015_May_03_1927	s	s	2	1	Capacity	56	RC	1	0	08VC 15MC	1	0	1.86657381058	33.0	-217.0	39	-220	1
2.7	2015_May_03_1927	s	s	2	1	Capacity	57	RC	2	0	15VC 08MC	1	0	1.38338088989	-210.0	-130.0	-196	-123	1
2.7	2015_May_03_1927	s	s	2	1	Capacity	58	ABS	1	0	08VC 16MC	0	1	6.72691822052	None	None	None	None	1
2.7	2015_May_03_1927	s	s	2	1	Capacity	59	ABS	2	0	16VC 08MC	0	1	3.96357679367	None	None	None	None	1
2.7	2015_May_03_1927	s	s	2	1	Capacity	60	RC	1	0	08VC 15MC	1	0	1.576597929	-91.0	-234.0	-96	-234	1
2.7	2015_May_03_1927	s	s	2	1	Capacity	61	RC	1	0	08VC 15MC	1	0	1.00829291344	-356.0	-170.0	-356	-175	1
2.7	2015_May_03_1927	s	s	2	1	Capacity	62	RC	2	0	15VC 08MC	1	0	2.53003406525	448.0	-376.0	451	-373	1
2.7	2015_May_03_1927	s	s	2	1	Capacity	63	ABS	1	0	08VC 16MC	0	1	6.4207971096	None	None	None	None	1
2.7	2015_May_03_1927	s	s	2	1	Capacity	64	ABS	2	0	16VC 08MC	0	1	1.7842810154	None	None	None	None	1
2.7	2015_May_03_1927	s	s	2	1	SIC	1	RC	1	1	02VD 02VO 02VC 02MD 09MO 02MC 02RD 02RO	1	0	4.86057496071	-351.0	28.0	-353	27	1
2.7	2015_May_03_1927	s	s	2	1	SIC	2	ABS	1	0	02VD 02VO 02VC 02MD 02MO 10MC 02RD 02RO	0	1	6.79472112656	None	None	None	None	1
2.7	2015_May_03_1927	s	s	2	1	SIC	3	ABS	1	1	02VD 02VO 02VC 02MD 10MO 02MC 02RD 02RO	0	1	4.20594596863	None	None	None	None	1
2.7	2015_May_03_1927	s	s	2	1	SIC	4	RC	1	0	02VD 02VO 02VC 02MD 02MO 09MC 02RD 02RO	1	0	5.31497693062	438.0	-303.0	441	-307	1
2.7	2015_May_03_1927	s	s	2	1	SIC	5	ABS	0	1	02VD 02VO 02VC 02MD 02MO 02MC 02RD 10RO	0	1	5.30790114403	None	None	None	None	1
2.7	2015_May_03_1927	s	s	2	1	SIC	6	RC	2	2	09VD 02VO 02VC 02MD 02MO 02MC 02RD 02RO	1	0	1.80690789223	-461.0	-176.0	-466	-177	1
2.7	2015_May_03_1927	s	s	2	1	SIC	7	ABS	2	2	10VD 02VO 02VC 02MD 02MO 02MC 02RD 02RO	0	1	3.17742609978	None	None	None	None	1
2.7	2015_May_03_1927	s	s	2	1	SIC	8	ABS	1	2	02VD 02VO 02VC 10MD 02MO 02MC 02RD 02RO	0	1	3.17785406113	None	None	None	None	1
2.7	2015_May_03_1927	s	s	2	1	SIC	9	RC	0	2	02VD 02VO 02VC 02MD 02MO 02MC 09RD 02RO	1	0	1.49461197853	174.0	90.0	168	82	1
2.7	2015_May_03_1927	s	s	2	1	SIC	10	ABS	2	1	02VD 10VO 02VC 02MD 02MO 02MC 02RD 02RO	0	1	2.71355390549	None	None	None	None	1
2.7	2015_May_03_1927	s	s	2	1	SIC	11	RC	1	2	02VD 02VO 02VC 09MD 02MO 02MC 02RD 02RO	1	0	0.976353883743	-310.0	177.0	-310	175	1
2.7	2015_May_03_1927	s	s	2	1	SIC	12	RC	2	1	02VD 09VO 02VC 02MD 02MO 02MC 02RD 02RO	1	0	1.38833498955	-520.0	297.0	-530	295	1
2.7	2015_May_03_1927	s	s	2	1	SIC	13	ABS	0	2	02VD 02VO 02VC 02MD 02MO 02MC 10RD 02RO	0	1	4.57376909256	None	None	None	None	1
2.7	2015_May_03_1927	s	s	2	1	SIC	14	RC	0	1	02VD 02VO 02VC 02MD 02MO 02MC 02RD 09RO	1	0	1.38827991486	-413.0	402.0	-412	396	1
2.7	2015_May_03_1927	s	s	2	1	SIC	15	ABS	2	0	02VD 02VO 10VC 02MD 02MO 02MC 02RD 02RO	0	1	2.47797584534	None	None	None	None	1
2.7	2015_May_03_1927	s	s	2	1	SIC	16	RC	2	0	02VD 02VO 09VC 02MD 02MO 02MC 02RD 02RO	1	0	1.88954091072	-67.0	-355.0	-74	-348	1
2.7	2015_May_03_1927	s	s	2	1	SIC	17	RC	2	0	02VD 02VO 09VC 02MD 02MO 02MC 02RD 02RO	1	0	1.68245005608	-534.0	246.0	-540	242	1
2.7	2015_May_03_1927	s	s	2	1	SIC	18	RC	1	2	02VD 02VO 02VC 09MD 02MO 02MC 02RD 02RO	1	0	1.07983398438	-404.0	290.0	-405	289	1
2.7	2015_May_03_1927	s	s	2	1	SIC	19	RC	2	2	09VD 02VO 02VC 02MD 02MO 02MC 02RD 02RO	1	0	2.28966403008	54.0	-326.0	61	-324	1
2.7	2015_May_03_1927	s	s	2	1	SIC	20	RC	1	0	02VD 02VO 02VC 02MD 02MO 09MC 02RD 02RO	1	0	3.35394501686	-229.0	-201.0	-219	-199	1
2.7	2015_May_03_1927	s	s	2	1	SIC	21	ABS	1	0	02VD 02VO 02VC 02MD 02MO 10MC 02RD 02RO	0	1	7.67379784584	None	None	None	None	1
2.7	2015_May_03_1927	s	s	2	1	SIC	22	RC	2	1	02VD 09VO 02VC 02MD 02MO 02MC 02RD 02RO	1	0	1.13616800308	-468.0	-58.0	-464	-57	1
2.7	2015_May_03_1927	s	s	2	1	SIC	23	ABS	2	2	10VD 02VO 02VC 02MD 02MO 02MC 02RD 02RO	0	1	3.37751698494	None	None	None	None	1
2.7	2015_May_03_1927	s	s	2	1	SIC	24	RC	0	1	02VD 02VO 02VC 02MD 02MO 02MC 02RD 09RO	1	0	2.44770503044	265.0	181.0	265	177	1
2.7	2015_May_03_1927	s	s	2	1	SIC	25	ABS	2	1	02VD 10VO 02VC 02MD 02MO 02MC 02RD 02RO	0	1	4.4015891552	None	None	None	None	1
2.7	2015_May_03_1927	s	s	2	1	SIC	26	ABS	0	2	02VD 02VO 02VC 02MD 02MO 02MC 10RD 02RO	0	1	2.62790584564	None	None	None	None	1
2.7	2015_May_03_1927	s	s	2	1	SIC	27	ABS	2	0	02VD 02VO 10VC 02MD 02MO 02MC 02RD 02RO	0	1	2.37173700333	None	None	None	None	1
2.7	2015_May_03_1927	s	s	2	1	SIC	28	ABS	0	1	02VD 02VO 02VC 02MD 02MO 02MC 02RD 10RO	0	1	4.21328902245	None	None	None	None	1
2.7	2015_May_03_1927	s	s	2	1	SIC	29	ABS	1	2	02VD 02VO 02VC 10MD 02MO 02MC 02RD 02RO	0	1	3.39670181274	None	None	None	None	1
2.7	2015_May_03_1927	s	s	2	1	SIC	30	RC	0	2	02VD 02VO 02VC 02MD 02MO 02MC 09RD 02RO	1	0	1.56133317947	384.0	-340.0	385	-338	1
2.7	2015_May_03_1927	s	s	2	1	SIC	31	ABS	1	1	02VD 02VO 02VC 02MD 10MO 02MC 02RD 02RO	0	1	4.86071515083	None	None	None	None	1
2.7	2015_May_03_1927	s	s	2	1	SIC	32	RC	1	1	02VD 02VO 02VC 02MD 09MO 02MC 02RD 02RO	1	0	2.11817979813	330.0	30.0	327	40	1
2.7	2015_May_03_1927	s	s	2	1	SIC	33	ABS	2	2	10VD 02VO 02VC 02MD 02MO 02MC 02RD 02RO	0	1	3.43383002281	None	None	None	None	1
2.7	2015_May_03_1927	s	s	2	1	SIC	34	ABS	0	2	02VD 02VO 02VC 02MD 02MO 02MC 10RD 02RO	0	1	3.07815504074	None	None	None	None	1
2.7	2015_May_03_1927	s	s	2	1	SIC	35	RC	1	1	02VD 02VO 02VC 02MD 09MO 02MC 02RD 02RO	1	0	1.23904681206	-334.0	238.0	-333	232	1
2.7	2015_May_03_1927	s	s	2	1	SIC	36	ABS	2	1	02VD 10VO 02VC 02MD 02MO 02MC 02RD 02RO	0	1	4.67230415344	None	None	None	None	1
2.7	2015_May_03_1927	s	s	2	1	SIC	37	ABS	2	0	02VD 02VO 10VC 02MD 02MO 02MC 02RD 02RO	0	1	2.48292994499	None	None	None	None	1
2.7	2015_May_03_1927	s	s	2	1	SIC	38	RC	2	0	02VD 02VO 09VC 02MD 02MO 02MC 02RD 02RO	1	0	1.14110708237	-374.0	-32.0	-381	-35	1
2.7	2015_May_03_1927	s	s	2	1	SIC	39	ABS	1	2	02VD 02VO 02VC 10MD 02MO 02MC 02RD 02RO	0	1	2.67309308052	None	None	None	None	1
2.7	2015_May_03_1927	s	s	2	1	SIC	40	RC	1	0	02VD 02VO 02VC 02MD 02MO 09MC 02RD 02RO	1	0	1.61192512512	-323.0	277.0	-329	281	1
2.7	2015_May_03_1927	s	s	2	1	SIC	41	ABS	0	1	02VD 02VO 02VC 02MD 02MO 02MC 02RD 10RO	0	1	4.78999304771	None	None	None	None	1
2.7	2015_May_03_1927	s	s	2	1	SIC	42	RC	2	2	09VD 02VO 02VC 02MD 02MO 02MC 02RD 02RO	1	0	1.1032269001	-506.0	-176.0	-503	-172	1
2.7	2015_May_03_1927	s	s	2	1	SIC	43	RC	0	1	02VD 02VO 02VC 02MD 02MO 02MC 02RD 09RO	1	0	1.35919094086	-120.0	-2.0	-119	1	1
2.7	2015_May_03_1927	s	s	2	1	SIC	44	RC	1	2	02VD 02VO 02VC 09MD 02MO 02MC 02RD 02RO	1	0	2.33632922173	122.0	-360.0	112	-354	1
2.7	2015_May_03_1927	s	s	2	1	SIC	45	ABS	1	1	02VD 02VO 02VC 02MD 10MO 02MC 02RD 02RO	0	1	5.14307999611	None	None	None	None	1
2.7	2015_May_03_1927	s	s	2	1	SIC	46	RC	2	1	02VD 09VO 02VC 02MD 02MO 02MC 02RD 02RO	1	0	0.78802895546	-155.0	181.0	-151	190	1
2.7	2015_May_03_1927	s	s	2	1	SIC	47	RC	0	2	02VD 02VO 02VC 02MD 02MO 02MC 09RD 02RO	1	0	1.41206884384	-296.0	-299.0	-289	-298	1
2.7	2015_May_03_1927	s	s	2	1	SIC	48	ABS	1	0	02VD 02VO 02VC 02MD 02MO 10MC 02RD 02RO	0	1	4.73732495308	None	None	None	None	1
2.7	2015_May_03_1927	s	s	2	1	SIC	49	RC	1	0	02VD 02VO 02VC 02MD 02MO 09MC 02RD 02RO	1	0	1.98437404633	-45.0	66.0	-37	63	1
2.7	2015_May_03_1927	s	s	2	1	SIC	50	RC	2	1	02VD 09VO 02VC 02MD 02MO 02MC 02RD 02RO	1	0	2.04205799103	-323.0	-334.0	-317	-340	1
2.7	2015_May_03_1927	s	s	2	1	SIC	51	ABS	1	0	02VD 02VO 02VC 02MD 02MO 10MC 02RD 02RO	0	1	2.77244210243	None	None	None	None	1
2.7	2015_May_03_1927	s	s	2	1	SIC	52	RC	2	2	09VD 02VO 02VC 02MD 02MO 02MC 02RD 02RO	1	0	1.1095468998	-40.0	75.0	-38	74	1
2.7	2015_May_03_1927	s	s	2	1	SIC	53	RC	0	1	02VD 02VO 02VC 02MD 02MO 02MC 02RD 09RO	1	0	3.30699706078	511.0	366.0	516	364	1
2.7	2015_May_03_1927	s	s	2	1	SIC	54	ABS	2	1	02VD 10VO 02VC 02MD 02MO 02MC 02RD 02RO	0	1	2.28277397156	None	None	None	None	1
2.7	2015_May_03_1927	s	s	2	1	SIC	55	RC	2	0	02VD 02VO 09VC 02MD 02MO 02MC 02RD 02RO	0	1	1.94181680679	107.0	-367.0	None	None	0
2.7	2015_May_03_1927	s	s	2	1	SIC	56	ABS	0	2	02VD 02VO 02VC 02MD 02MO 02MC 10RD 02RO	0	1	2.0357298851	None	None	None	None	1
2.7	2015_May_03_1927	s	s	2	1	SIC	57	ABS	2	2	10VD 02VO 02VC 02MD 02MO 02MC 02RD 02RO	0	1	1.90142416954	None	None	None	None	1
2.7	2015_May_03_1927	s	s	2	1	SIC	58	RC	1	2	02VD 02VO 02VC 09MD 02MO 02MC 02RD 02RO	1	0	0.638650894165	-138.0	3.0	-133	-1	1
2.7	2015_May_03_1927	s	s	2	1	SIC	59	RC	0	2	02VD 02VO 02VC 02MD 02MO 02MC 09RD 02RO	1	0	1.42897701263	140.0	154.0	139	157	1
2.7	2015_May_03_1927	s	s	2	1	SIC	60	ABS	1	1	02VD 02VO 02VC 02MD 10MO 02MC 02RD 02RO	0	1	3.52726578712	None	None	None	None	1
2.7	2015_May_03_1927	s	s	2	1	SIC	61	ABS	0	1	02VD 02VO 02VC 02MD 02MO 02MC 02RD 10RO	0	1	4.40827417374	None	None	None	None	1
2.7	2015_May_03_1927	s	s	2	1	SIC	62	RC	1	1	02VD 02VO 02VC 02MD 09MO 02MC 02RD 02RO	1	0	0.926740169525	-218.0	99.0	-223	98	1
2.7	2015_May_03_1927	s	s	2	1	SIC	63	ABS	2	0	02VD 02VO 10VC 02MD 02MO 02MC 02RD 02RO	0	1	3.04303002357	None	None	None	None	1
2.7	2015_May_03_1927	s	s	2	1	SIC	64	ABS	1	2	02VD 02VO 02VC 10MD 02MO 02MC 02RD 02RO	0	1	3.85728096962	None	None	None	None	1
2.7	2015_May_03_1927	s	s	2	1	SIC	65	RC	0	1	02VD 02VO 02VC 02MD 02MO 02MC 02RD 09RO	1	0	3.5778939724	400.0	-293.0	403	-292	1
2.7	2015_May_03_1927	s	s	2	1	SIC	66	ABS	0	2	02VD 02VO 02VC 02MD 02MO 02MC 10RD 02RO	0	1	3.37756800652	None	None	None	None	1
2.7	2015_May_03_1927	s	s	2	1	SIC	67	RC	2	2	09VD 02VO 02VC 02MD 02MO 02MC 02RD 02RO	1	0	1.17639112473	-313.0	-160.0	-321	-165	1
2.7	2015_May_03_1927	s	s	2	1	SIC	68	ABS	2	0	02VD 02VO 10VC 02MD 02MO 02MC 02RD 02RO	0	1	3.24312901497	None	None	None	None	1
2.7	2015_May_03_1927	s	s	2	1	SIC	69	RC	2	0	02VD 02VO 09VC 02MD 02MO 02MC 02RD 02RO	1	0	0.776244163513	-180.0	211.0	-175	214	1
2.7	2015_May_03_1927	s	s	2	1	SIC	70	ABS	2	2	10VD 02VO 02VC 02MD 02MO 02MC 02RD 02RO	0	1	3.13035106659	None	None	None	None	1
2.7	2015_May_03_1927	s	s	2	1	SIC	71	RC	1	0	02VD 02VO 02VC 02MD 02MO 09MC 02RD 02RO	1	0	3.77345204353	145.0	-303.0	146	-306	1
2.7	2015_May_03_1927	s	s	2	1	SIC	72	ABS	1	0	02VD 02VO 02VC 02MD 02MO 10MC 02RD 02RO	0	1	3.24261188507	None	None	None	None	1
2.7	2015_May_03_1927	s	s	2	1	SIC	73	ABS	1	2	02VD 02VO 02VC 10MD 02MO 02MC 02RD 02RO	0	1	2.11807513237	None	None	None	None	1
2.7	2015_May_03_1927	s	s	2	1	SIC	74	ABS	0	1	02VD 02VO 02VC 02MD 02MO 02MC 02RD 10RO	0	1	3.36248683929	None	None	None	None	1
2.7	2015_May_03_1927	s	s	2	1	SIC	75	ABS	2	1	02VD 10VO 02VC 02MD 02MO 02MC 02RD 02RO	0	1	2.30640697479	None	None	None	None	1
2.7	2015_May_03_1927	s	s	2	1	SIC	76	RC	1	1	02VD 02VO 02VC 02MD 09MO 02MC 02RD 02RO	1	0	2.3731238842	-381.0	-243.0	-389	-244	1
2.7	2015_May_03_1927	s	s	2	1	SIC	77	ABS	1	1	02VD 02VO 02VC 02MD 10MO 02MC 02RD 02RO	0	1	3.51872205734	None	None	None	None	1
2.7	2015_May_03_1927	s	s	2	1	SIC	78	RC	0	2	02VD 02VO 02VC 02MD 02MO 02MC 09RD 02RO	1	0	2.18466210365	437.0	377.0	435	374	1
2.7	2015_May_03_1927	s	s	2	1	SIC	79	RC	2	1	02VD 09VO 02VC 02MD 02MO 02MC 02RD 02RO	1	0	1.54140090942	201.0	-171.0	206	-169	1
2.7	2015_May_03_1927	s	s	2	1	SIC	80	RC	1	2	02VD 02VO 02VC 09MD 02MO 02MC 02RD 02RO	1	0	0.776298999786	-32.0	234.0	-33	239	1
2.7	2015_May_03_1927	s	s	2	1	SIC	81	ABS	1	0	02VD 02VO 02VC 02MD 02MO 10MC 02RD 02RO	0	1	2.9774479866	None	None	None	None	1
2.7	2015_May_03_1927	s	s	2	1	SIC	82	ABS	0	1	02VD 02VO 02VC 02MD 02MO 02MC 02RD 10RO	0	1	3.45482707024	None	None	None	None	1
2.7	2015_May_03_1927	s	s	2	1	SIC	83	RC	1	0	02VD 02VO 02VC 02MD 02MO 09MC 02RD 02RO	1	0	2.23094511032	402.0	225.0	399	229	1
2.7	2015_May_03_1927	s	s	2	1	SIC	84	ABS	2	2	10VD 02VO 02VC 02MD 02MO 02MC 02RD 02RO	0	1	2.58371496201	None	None	None	None	1
2.7	2015_May_03_1927	s	s	2	1	SIC	85	ABS	1	1	02VD 02VO 02VC 02MD 10MO 02MC 02RD 02RO	0	1	4.61019492149	None	None	None	None	1
2.7	2015_May_03_1927	s	s	2	1	SIC	86	RC	2	2	09VD 02VO 02VC 02MD 02MO 02MC 02RD 02RO	1	0	0.94103884697	-164.0	-112.0	-166	-106	1
2.7	2015_May_03_1927	s	s	2	1	SIC	87	ABS	1	2	02VD 02VO 02VC 10MD 02MO 02MC 02RD 02RO	0	1	3.67949199677	None	None	None	None	1
2.7	2015_May_03_1927	s	s	2	1	SIC	88	RC	0	1	02VD 02VO 02VC 02MD 02MO 02MC 02RD 09RO	1	0	1.10092902184	-495.0	115.0	-490	113	1
2.7	2015_May_03_1927	s	s	2	1	SIC	89	RC	2	1	02VD 09VO 02VC 02MD 02MO 02MC 02RD 02RO	1	0	0.611569881439	-109.0	12.0	-114	12	1
2.7	2015_May_03_1927	s	s	2	1	SIC	90	ABS	2	1	02VD 10VO 02VC 02MD 02MO 02MC 02RD 02RO	0	1	2.47971892357	None	None	None	None	1
2.7	2015_May_03_1927	s	s	2	1	SIC	91	ABS	2	0	02VD 02VO 10VC 02MD 02MO 02MC 02RD 02RO	0	1	2.05923390388	None	None	None	None	1
2.7	2015_May_03_1927	s	s	2	1	SIC	92	RC	2	0	02VD 02VO 09VC 02MD 02MO 02MC 02RD 02RO	1	0	1.78374886513	131.0	366.0	133	356	1
2.7	2015_May_03_1927	s	s	2	1	SIC	93	ABS	0	2	02VD 02VO 02VC 02MD 02MO 02MC 10RD 02RO	0	1	2.66617488861	None	None	None	None	1
2.7	2015_May_03_1927	s	s	2	1	SIC	94	RC	0	2	02VD 02VO 02VC 02MD 02MO 02MC 09RD 02RO	1	0	2.21839094162	370.0	145.0	372	143	1
2.7	2015_May_03_1927	s	s	2	1	SIC	95	RC	1	2	02VD 02VO 02VC 09MD 02MO 02MC 02RD 02RO	1	0	2.12487912178	-324.0	-286.0	-334	-280	1
2.7	2015_May_03_1927	s	s	2	1	SIC	96	RC	1	1	02VD 02VO 02VC 02MD 09MO 02MC 02RD 02RO	1	0	1.28867411613	191.0	327.0	197	320	1
2.7	2015_May_03_1927	s	s	2	1	SIC	97	RC	1	0	02VD 02VO 02VC 02MD 02MO 09MC 02RD 02RO	1	0	4.30543589592	461.0	-399.0	459	-401	1
2.7	2015_May_03_1927	s	s	2	1	SIC	98	RC	0	1	02VD 02VO 02VC 02MD 02MO 02MC 02RD 09RO	1	0	2.19538712502	408.0	316.0	412	314	1
2.7	2015_May_03_1927	s	s	2	1	SIC	99	ABS	2	2	10VD 02VO 02VC 02MD 02MO 02MC 02RD 02RO	0	1	3.14877414703	None	None	None	None	1
2.7	2015_May_03_1927	s	s	2	1	SIC	100	RC	1	1	02VD 02VO 02VC 02MD 09MO 02MC 02RD 02RO	1	0	1.77161717415	261.0	-128.0	261	-119	1
2.7	2015_May_03_1927	s	s	2	1	SIC	101	ABS	0	2	02VD 02VO 02VC 02MD 02MO 02MC 10RD 02RO	0	1	2.76059603691	None	None	None	None	1
2.7	2015_May_03_1927	s	s	2	1	SIC	102	ABS	1	1	02VD 02VO 02VC 02MD 10MO 02MC 02RD 02RO	0	1	3.60801482201	None	None	None	None	1
2.7	2015_May_03_1927	s	s	2	1	SIC	103	RC	2	0	02VD 02VO 09VC 02MD 02MO 02MC 02RD 02RO	1	0	1.72490096092	359.0	-73.0	362	-79	1
2.7	2015_May_03_1927	s	s	2	1	SIC	104	RC	2	2	09VD 02VO 02VC 02MD 02MO 02MC 02RD 02RO	1	0	2.11338806152	282.0	-169.0	286	-167	1
2.7	2015_May_03_1927	s	s	2	1	SIC	105	RC	1	2	02VD 02VO 02VC 09MD 02MO 02MC 02RD 02RO	1	0	1.31259512901	-424.0	19.0	-431	16	1
2.7	2015_May_03_1927	s	s	2	1	SIC	106	RC	2	1	02VD 09VO 02VC 02MD 02MO 02MC 02RD 02RO	1	0	1.17649412155	111.0	201.0	111	207	1
2.7	2015_May_03_1927	s	s	2	1	SIC	107	ABS	0	1	02VD 02VO 02VC 02MD 02MO 02MC 02RD 10RO	0	1	4.40202093124	None	None	None	None	1
2.7	2015_May_03_1927	s	s	2	1	SIC	108	ABS	1	0	02VD 02VO 02VC 02MD 02MO 10MC 02RD 02RO	0	1	4.32568097115	None	None	None	None	1
2.7	2015_May_03_1927	s	s	2	1	SIC	109	RC	0	2	02VD 02VO 02VC 02MD 02MO 02MC 09RD 02RO	1	0	1.8355550766	305.0	378.0	307	375	1
2.7	2015_May_03_1927	s	s	2	1	SIC	110	ABS	2	0	02VD 02VO 10VC 02MD 02MO 02MC 02RD 02RO	0	1	2.3534681797	None	None	None	None	1
2.7	2015_May_03_1927	s	s	2	1	SIC	111	ABS	1	2	02VD 02VO 02VC 10MD 02MO 02MC 02RD 02RO	0	1	2.69008588791	None	None	None	None	1
2.7	2015_May_03_1927	s	s	2	1	SIC	112	ABS	2	1	02VD 10VO 02VC 02MD 02MO 02MC 02RD 02RO	0	1	1.92472219467	None	None	None	None	1
2.7	2015_May_03_1927	s	s	2	1	SIC	113	RC	2	0	02VD 02VO 09VC 02MD 02MO 02MC 02RD 02RO	1	0	2.30388903618	161.0	-167.0	167	-174	1
2.7	2015_May_03_1927	s	s	2	1	SIC	114	ABS	0	2	02VD 02VO 02VC 02MD 02MO 02MC 10RD 02RO	0	1	2.59565711021	None	None	None	None	1
2.7	2015_May_03_1927	s	s	2	1	SIC	115	ABS	1	1	02VD 02VO 02VC 02MD 10MO 02MC 02RD 02RO	0	1	3.00977492332	None	None	None	None	1
2.7	2015_May_03_1927	s	s	2	1	SIC	116	RC	1	1	02VD 02VO 02VC 02MD 09MO 02MC 02RD 02RO	1	0	1.23018908501	44.0	200.0	40	200	1
2.7	2015_May_03_1927	s	s	2	1	SIC	117	RC	2	1	02VD 09VO 02VC 02MD 02MO 02MC 02RD 02RO	1	0	1.69105792046	-36.0	-254.0	-44	-257	1
2.7	2015_May_03_1927	s	s	2	1	SIC	118	ABS	1	0	02VD 02VO 02VC 02MD 02MO 10MC 02RD 02RO	0	1	3.00088596344	None	None	None	None	1
2.7	2015_May_03_1927	s	s	2	1	SIC	119	ABS	2	0	02VD 02VO 10VC 02MD 02MO 02MC 02RD 02RO	0	1	2.17203998566	None	None	None	None	1
2.7	2015_May_03_1927	s	s	2	1	SIC	120	ABS	2	1	02VD 10VO 02VC 02MD 02MO 02MC 02RD 02RO	0	1	1.87750411034	None	None	None	None	1
2.7	2015_May_03_1927	s	s	2	1	SIC	121	ABS	1	2	02VD 02VO 02VC 10MD 02MO 02MC 02RD 02RO	0	1	1.74152302742	None	None	None	None	1
2.7	2015_May_03_1927	s	s	2	1	SIC	122	ABS	2	2	10VD 02VO 02VC 02MD 02MO 02MC 02RD 02RO	0	1	2.02127695084	None	None	None	None	1
2.7	2015_May_03_1927	s	s	2	1	SIC	123	RC	2	2	09VD 02VO 02VC 02MD 02MO 02MC 02RD 02RO	1	0	1.33618712425	-533.0	289.0	-545	293	1
2.7	2015_May_03_1927	s	s	2	1	SIC	124	ABS	0	1	02VD 02VO 02VC 02MD 02MO 02MC 02RD 10RO	0	1	6.28486299515	None	None	None	None	1
2.7	2015_May_03_1927	s	s	2	1	SIC	125	RC	1	2	02VD 02VO 02VC 09MD 02MO 02MC 02RD 02RO	0	1	2.02050304413	-135.0	314.0	None	None	0
2.7	2015_May_03_1927	s	s	2	1	SIC	126	RC	0	1	02VD 02VO 02VC 02MD 02MO 02MC 02RD 09RO	1	0	3.55952692032	-372.0	-260.0	-367	-255	1
2.7	2015_May_03_1927	s	s	2	1	SIC	127	RC	1	0	02VD 02VO 02VC 02MD 02MO 09MC 02RD 02RO	1	0	0.968823194504	-217.0	-218.0	-222	-219	1
2.7	2015_May_03_1927	s	s	2	1	SIC	128	RC	0	2	02VD 02VO 02VC 02MD 02MO 02MC 09RD 02RO	1	0	0.776228904724	-70.0	-90.0	-54	-80	1
2.7	2015_May_03_1927	s	s	2	1	SIC	129	ABS	0	2	02VD 02VO 02VC 02MD 02MO 02MC 10RD 02RO	0	1	2.39681911469	None	None	None	None	1
2.7	2015_May_03_1927	s	s	2	1	SIC	130	ABS	0	1	02VD 02VO 02VC 02MD 02MO 02MC 02RD 10RO	0	1	3.8957028389	None	None	None	None	1
2.7	2015_May_03_1927	s	s	2	1	SIC	131	ABS	2	1	02VD 10VO 02VC 02MD 02MO 02MC 02RD 02RO	0	1	3.34881806374	None	None	None	None	1
2.7	2015_May_03_1927	s	s	2	1	SIC	132	ABS	1	1	02VD 02VO 02VC 02MD 10MO 02MC 02RD 02RO	0	1	4.0106780529	None	None	None	None	1
2.7	2015_May_03_1927	s	s	2	1	SIC	133	ABS	1	0	02VD 02VO 02VC 02MD 02MO 10MC 02RD 02RO	0	1	2.66326212883	None	None	None	None	1
2.7	2015_May_03_1927	s	s	2	1	SIC	134	RC	2	0	02VD 02VO 09VC 02MD 02MO 02MC 02RD 02RO	1	0	1.39516687393	422.0	67.0	416	68	1
2.7	2015_May_03_1927	s	s	2	1	SIC	135	RC	1	2	02VD 02VO 02VC 09MD 02MO 02MC 02RD 02RO	1	0	1.29414701462	-457.0	-177.0	-462	-182	1
2.7	2015_May_03_1927	s	s	2	1	SIC	136	ABS	2	2	10VD 02VO 02VC 02MD 02MO 02MC 02RD 02RO	0	1	1.7598938942	None	None	None	None	1
2.7	2015_May_03_1927	s	s	2	1	SIC	137	RC	1	1	02VD 02VO 02VC 02MD 09MO 02MC 02RD 02RO	1	0	1.47752118111	-501.0	174.0	-505	167	1
2.7	2015_May_03_1927	s	s	2	1	SIC	138	RC	2	1	02VD 09VO 02VC 02MD 02MO 02MC 02RD 02RO	1	0	1.15288901329	-528.0	-59.0	-527	-60	1
2.7	2015_May_03_1927	s	s	2	1	SIC	139	RC	2	2	09VD 02VO 02VC 02MD 02MO 02MC 02RD 02RO	1	0	1.54812192917	477.0	-189.0	481	-193	1
2.7	2015_May_03_1927	s	s	2	1	SIC	140	ABS	1	2	02VD 02VO 02VC 10MD 02MO 02MC 02RD 02RO	0	1	3.25980615616	None	None	None	None	1
2.7	2015_May_03_1927	s	s	2	1	SIC	141	RC	0	1	02VD 02VO 02VC 02MD 02MO 02MC 02RD 09RO	1	0	3.32239508629	51.0	-362.0	59	-360	1
2.7	2015_May_03_1927	s	s	2	1	SIC	142	RC	1	0	02VD 02VO 02VC 02MD 02MO 09MC 02RD 02RO	1	0	1.59214687347	-91.0	-347.0	-97	-355	1
2.7	2015_May_03_1927	s	s	2	1	SIC	143	ABS	2	0	02VD 02VO 10VC 02MD 02MO 02MC 02RD 02RO	0	1	2.24755907059	None	None	None	None	1
2.7	2015_May_03_1927	s	s	2	1	SIC	144	RC	0	2	02VD 02VO 02VC 02MD 02MO 02MC 09RD 02RO	1	0	1.89817714691	302.0	-176.0	297	-176	1
2.7	2015_May_03_1927	s	s	2	1	SIC	145	ABS	2	2	10VD 02VO 02VC 02MD 02MO 02MC 02RD 02RO	0	1	2.59576296806	None	None	None	None	1
2.7	2015_May_03_1927	s	s	2	1	SIC	146	RC	1	0	02VD 02VO 02VC 02MD 02MO 09MC 02RD 02RO	1	0	1.66827988625	-178.0	186.0	-178	178	1
2.7	2015_May_03_1927	s	s	2	1	SIC	147	ABS	1	1	02VD 02VO 02VC 02MD 10MO 02MC 02RD 02RO	0	1	2.93948793411	None	None	None	None	1
2.7	2015_May_03_1927	s	s	2	1	SIC	148	ABS	1	2	02VD 02VO 02VC 10MD 02MO 02MC 02RD 02RO	0	1	2.20045304298	None	None	None	None	1
2.7	2015_May_03_1927	s	s	2	1	SIC	149	RC	0	1	02VD 02VO 02VC 02MD 02MO 02MC 02RD 09RO	1	0	1.0681810379	177.0	84.0	176	83	1
2.7	2015_May_03_1927	s	s	2	1	SIC	150	ABS	0	1	02VD 02VO 02VC 02MD 02MO 02MC 02RD 10RO	0	1	3.76084017754	None	None	None	None	1
2.7	2015_May_03_1927	s	s	2	1	SIC	151	RC	2	2	09VD 02VO 02VC 02MD 02MO 02MC 02RD 02RO	1	0	1.24213004112	-531.0	-129.0	-534	-129	1
2.7	2015_May_03_1927	s	s	2	1	SIC	152	RC	1	2	02VD 02VO 02VC 09MD 02MO 02MC 02RD 02RO	1	0	1.15294694901	-319.0	162.0	-315	160	1
2.7	2015_May_03_1927	s	s	2	1	SIC	153	RC	2	1	02VD 09VO 02VC 02MD 02MO 02MC 02RD 02RO	1	0	2.2543129921	37.0	339.0	32	348	1
2.7	2015_May_03_1927	s	s	2	1	SIC	154	ABS	2	0	02VD 02VO 10VC 02MD 02MO 02MC 02RD 02RO	0	1	2.32996702194	None	None	None	None	1
2.7	2015_May_03_1927	s	s	2	1	SIC	155	RC	0	2	02VD 02VO 02VC 02MD 02MO 02MC 09RD 02RO	1	0	1.0352628231	158.0	-104.0	163	-99	1
2.7	2015_May_03_1927	s	s	2	1	SIC	156	RC	2	0	02VD 02VO 09VC 02MD 02MO 02MC 02RD 02RO	1	0	0.682098150253	-49.0	149.0	-55	144	1
2.7	2015_May_03_1927	s	s	2	1	SIC	157	ABS	2	1	02VD 10VO 02VC 02MD 02MO 02MC 02RD 02RO	0	1	1.87090587616	None	None	None	None	1
2.7	2015_May_03_1927	s	s	2	1	SIC	158	ABS	0	2	02VD 02VO 02VC 02MD 02MO 02MC 10RD 02RO	1	0	2.8008658886	None	None	-1	-60	0
2.7	2015_May_03_1927	s	s	2	1	SIC	159	RC	1	1	02VD 02VO 02VC 02MD 09MO 02MC 02RD 02RO	1	0	1.5648291111	180.0	-82.0	173	-79	1
2.7	2015_May_03_1927	s	s	2	1	SIC	160	ABS	1	0	02VD 02VO 02VC 02MD 02MO 10MC 02RD 02RO	0	1	3.4692440033	None	None	None	None	1
2.7	2015_May_03_1927	s	s	2	1	SIC	161	RC	0	2	02VD 02VO 02VC 02MD 02MO 02MC 09RD 02RO	0	1	2.93709897995	11.0	293.0	None	None	0
2.7	2015_May_03_1927	s	s	2	1	SIC	162	ABS	2	2	10VD 02VO 02VC 02MD 02MO 02MC 02RD 02RO	0	1	2.2357749939	None	None	None	None	1
2.7	2015_May_03_1927	s	s	2	1	SIC	163	ABS	2	0	02VD 02VO 10VC 02MD 02MO 02MC 02RD 02RO	0	1	2.53744506836	None	None	None	None	1
2.7	2015_May_03_1927	s	s	2	1	SIC	164	RC	1	0	02VD 02VO 02VC 02MD 02MO 09MC 02RD 02RO	1	0	1.14982295036	140.0	-39.0	144	-38	1
2.7	2015_May_03_1927	s	s	2	1	SIC	165	ABS	2	1	02VD 10VO 02VC 02MD 02MO 02MC 02RD 02RO	0	1	2.42042589188	None	None	None	None	1
2.7	2015_May_03_1927	s	s	2	1	SIC	166	RC	2	1	02VD 09VO 02VC 02MD 02MO 02MC 02RD 02RO	1	0	2.24751400948	156.0	286.0	155	281	1
2.7	2015_May_03_1927	s	s	2	1	SIC	167	ABS	1	0	02VD 02VO 02VC 02MD 02MO 10MC 02RD 02RO	0	1	4.27210712433	None	None	None	None	1
2.7	2015_May_03_1927	s	s	2	1	SIC	168	RC	1	1	02VD 02VO 02VC 02MD 09MO 02MC 02RD 02RO	1	0	1.06706500053	-459.0	6.0	-461	8	1
2.7	2015_May_03_1927	s	s	2	1	SIC	169	RC	2	2	09VD 02VO 02VC 02MD 02MO 02MC 02RD 02RO	1	0	2.56571507454	-506.0	-381.0	-515	-379	1
2.7	2015_May_03_1927	s	s	2	1	SIC	170	ABS	1	1	02VD 02VO 02VC 02MD 10MO 02MC 02RD 02RO	0	1	3.03226089478	None	None	None	None	1
2.7	2015_May_03_1927	s	s	2	1	SIC	171	ABS	0	1	02VD 02VO 02VC 02MD 02MO 02MC 02RD 10RO	0	1	3.08327579498	None	None	None	None	1
2.7	2015_May_03_1927	s	s	2	1	SIC	172	RC	0	1	02VD 02VO 02VC 02MD 02MO 02MC 02RD 09RO	1	0	3.32242107391	217.0	132.0	215	128	1
2.7	2015_May_03_1927	s	s	2	1	SIC	173	ABS	1	2	02VD 02VO 02VC 10MD 02MO 02MC 02RD 02RO	0	1	2.54869008064	None	None	None	None	1
2.7	2015_May_03_1927	s	s	2	1	SIC	174	ABS	0	2	02VD 02VO 02VC 02MD 02MO 02MC 10RD 02RO	0	1	2.85963392258	None	None	None	None	1
2.7	2015_May_03_1927	s	s	2	1	SIC	175	RC	2	0	02VD 02VO 09VC 02MD 02MO 02MC 02RD 02RO	1	0	1.25869894028	344.0	-89.0	344	-83	1
2.7	2015_May_03_1927	s	s	2	1	SIC	176	RC	1	2	02VD 02VO 02VC 09MD 02MO 02MC 02RD 02RO	1	0	1.29409503937	-470.0	320.0	-480	326	1
2.7	2015_May_03_1927	s	s	2	1	SIC	177	RC	1	1	02VD 02VO 02VC 02MD 09MO 02MC 02RD 02RO	1	0	0.905641078949	84.0	-27.0	87	-36	1
2.7	2015_May_03_1927	s	s	2	1	SIC	178	ABS	1	1	02VD 02VO 02VC 02MD 10MO 02MC 02RD 02RO	0	1	4.06024599075	None	None	None	None	1
2.7	2015_May_03_1927	s	s	2	1	SIC	179	ABS	0	1	02VD 02VO 02VC 02MD 02MO 02MC 02RD 10RO	0	1	2.68299198151	None	None	None	None	1
2.7	2015_May_03_1927	s	s	2	1	SIC	180	RC	2	0	02VD 02VO 09VC 02MD 02MO 02MC 02RD 02RO	1	0	1.47649598122	485.0	-273.0	479	-270	1
2.7	2015_May_03_1927	s	s	2	1	SIC	181	ABS	1	2	02VD 02VO 02VC 10MD 02MO 02MC 02RD 02RO	0	1	1.87777781487	None	None	None	None	1
2.7	2015_May_03_1927	s	s	2	1	SIC	182	ABS	0	2	02VD 02VO 02VC 02MD 02MO 02MC 10RD 02RO	0	1	2.90149092674	None	None	None	None	1
2.7	2015_May_03_1927	s	s	2	1	SIC	183	RC	1	0	02VD 02VO 02VC 02MD 02MO 09MC 02RD 02RO	1	0	1.11755514145	278.0	30.0	270	31	1
2.7	2015_May_03_1927	s	s	2	1	SIC	184	ABS	2	2	10VD 02VO 02VC 02MD 02MO 02MC 02RD 02RO	0	1	3.01263403893	None	None	None	None	1
2.7	2015_May_03_1927	s	s	2	1	SIC	185	ABS	2	0	02VD 02VO 10VC 02MD 02MO 02MC 02RD 02RO	0	1	1.49417901039	None	None	None	None	1
2.7	2015_May_03_1927	s	s	2	1	SIC	186	ABS	2	1	02VD 10VO 02VC 02MD 02MO 02MC 02RD 02RO	0	1	2.54816794395	None	None	None	None	1
2.7	2015_May_03_1927	s	s	2	1	SIC	187	RC	0	2	02VD 02VO 02VC 02MD 02MO 02MC 09RD 02RO	1	0	0.641722917557	-94.0	-34.0	-88	-41	1
2.7	2015_May_03_1927	s	s	2	1	SIC	188	RC	2	1	02VD 09VO 02VC 02MD 02MO 02MC 02RD 02RO	1	0	1.54123187065	171.0	-348.0	173	-355	1
2.7	2015_May_03_1927	s	s	2	1	SIC	189	RC	2	2	09VD 02VO 02VC 02MD 02MO 02MC 02RD 02RO	1	0	1.682502985	-246.0	-154.0	-251	-153	1
2.7	2015_May_03_1927	s	s	2	1	SIC	190	RC	1	2	02VD 02VO 02VC 09MD 02MO 02MC 02RD 02RO	1	0	1.30592799187	372.0	352.0	365	350	1
2.7	2015_May_03_1927	s	s	2	1	SIC	191	RC	0	1	02VD 02VO 02VC 02MD 02MO 02MC 02RD 09RO	1	0	2.67130994797	512.0	-198.0	511	-196	1
2.7	2015_May_03_1927	s	s	2	1	SIC	192	ABS	1	0	02VD 02VO 02VC 02MD 02MO 10MC 02RD 02RO	0	1	2.30187177658	None	None	None	None	1
2.7	2015_May_03_1927	s	s	2	1	SIC	193	ABS	1	1	02VD 02VO 02VC 02MD 10MO 02MC 02RD 02RO	0	1	2.18364310265	None	None	None	None	1
2.7	2015_May_03_1927	s	s	2	1	SIC	194	ABS	1	2	02VD 02VO 02VC 10MD 02MO 02MC 02RD 02RO	0	1	1.988697052	None	None	None	None	1
2.7	2015_May_03_1927	s	s	2	1	SIC	195	RC	1	0	02VD 02VO 02VC 02MD 02MO 09MC 02RD 02RO	1	0	1.08601808548	-388.0	204.0	-383	197	1
2.7	2015_May_03_1927	s	s	2	1	SIC	196	RC	2	0	02VD 02VO 09VC 02MD 02MO 02MC 02RD 02RO	1	0	1.19430184364	-114.0	132.0	-106	136	1
2.7	2015_May_03_1927	s	s	2	1	SIC	197	RC	2	1	02VD 09VO 02VC 02MD 02MO 02MC 02RD 02RO	1	0	0.976342916489	248.0	123.0	244	114	1
2.7	2015_May_03_1927	s	s	2	1	SIC	198	ABS	0	1	02VD 02VO 02VC 02MD 02MO 02MC 02RD 10RO	0	1	2.97259402275	None	None	None	None	1
2.7	2015_May_03_1927	s	s	2	1	SIC	199	ABS	1	0	02VD 02VO 02VC 02MD 02MO 10MC 02RD 02RO	0	1	2.63055682182	None	None	None	None	1
2.7	2015_May_03_1927	s	s	2	1	SIC	200	RC	1	1	02VD 02VO 02VC 02MD 09MO 02MC 02RD 02RO	1	0	1.14150309563	-359.0	-15.0	-362	-11	1
2.7	2015_May_03_1927	s	s	2	1	SIC	201	RC	2	2	09VD 02VO 02VC 02MD 02MO 02MC 02RD 02RO	1	0	1.05920600891	-381.0	196.0	-385	196	1
2.7	2015_May_03_1927	s	s	2	1	SIC	202	RC	0	1	02VD 02VO 02VC 02MD 02MO 02MC 02RD 09RO	1	0	2.35030698776	207.0	200.0	212	193	1
2.7	2015_May_03_1927	s	s	2	1	SIC	203	RC	1	2	02VD 02VO 02VC 09MD 02MO 02MC 02RD 02RO	1	0	3.55865907669	342.0	-222.0	337	-228	1
2.7	2015_May_03_1927	s	s	2	1	SIC	204	ABS	2	2	10VD 02VO 02VC 02MD 02MO 02MC 02RD 02RO	0	1	1.93641400337	None	None	None	None	1
2.7	2015_May_03_1927	s	s	2	1	SIC	205	RC	0	2	02VD 02VO 02VC 02MD 02MO 02MC 09RD 02RO	1	0	1.60017204285	313.0	32.0	316	32	1
2.7	2015_May_03_1927	s	s	2	1	SIC	206	ABS	2	1	02VD 10VO 02VC 02MD 02MO 02MC 02RD 02RO	0	1	2.43582892418	None	None	None	None	1
2.7	2015_May_03_1927	s	s	2	1	SIC	207	ABS	2	0	02VD 02VO 10VC 02MD 02MO 02MC 02RD 02RO	0	1	2.91443490982	None	None	None	None	1
2.7	2015_May_03_1927	s	s	2	1	SIC	208	ABS	0	2	02VD 02VO 02VC 02MD 02MO 02MC 10RD 02RO	0	1	2.51826786995	None	None	None	None	1
2.7	2015_May_03_1927	s	s	2	1	SIC	209	RC	2	1	02VD 09VO 02VC 02MD 02MO 02MC 02RD 02RO	1	0	1.53474116325	-154.0	-320.0	-154	-321	1
2.7	2015_May_03_1927	s	s	2	1	SIC	210	ABS	0	2	02VD 02VO 02VC 02MD 02MO 02MC 10RD 02RO	0	1	2.07572412491	None	None	None	None	1
2.7	2015_May_03_1927	s	s	2	1	SIC	211	RC	0	1	02VD 02VO 02VC 02MD 02MO 02MC 02RD 09RO	1	0	0.587908029556	-41.0	125.0	-43	120	1
2.7	2015_May_03_1927	s	s	2	1	SIC	212	ABS	2	0	02VD 02VO 10VC 02MD 02MO 02MC 02RD 02RO	0	1	2.02389502525	None	None	None	None	1
2.7	2015_May_03_1927	s	s	2	1	SIC	213	RC	1	0	02VD 02VO 02VC 02MD 02MO 09MC 02RD 02RO	1	0	2.50147604942	-462.0	-250.0	-459	-248	1
2.7	2015_May_03_1927	s	s	2	1	SIC	214	ABS	2	2	10VD 02VO 02VC 02MD 02MO 02MC 02RD 02RO	0	1	1.71310687065	None	None	None	None	1
2.7	2015_May_03_1927	s	s	2	1	SIC	215	ABS	0	1	02VD 02VO 02VC 02MD 02MO 02MC 02RD 10RO	1	0	4.00137901306	None	None	38	-188	0
2.7	2015_May_03_1927	s	s	2	1	SIC	216	ABS	1	1	02VD 02VO 02VC 02MD 10MO 02MC 02RD 02RO	0	1	2.60069799423	None	None	None	None	1
2.7	2015_May_03_1927	s	s	2	1	SIC	217	RC	2	2	09VD 02VO 02VC 02MD 02MO 02MC 02RD 02RO	1	0	1.41857099533	-495.0	-264.0	-496	-260	1
2.7	2015_May_03_1927	s	s	2	1	SIC	218	ABS	2	1	02VD 10VO 02VC 02MD 02MO 02MC 02RD 02RO	0	1	2.40750789642	None	None	None	None	1
2.7	2015_May_03_1927	s	s	2	1	SIC	219	ABS	1	2	02VD 02VO 02VC 10MD 02MO 02MC 02RD 02RO	0	1	1.9624350071	None	None	None	None	1
2.7	2015_May_03_1927	s	s	2	1	SIC	220	RC	2	0	02VD 02VO 09VC 02MD 02MO 02MC 02RD 02RO	1	0	1.23050189018	389.0	-260.0	390	-257	1
2.7	2015_May_03_1927	s	s	2	1	SIC	221	RC	1	2	02VD 02VO 02VC 09MD 02MO 02MC 02RD 02RO	1	0	1.61242485046	-405.0	97.0	-397	96	1
2.7	2015_May_03_1927	s	s	2	1	SIC	222	RC	1	1	02VD 02VO 02VC 02MD 09MO 02MC 02RD 02RO	1	0	2.93873810768	-371.0	392.0	-375	391	1
2.7	2015_May_03_1927	s	s	2	1	SIC	223	RC	0	2	02VD 02VO 02VC 02MD 02MO 02MC 09RD 02RO	1	0	1.94146585464	478.0	185.0	486	182	1
2.7	2015_May_03_1927	s	s	2	1	SIC	224	ABS	1	0	02VD 02VO 02VC 02MD 02MO 10MC 02RD 02RO	0	1	2.98585295677	None	None	None	None	1
2.7	2015_May_03_1927	s	s	2	1	SIC	225	RC	2	0	02VD 02VO 09VC 02MD 02MO 02MC 02RD 02RO	0	1	1.87759399414	-355.0	-251.0	None	None	0
2.7	2015_May_03_1927	s	s	2	1	SIC	226	ABS	1	0	02VD 02VO 02VC 02MD 02MO 10MC 02RD 02RO	0	1	3.05641198158	None	None	None	None	1
2.7	2015_May_03_1927	s	s	2	1	SIC	227	RC	2	2	09VD 02VO 02VC 02MD 02MO 02MC 02RD 02RO	1	0	0.893898963928	-418.0	336.0	-424	334	1
2.7	2015_May_03_1927	s	s	2	1	SIC	228	ABS	2	2	10VD 02VO 02VC 02MD 02MO 02MC 02RD 02RO	0	1	2.79595518112	None	None	None	None	1
2.7	2015_May_03_1927	s	s	2	1	SIC	229	RC	1	1	02VD 02VO 02VC 02MD 09MO 02MC 02RD 02RO	1	0	1.56527304649	185.0	-172.0	196	-163	1
2.7	2015_May_03_1927	s	s	2	1	SIC	230	ABS	2	0	02VD 02VO 10VC 02MD 02MO 02MC 02RD 02RO	0	1	2.41906189919	None	None	None	None	1
2.7	2015_May_03_1927	s	s	2	1	SIC	231	ABS	0	1	02VD 02VO 02VC 02MD 02MO 02MC 02RD 10RO	1	0	3.25438785553	None	None	116	-109	0
2.7	2015_May_03_1927	s	s	2	1	SIC	232	ABS	0	2	02VD 02VO 02VC 02MD 02MO 02MC 10RD 02RO	0	1	2.659927845	None	None	None	None	1
2.7	2015_May_03_1927	s	s	2	1	SIC	233	ABS	2	1	02VD 10VO 02VC 02MD 02MO 02MC 02RD 02RO	0	1	2.60750508308	None	None	None	None	1
2.7	2015_May_03_1927	s	s	2	1	SIC	234	RC	2	1	02VD 09VO 02VC 02MD 02MO 02MC 02RD 02RO	1	0	1.79553413391	158.0	392.0	157	398	1
2.7	2015_May_03_1927	s	s	2	1	SIC	235	ABS	1	1	02VD 02VO 02VC 02MD 10MO 02MC 02RD 02RO	0	1	3.64355015755	None	None	None	None	1
2.7	2015_May_03_1927	s	s	2	1	SIC	236	RC	0	2	02VD 02VO 02VC 02MD 02MO 02MC 09RD 02RO	1	0	0.917503833771	-51.0	-120.0	-56	-124	1
2.7	2015_May_03_1927	s	s	2	1	SIC	237	RC	1	0	02VD 02VO 02VC 02MD 02MO 09MC 02RD 02RO	1	0	1.35294413567	41.0	-228.0	27	-221	1
2.7	2015_May_03_1927	s	s	2	1	SIC	238	RC	1	2	02VD 02VO 02VC 09MD 02MO 02MC 02RD 02RO	1	0	1.63020300865	496.0	287.0	493	274	1
2.7	2015_May_03_1927	s	s	2	1	SIC	239	RC	0	1	02VD 02VO 02VC 02MD 02MO 02MC 02RD 09RO	1	0	2.15335202217	508.0	239.0	510	239	1
2.7	2015_May_03_1927	s	s	2	1	SIC	240	ABS	1	2	02VD 02VO 02VC 10MD 02MO 02MC 02RD 02RO	0	1	3.17190003395	None	None	None	None	1
2.7	2015_May_03_1927	s	s	2	1	SIC	241	RC	1	2	02VD 02VO 02VC 09MD 02MO 02MC 02RD 02RO	1	0	2.31337594986	163.0	211.0	168	209	1
2.7	2015_May_03_1927	s	s	2	1	SIC	242	RC	1	0	02VD 02VO 02VC 02MD 02MO 09MC 02RD 02RO	1	0	1.01537394524	80.0	260.0	89	259	1
2.7	2015_May_03_1927	s	s	2	1	SIC	243	ABS	2	2	10VD 02VO 02VC 02MD 02MO 02MC 02RD 02RO	0	1	1.71789598465	None	None	None	None	1
2.7	2015_May_03_1927	s	s	2	1	SIC	244	RC	2	1	02VD 09VO 02VC 02MD 02MO 02MC 02RD 02RO	1	0	2.2122631073	-299.0	257.0	-293	248	1
2.7	2015_May_03_1927	s	s	2	1	SIC	245	RC	0	1	02VD 02VO 02VC 02MD 02MO 02MC 02RD 09RO	1	0	1.72981905937	-511.0	61.0	-509	61	1
2.7	2015_May_03_1927	s	s	2	1	SIC	246	ABS	2	1	02VD 10VO 02VC 02MD 02MO 02MC 02RD 02RO	0	1	2.83628201485	None	None	None	None	1
2.7	2015_May_03_1927	s	s	2	1	SIC	247	ABS	1	0	02VD 02VO 02VC 02MD 02MO 10MC 02RD 02RO	0	1	1.75037908554	None	None	None	None	1
2.7	2015_May_03_1927	s	s	2	1	SIC	248	ABS	1	1	02VD 02VO 02VC 02MD 10MO 02MC 02RD 02RO	0	1	1.52949595451	None	None	None	None	1
2.7	2015_May_03_1927	s	s	2	1	SIC	249	ABS	2	0	02VD 02VO 10VC 02MD 02MO 02MC 02RD 02RO	0	1	2.05904698372	None	None	None	None	1
2.7	2015_May_03_1927	s	s	2	1	SIC	250	RC	1	1	02VD 02VO 02VC 02MD 09MO 02MC 02RD 02RO	1	0	0.611332893372	-74.0	13.0	-69	20	1
2.7	2015_May_03_1927	s	s	2	1	SIC	251	ABS	0	2	02VD 02VO 02VC 02MD 02MO 02MC 10RD 02RO	0	1	2.11310505867	None	None	None	None	1
2.7	2015_May_03_1927	s	s	2	1	SIC	252	RC	2	2	09VD 02VO 02VC 02MD 02MO 02MC 02RD 02RO	1	0	1.27684807777	-148.0	-302.0	-152	-303	1
2.7	2015_May_03_1927	s	s	2	1	SIC	253	ABS	1	2	02VD 02VO 02VC 10MD 02MO 02MC 02RD 02RO	0	1	2.17697787285	None	None	None	None	1
2.7	2015_May_03_1927	s	s	2	1	SIC	254	ABS	0	1	02VD 02VO 02VC 02MD 02MO 02MC 02RD 10RO	0	1	3.22820305824	None	None	None	None	1
2.7	2015_May_03_1927	s	s	2	1	SIC	255	RC	2	0	02VD 02VO 09VC 02MD 02MO 02MC 02RD 02RO	0	1	1.79474210739	36.0	171.0	None	None	0
2.7	2015_May_03_1927	s	s	2	1	SIC	256	RC	0	2	02VD 02VO 02VC 02MD 02MO 02MC 09RD 02RO	1	0	1.04188919067	4.0	-165.0	11	-166	1
2.7	2015_May_03_1927	s	s	2	1	SIC	257	ABS	2	2	10VD 02VO 02VC 02MD 02MO 02MC 02RD 02RO	0	1	1.81572890282	None	None	None	None	1
2.7	2015_May_03_1927	s	s	2	1	SIC	258	ABS	1	0	02VD 02VO 02VC 02MD 02MO 10MC 02RD 02RO	0	1	2.37228894234	None	None	None	None	1
2.7	2015_May_03_1927	s	s	2	1	SIC	259	ABS	0	2	02VD 02VO 02VC 02MD 02MO 02MC 10RD 02RO	0	1	3.56589198112	None	None	None	None	1
2.7	2015_May_03_1927	s	s	2	1	SIC	260	ABS	1	1	02VD 02VO 02VC 02MD 10MO 02MC 02RD 02RO	0	1	3.10167789459	None	None	None	None	1
2.7	2015_May_03_1927	s	s	2	1	SIC	261	ABS	0	1	02VD 02VO 02VC 02MD 02MO 02MC 02RD 10RO	0	1	4.85244703293	None	None	None	None	1
2.7	2015_May_03_1927	s	s	2	1	SIC	262	RC	1	2	02VD 02VO 02VC 09MD 02MO 02MC 02RD 02RO	1	0	1.50599694252	412.0	-262.0	415	-256	1
2.7	2015_May_03_1927	s	s	2	1	SIC	263	RC	2	0	02VD 02VO 09VC 02MD 02MO 02MC 02RD 02RO	1	0	1.18825101852	301.0	-214.0	301	-216	1
2.7	2015_May_03_1927	s	s	2	1	SIC	264	RC	1	0	02VD 02VO 02VC 02MD 02MO 09MC 02RD 02RO	1	0	1.64218688011	-72.0	-139.0	-62	-138	1
2.7	2015_May_03_1927	s	s	2	1	SIC	265	ABS	1	2	02VD 02VO 02VC 10MD 02MO 02MC 02RD 02RO	0	1	1.43523287773	None	None	None	None	1
2.7	2015_May_03_1927	s	s	2	1	SIC	266	ABS	2	1	02VD 10VO 02VC 02MD 02MO 02MC 02RD 02RO	0	1	1.55308890343	None	None	None	None	1
2.7	2015_May_03_1927	s	s	2	1	SIC	267	RC	0	2	02VD 02VO 02VC 02MD 02MO 02MC 09RD 02RO	1	0	0.905747890472	-103.0	329.0	-102	327	1
2.7	2015_May_03_1927	s	s	2	1	SIC	268	RC	2	1	02VD 09VO 02VC 02MD 02MO 02MC 02RD 02RO	1	0	2.07761192322	406.0	-145.0	407	-159	1
2.7	2015_May_03_1927	s	s	2	1	SIC	269	RC	0	1	02VD 02VO 02VC 02MD 02MO 02MC 02RD 09RO	1	0	1.26711702347	303.0	14.0	313	16	1
2.7	2015_May_03_1927	s	s	2	1	SIC	270	ABS	2	0	02VD 02VO 10VC 02MD 02MO 02MC 02RD 02RO	0	1	1.82382702827	None	None	None	None	1
2.7	2015_May_03_1927	s	s	2	1	SIC	271	RC	1	1	02VD 02VO 02VC 02MD 09MO 02MC 02RD 02RO	0	1	2.61931705475	489.0	-41.0	None	None	0
2.7	2015_May_03_1927	s	s	2	1	SIC	272	RC	2	2	09VD 02VO 02VC 02MD 02MO 02MC 02RD 02RO	1	0	1.47070980072	181.0	-354.0	189	-357	1
2.7	2015_May_03_1927	s	s	2	1	SIC	273	ABS	1	1	02VD 02VO 02VC 02MD 10MO 02MC 02RD 02RO	0	1	2.99527716637	None	None	None	None	1
2.7	2015_May_03_1927	s	s	2	1	SIC	274	ABS	2	2	10VD 02VO 02VC 02MD 02MO 02MC 02RD 02RO	0	1	1.62978792191	None	None	None	None	1
2.7	2015_May_03_1927	s	s	2	1	SIC	275	ABS	2	0	02VD 02VO 10VC 02MD 02MO 02MC 02RD 02RO	0	1	2.10338807106	None	None	None	None	1
2.7	2015_May_03_1927	s	s	2	1	SIC	276	RC	0	1	02VD 02VO 02VC 02MD 02MO 02MC 02RD 09RO	1	0	1.07717609406	116.0	-242.0	120	-237	1
2.7	2015_May_03_1927	s	s	2	1	SIC	277	ABS	1	0	02VD 02VO 02VC 02MD 02MO 10MC 02RD 02RO	0	1	1.7247941494	None	None	None	None	1
2.7	2015_May_03_1927	s	s	2	1	SIC	278	ABS	0	2	02VD 02VO 02VC 02MD 02MO 02MC 10RD 02RO	0	1	2.34840512276	None	None	None	None	1
2.7	2015_May_03_1927	s	s	2	1	SIC	279	RC	1	0	02VD 02VO 02VC 02MD 02MO 09MC 02RD 02RO	1	0	1.87081193924	154.0	-377.0	158	-380	1
2.7	2015_May_03_1927	s	s	2	1	SIC	280	ABS	0	1	02VD 02VO 02VC 02MD 02MO 02MC 02RD 10RO	0	1	4.49970984459	None	None	None	None	1
2.7	2015_May_03_1927	s	s	2	1	SIC	281	RC	2	2	09VD 02VO 02VC 02MD 02MO 02MC 02RD 02RO	1	0	1.35338187218	-123.0	-3.0	-123	-8	1
2.7	2015_May_03_1927	s	s	2	1	SIC	282	RC	2	0	02VD 02VO 09VC 02MD 02MO 02MC 02RD 02RO	1	0	1.52486801147	-511.0	-239.0	-507	-240	1
2.7	2015_May_03_1927	s	s	2	1	SIC	283	RC	1	2	02VD 02VO 02VC 09MD 02MO 02MC 02RD 02RO	1	0	1.68941497803	-7.0	170.0	-6	173	1
2.7	2015_May_03_1927	s	s	2	1	SIC	284	ABS	2	1	02VD 10VO 02VC 02MD 02MO 02MC 02RD 02RO	0	1	1.45895290375	None	None	None	None	1
2.7	2015_May_03_1927	s	s	2	1	SIC	285	RC	2	1	02VD 09VO 02VC 02MD 02MO 02MC 02RD 02RO	1	0	1.13634800911	229.0	-159.0	237	-158	1
2.7	2015_May_03_1927	s	s	2	1	SIC	286	ABS	1	2	02VD 02VO 02VC 10MD 02MO 02MC 02RD 02RO	0	1	2.18284988403	None	None	None	None	1
2.7	2015_May_03_1927	s	s	2	1	SIC	287	RC	1	1	02VD 02VO 02VC 02MD 09MO 02MC 02RD 02RO	1	0	1.66597604752	339.0	-363.0	343	-369	1
2.7	2015_May_03_1927	s	s	2	1	SIC	288	RC	0	2	02VD 02VO 02VC 02MD 02MO 02MC 09RD 02RO	1	0	1.84743881226	236.0	203.0	231	202	1
2.7	2015_May_03_1927	s	s	2	1	SIC	289	RC	2	1	02VD 09VO 02VC 02MD 02MO 02MC 02RD 02RO	1	0	1.42361783981	241.0	256.0	242	250	1
2.7	2015_May_03_1927	s	s	2	1	SIC	290	RC	1	1	02VD 02VO 02VC 02MD 09MO 02MC 02RD 02RO	1	0	1.5293700695	305.0	277.0	311	284	1
2.7	2015_May_03_1927	s	s	2	1	SIC	291	ABS	2	0	02VD 02VO 10VC 02MD 02MO 02MC 02RD 02RO	0	1	2.27796602249	None	None	None	None	1
2.7	2015_May_03_1927	s	s	2	1	SIC	292	ABS	0	1	02VD 02VO 02VC 02MD 02MO 02MC 02RD 10RO	0	1	1.94836497307	None	None	None	None	1
2.7	2015_May_03_1927	s	s	2	1	SIC	293	RC	2	0	02VD 02VO 09VC 02MD 02MO 02MC 02RD 02RO	1	0	1.31305480003	-271.0	-290.0	-264	-290	1
2.7	2015_May_03_1927	s	s	2	1	SIC	294	ABS	0	2	02VD 02VO 02VC 02MD 02MO 02MC 10RD 02RO	0	1	2.38878393173	None	None	None	None	1
2.7	2015_May_03_1927	s	s	2	1	SIC	295	RC	1	0	02VD 02VO 02VC 02MD 02MO 09MC 02RD 02RO	1	0	1.3363070488	219.0	398.0	216	395	1
2.7	2015_May_03_1927	s	s	2	1	SIC	296	ABS	1	2	02VD 02VO 02VC 10MD 02MO 02MC 02RD 02RO	0	1	1.84733295441	None	None	None	None	1
2.7	2015_May_03_1927	s	s	2	1	SIC	297	RC	0	1	02VD 02VO 02VC 02MD 02MO 02MC 02RD 09RO	1	0	3.70711803436	-419.0	-339.0	-422	-346	1
2.7	2015_May_03_1927	s	s	2	1	SIC	298	RC	0	2	02VD 02VO 02VC 02MD 02MO 02MC 09RD 02RO	1	0	0.641750097275	34.0	-11.0	41	-17	1
2.7	2015_May_03_1927	s	s	2	1	SIC	299	RC	2	2	09VD 02VO 02VC 02MD 02MO 02MC 02RD 02RO	0	1	1.75317811966	-431.0	99.0	None	None	0
2.7	2015_May_03_1927	s	s	2	1	SIC	300	ABS	2	2	10VD 02VO 02VC 02MD 02MO 02MC 02RD 02RO	0	1	1.976760149	None	None	None	None	1
2.7	2015_May_03_1927	s	s	2	1	SIC	301	RC	1	2	02VD 02VO 02VC 09MD 02MO 02MC 02RD 02RO	1	0	1.6181499958	377.0	-81.0	378	-82	1
2.7	2015_May_03_1927	s	s	2	1	SIC	302	ABS	1	1	02VD 02VO 02VC 02MD 10MO 02MC 02RD 02RO	0	1	2.08953595161	None	None	None	None	1
2.7	2015_May_03_1927	s	s	2	1	SIC	303	ABS	2	1	02VD 10VO 02VC 02MD 02MO 02MC 02RD 02RO	0	1	1.83552289009	None	None	None	None	1
2.7	2015_May_03_1927	s	s	2	1	SIC	304	ABS	1	0	02VD 02VO 02VC 02MD 02MO 10MC 02RD 02RO	0	1	3.54929685593	None	None	None	None	1
2.7	2015_May_03_1927	s	s	2	1	SIC	305	RC	0	2	02VD 02VO 02VC 02MD 02MO 02MC 09RD 02RO	1	0	1.02343010902	-375.0	176.0	-379	176	1
2.7	2015_May_03_1927	s	s	2	1	SIC	306	ABS	0	2	02VD 02VO 02VC 02MD 02MO 02MC 10RD 02RO	0	1	2.17194199562	None	None	None	None	1
2.7	2015_May_03_1927	s	s	2	1	SIC	307	RC	0	1	02VD 02VO 02VC 02MD 02MO 02MC 02RD 09RO	1	0	1.96506595612	-510.0	-141.0	-505	-142	1
2.7	2015_May_03_1927	s	s	2	1	SIC	308	ABS	2	0	02VD 02VO 10VC 02MD 02MO 02MC 02RD 02RO	0	1	1.83562302589	None	None	None	None	1
2.7	2015_May_03_1927	s	s	2	1	SIC	309	RC	2	2	09VD 02VO 02VC 02MD 02MO 02MC 02RD 02RO	1	0	1.79768800735	486.0	215.0	489	212	1
2.7	2015_May_03_1927	s	s	2	1	SIC	310	RC	1	2	02VD 02VO 02VC 09MD 02MO 02MC 02RD 02RO	1	0	0.764428853989	-180.0	187.0	-177	183	1
2.7	2015_May_03_1927	s	s	2	1	SIC	311	RC	1	0	02VD 02VO 02VC 02MD 02MO 09MC 02RD 02RO	1	0	0.846816062927	35.0	227.0	34	223	1
2.7	2015_May_03_1927	s	s	2	1	SIC	312	ABS	1	0	02VD 02VO 02VC 02MD 02MO 10MC 02RD 02RO	0	1	2.26628494263	None	None	None	None	1
2.7	2015_May_03_1927	s	s	2	1	SIC	313	RC	1	1	02VD 02VO 02VC 02MD 09MO 02MC 02RD 02RO	1	0	1.34129095078	-174.0	-335.0	-166	-334	1
2.7	2015_May_03_1927	s	s	2	1	SIC	314	ABS	1	2	02VD 02VO 02VC 10MD 02MO 02MC 02RD 02RO	0	1	2.28939795494	None	None	None	None	1
2.7	2015_May_03_1927	s	s	2	1	SIC	315	RC	2	1	02VD 09VO 02VC 02MD 02MO 02MC 02RD 02RO	1	0	1.17170786858	287.0	132.0	283	130	1
2.7	2015_May_03_1927	s	s	2	1	SIC	316	RC	2	0	02VD 02VO 09VC 02MD 02MO 02MC 02RD 02RO	1	0	1.12926793098	-223.0	355.0	-225	348	1
2.7	2015_May_03_1927	s	s	2	1	SIC	317	ABS	2	1	02VD 10VO 02VC 02MD 02MO 02MC 02RD 02RO	0	1	2.28290700912	None	None	None	None	1
2.7	2015_May_03_1927	s	s	2	1	SIC	318	ABS	0	1	02VD 02VO 02VC 02MD 02MO 02MC 02RD 10RO	0	1	4.20836210251	None	None	None	None	1
2.7	2015_May_03_1927	s	s	2	1	SIC	319	ABS	2	2	10VD 02VO 02VC 02MD 02MO 02MC 02RD 02RO	0	1	1.84175992012	None	None	None	None	1
2.7	2015_May_03_1927	s	s	2	1	SIC	320	ABS	1	1	02VD 02VO 02VC 02MD 10MO 02MC 02RD 02RO	0	1	2.70658397675	None	None	None	None	1
2.7	2015_May_03_1927	s	s	2	1	SIC	321	ABS	0	2	02VD 02VO 02VC 02MD 02MO 02MC 10RD 02RO	0	1	1.45090198517	None	None	None	None	1
2.7	2015_May_03_1927	s	s	2	1	SIC	322	RC	2	1	02VD 09VO 02VC 02MD 02MO 02MC 02RD 02RO	1	0	1.81199002266	443.0	226.0	443	231	1
2.7	2015_May_03_1927	s	s	2	1	SIC	323	RC	2	2	09VD 02VO 02VC 02MD 02MO 02MC 02RD 02RO	1	0	1.25884199142	367.0	-309.0	369	-312	1
2.7	2015_May_03_1927	s	s	2	1	SIC	324	ABS	2	2	10VD 02VO 02VC 02MD 02MO 02MC 02RD 02RO	0	1	2.0710568428	None	None	None	None	1
2.7	2015_May_03_1927	s	s	2	1	SIC	325	ABS	2	0	02VD 02VO 10VC 02MD 02MO 02MC 02RD 02RO	0	1	1.61193299294	None	None	None	None	1
2.7	2015_May_03_1927	s	s	2	1	SIC	326	RC	0	2	02VD 02VO 02VC 02MD 02MO 02MC 09RD 02RO	1	0	0.964570045471	102.0	-277.0	92	-271	1
2.7	2015_May_03_1927	s	s	2	1	SIC	327	RC	1	1	02VD 02VO 02VC 02MD 09MO 02MC 02RD 02RO	1	0	1.55305194855	391.0	406.0	391	400	1
2.7	2015_May_03_1927	s	s	2	1	SIC	328	RC	0	1	02VD 02VO 02VC 02MD 02MO 02MC 02RD 09RO	1	0	0.764308929443	86.0	175.0	91	168	1
2.7	2015_May_03_1927	s	s	2	1	SIC	329	RC	1	2	02VD 02VO 02VC 09MD 02MO 02MC 02RD 02RO	1	0	1.19980788231	197.0	102.0	202	111	1
2.7	2015_May_03_1927	s	s	2	1	SIC	330	RC	2	0	02VD 02VO 09VC 02MD 02MO 02MC 02RD 02RO	1	0	0.973954200745	123.0	-288.0	128	-286	1
2.7	2015_May_03_1927	s	s	2	1	SIC	331	ABS	1	2	02VD 02VO 02VC 10MD 02MO 02MC 02RD 02RO	0	1	3.3492898941	None	None	None	None	1
2.7	2015_May_03_1927	s	s	2	1	SIC	332	RC	1	0	02VD 02VO 02VC 02MD 02MO 09MC 02RD 02RO	1	0	0.855224847794	-360.0	47.0	-359	43	1
2.7	2015_May_03_1927	s	s	2	1	SIC	333	ABS	1	1	02VD 02VO 02VC 02MD 10MO 02MC 02RD 02RO	0	1	2.90360212326	None	None	None	None	1
2.7	2015_May_03_1927	s	s	2	1	SIC	334	ABS	0	1	02VD 02VO 02VC 02MD 02MO 02MC 02RD 10RO	0	1	3.72606420517	None	None	None	None	1
2.7	2015_May_03_1927	s	s	2	1	SIC	335	ABS	2	1	02VD 10VO 02VC 02MD 02MO 02MC 02RD 02RO	0	1	2.16520690918	None	None	None	None	1
2.7	2015_May_03_1927	s	s	2	1	SIC	336	ABS	1	0	02VD 02VO 02VC 02MD 02MO 10MC 02RD 02RO	0	1	2.64768695831	None	None	None	None	1
2.7	2015_May_03_1927	s	s	2	1	SIC	337	RC	1	1	02VD 02VO 02VC 02MD 09MO 02MC 02RD 02RO	1	0	0.690882921219	-110.0	-25.0	-111	-21	1
2.7	2015_May_03_1927	s	s	2	1	SIC	338	RC	0	2	02VD 02VO 02VC 02MD 02MO 02MC 09RD 02RO	1	0	1.19264292717	316.0	330.0	323	325	1
2.7	2015_May_03_1927	s	s	2	1	SIC	339	RC	2	2	09VD 02VO 02VC 02MD 02MO 02MC 02RD 02RO	1	0	1.43041300774	-241.0	281.0	-240	271	1
2.7	2015_May_03_1927	s	s	2	1	SIC	340	RC	1	0	02VD 02VO 02VC 02MD 02MO 09MC 02RD 02RO	1	0	2.6948261261	-17.0	330.0	-14	333	1
2.7	2015_May_03_1927	s	s	2	1	SIC	341	ABS	1	2	02VD 02VO 02VC 10MD 02MO 02MC 02RD 02RO	0	1	1.97679710388	None	None	None	None	1
2.7	2015_May_03_1927	s	s	2	1	SIC	342	ABS	2	0	02VD 02VO 10VC 02MD 02MO 02MC 02RD 02RO	0	1	2.22073101997	None	None	None	None	1
2.7	2015_May_03_1927	s	s	2	1	SIC	343	RC	1	2	02VD 02VO 02VC 09MD 02MO 02MC 02RD 02RO	1	0	1.84465003014	118.0	-371.0	125	-378	1
2.7	2015_May_03_1927	s	s	2	1	SIC	344	RC	2	0	02VD 02VO 09VC 02MD 02MO 02MC 02RD 02RO	1	0	1.61195898056	518.0	90.0	511	86	1
2.7	2015_May_03_1927	s	s	2	1	SIC	345	ABS	1	0	02VD 02VO 02VC 02MD 02MO 10MC 02RD 02RO	0	1	2.86002111435	None	None	None	None	1
2.7	2015_May_03_1927	s	s	2	1	SIC	346	ABS	2	2	10VD 02VO 02VC 02MD 02MO 02MC 02RD 02RO	0	1	1.55954408646	None	None	None	None	1
2.7	2015_May_03_1927	s	s	2	1	SIC	347	RC	0	1	02VD 02VO 02VC 02MD 02MO 02MC 02RD 09RO	1	0	1.96197104454	-63.0	-303.0	-67	-298	1
2.7	2015_May_03_1927	s	s	2	1	SIC	348	RC	2	1	02VD 09VO 02VC 02MD 02MO 02MC 02RD 02RO	1	0	1.0773768425	328.0	241.0	327	242	1
2.7	2015_May_03_1927	s	s	2	1	SIC	349	ABS	2	1	02VD 10VO 02VC 02MD 02MO 02MC 02RD 02RO	0	1	2.11807489395	None	None	None	None	1
2.7	2015_May_03_1927	s	s	2	1	SIC	350	ABS	1	1	02VD 02VO 02VC 02MD 10MO 02MC 02RD 02RO	1	0	1.56508088112	None	None	-32	-23	0
2.7	2015_May_03_1927	s	s	2	1	SIC	351	ABS	0	1	02VD 02VO 02VC 02MD 02MO 02MC 02RD 10RO	0	1	3.00925707817	None	None	None	None	1
2.7	2015_May_03_1927	s	s	2	1	SIC	352	ABS	0	2	02VD 02VO 02VC 02MD 02MO 02MC 10RD 02RO	0	1	1.74146986008	None	None	None	None	1
2.7	2015_May_03_1927	s	s	2	1	SIC	353	ABS	1	0	02VD 02VO 02VC 02MD 02MO 10MC 02RD 02RO	0	1	4.17544007301	None	None	None	None	1
2.7	2015_May_03_1927	s	s	2	1	SIC	354	ABS	1	2	02VD 02VO 02VC 10MD 02MO 02MC 02RD 02RO	0	1	1.9415140152	None	None	None	None	1
2.7	2015_May_03_1927	s	s	2	1	SIC	355	ABS	1	1	02VD 02VO 02VC 02MD 10MO 02MC 02RD 02RO	0	1	3.27849006653	None	None	None	None	1
2.7	2015_May_03_1927	s	s	2	1	SIC	356	RC	2	0	02VD 02VO 09VC 02MD 02MO 02MC 02RD 02RO	1	0	0.682471036911	52.0	9.0	52	9	1
2.7	2015_May_03_1927	s	s	2	1	SIC	357	ABS	2	0	02VD 02VO 10VC 02MD 02MO 02MC 02RD 02RO	0	1	3.27159190178	None	None	None	None	1
2.7	2015_May_03_1927	s	s	2	1	SIC	358	RC	2	2	09VD 02VO 02VC 02MD 02MO 02MC 02RD 02RO	1	0	1.6590487957	37.0	308.0	33	312	1
2.7	2015_May_03_1927	s	s	2	1	SIC	359	ABS	0	2	02VD 02VO 02VC 02MD 02MO 02MC 10RD 02RO	0	1	3.08054995537	None	None	None	None	1
2.7	2015_May_03_1927	s	s	2	1	SIC	360	RC	1	0	02VD 02VO 02VC 02MD 02MO 09MC 02RD 02RO	1	0	2.02384209633	141.0	-299.0	143	-295	1
2.7	2015_May_03_1927	s	s	2	1	SIC	361	ABS	2	2	10VD 02VO 02VC 02MD 02MO 02MC 02RD 02RO	0	1	2.84289216995	None	None	None	None	1
2.7	2015_May_03_1927	s	s	2	1	SIC	362	RC	0	2	02VD 02VO 02VC 02MD 02MO 02MC 09RD 02RO	1	0	1.18824577332	-354.0	107.0	-345	107	1
2.7	2015_May_03_1927	s	s	2	1	SIC	363	RC	2	1	02VD 09VO 02VC 02MD 02MO 02MC 02RD 02RO	1	0	2.20750403404	-448.0	349.0	-451	340	1
2.7	2015_May_03_1927	s	s	2	1	SIC	364	ABS	0	1	02VD 02VO 02VC 02MD 02MO 02MC 02RD 10RO	0	1	4.01315999031	None	None	None	None	1
2.7	2015_May_03_1927	s	s	2	1	SIC	365	RC	0	1	02VD 02VO 02VC 02MD 02MO 02MC 02RD 09RO	1	0	2.44756698608	404.0	-171.0	398	-168	1
2.7	2015_May_03_1927	s	s	2	1	SIC	366	ABS	2	1	02VD 10VO 02VC 02MD 02MO 02MC 02RD 02RO	0	1	2.07828307152	None	None	None	None	1
2.7	2015_May_03_1927	s	s	2	1	SIC	367	RC	1	1	02VD 02VO 02VC 02MD 09MO 02MC 02RD 02RO	1	0	0.89398598671	105.0	225.0	98	222	1
2.7	2015_May_03_1927	s	s	2	1	SIC	368	RC	1	2	02VD 02VO 02VC 09MD 02MO 02MC 02RD 02RO	1	0	1.03520393372	94.0	-263.0	92	-272	1
2.7	2015_May_03_1927	s	s	2	1	SIC	369	ABS	0	2	02VD 02VO 02VC 02MD 02MO 02MC 10RD 02RO	0	1	1.54922294617	None	None	None	None	1
2.7	2015_May_03_1927	s	s	2	1	SIC	370	RC	1	1	02VD 02VO 02VC 02MD 09MO 02MC 02RD 02RO	1	0	1.21175503731	505.0	-351.0	507	-364	1
2.7	2015_May_03_1927	s	s	2	1	SIC	371	RC	0	2	02VD 02VO 02VC 02MD 02MO 02MC 09RD 02RO	1	0	2.23081016541	423.0	356.0	417	358	1
2.7	2015_May_03_1927	s	s	2	1	SIC	372	ABS	2	2	10VD 02VO 02VC 02MD 02MO 02MC 02RD 02RO	0	1	1.82364821434	None	None	None	None	1
2.7	2015_May_03_1927	s	s	2	1	SIC	373	ABS	0	1	02VD 02VO 02VC 02MD 02MO 02MC 02RD 10RO	0	1	4.00125908852	None	None	None	None	1
2.7	2015_May_03_1927	s	s	2	1	SIC	374	ABS	1	0	02VD 02VO 02VC 02MD 02MO 10MC 02RD 02RO	0	1	2.5838341713	None	None	None	None	1
2.7	2015_May_03_1927	s	s	2	1	SIC	375	RC	2	2	09VD 02VO 02VC 02MD 02MO 02MC 02RD 02RO	1	0	1.59502601624	439.0	-353.0	434	-345	1
2.7	2015_May_03_1927	s	s	2	1	SIC	376	RC	1	0	02VD 02VO 02VC 02MD 02MO 09MC 02RD 02RO	1	0	1.22357797623	422.0	96.0	429	95	1
2.7	2015_May_03_1927	s	s	2	1	SIC	377	RC	2	1	02VD 09VO 02VC 02MD 02MO 02MC 02RD 02RO	1	0	1.43540501595	525.0	-67.0	517	-73	1
2.7	2015_May_03_1927	s	s	2	1	SIC	378	RC	1	2	02VD 02VO 02VC 09MD 02MO 02MC 02RD 02RO	1	0	1.35299396515	27.0	-290.0	24	-293	1
2.7	2015_May_03_1927	s	s	2	1	SIC	379	ABS	2	1	02VD 10VO 02VC 02MD 02MO 02MC 02RD 02RO	0	1	1.87087202072	None	None	None	None	1
2.7	2015_May_03_1927	s	s	2	1	SIC	380	RC	0	1	02VD 02VO 02VC 02MD 02MO 02MC 02RD 09RO	1	0	1.4942510128	441.0	-121.0	439	-122	1
2.7	2015_May_03_1927	s	s	2	1	SIC	381	ABS	1	2	02VD 02VO 02VC 10MD 02MO 02MC 02RD 02RO	0	1	2.38886785507	None	None	None	None	1
2.7	2015_May_03_1927	s	s	2	1	SIC	382	ABS	1	1	02VD 02VO 02VC 02MD 10MO 02MC 02RD 02RO	0	1	2.14792919159	None	None	None	None	1
2.7	2015_May_03_1927	s	s	2	1	SIC	383	ABS	2	0	02VD 02VO 10VC 02MD 02MO 02MC 02RD 02RO	0	1	1.39513993263	None	None	None	None	1
2.7	2015_May_03_1927	s	s	2	1	SIC	384	RC	2	0	02VD 02VO 09VC 02MD 02MO 02MC 02RD 02RO	1	0	0.759339094162	-106.0	209.0	-104	205	1
2.7	2015_May_03_1927	s	s	2	1	SIC	385	RC	0	2	02VD 02VO 02VC 02MD 02MO 02MC 09RD 02RO	1	0	0.893826961517	-28.0	-205.0	-25	-204	1
2.7	2015_May_03_1927	s	s	2	1	SIC	386	RC	0	1	02VD 02VO 02VC 02MD 02MO 02MC 02RD 09RO	1	0	1.99597787857	340.0	61.0	333	61	1
2.7	2015_May_03_1927	s	s	2	1	SIC	387	ABS	1	1	02VD 02VO 02VC 02MD 10MO 02MC 02RD 02RO	0	1	3.59618401527	None	None	None	None	1
2.7	2015_May_03_1927	s	s	2	1	SIC	388	ABS	0	1	02VD 02VO 02VC 02MD 02MO 02MC 02RD 10RO	0	1	3.1068251133	None	None	None	None	1
2.7	2015_May_03_1927	s	s	2	1	SIC	389	RC	1	1	02VD 02VO 02VC 02MD 09MO 02MC 02RD 02RO	1	0	1.08220696449	235.0	-297.0	242	-290	1
2.7	2015_May_03_1927	s	s	2	1	SIC	390	ABS	2	2	10VD 02VO 02VC 02MD 02MO 02MC 02RD 02RO	0	1	1.72448086739	None	None	None	None	1
2.7	2015_May_03_1927	s	s	2	1	SIC	391	ABS	2	1	02VD 10VO 02VC 02MD 02MO 02MC 02RD 02RO	0	1	1.98594594002	None	None	None	None	1
2.7	2015_May_03_1927	s	s	2	1	SIC	392	ABS	1	0	02VD 02VO 02VC 02MD 02MO 10MC 02RD 02RO	0	1	1.6885061264	None	None	None	None	1
2.7	2015_May_03_1927	s	s	2	1	SIC	393	ABS	1	2	02VD 02VO 02VC 10MD 02MO 02MC 02RD 02RO	0	1	2.16556382179	None	None	None	None	1
2.7	2015_May_03_1927	s	s	2	1	SIC	394	RC	2	0	02VD 02VO 09VC 02MD 02MO 02MC 02RD 02RO	1	0	1.30105805397	-211.0	270.0	-209	273	1
2.7	2015_May_03_1927	s	s	2	1	SIC	395	RC	1	2	02VD 02VO 02VC 09MD 02MO 02MC 02RD 02RO	1	0	0.846836090088	58.0	144.0	55	144	1
2.7	2015_May_03_1927	s	s	2	1	SIC	396	RC	2	2	09VD 02VO 02VC 02MD 02MO 02MC 02RD 02RO	1	0	1.32347011566	512.0	-105.0	516	-110	1
2.7	2015_May_03_1927	s	s	2	1	SIC	397	ABS	2	0	02VD 02VO 10VC 02MD 02MO 02MC 02RD 02RO	0	1	2.08978796005	None	None	None	None	1
2.7	2015_May_03_1927	s	s	2	1	SIC	398	RC	2	1	02VD 09VO 02VC 02MD 02MO 02MC 02RD 02RO	1	0	1.37144494057	-524.0	-208.0	-521	-200	1
2.7	2015_May_03_1927	s	s	2	1	SIC	399	ABS	0	2	02VD 02VO 02VC 02MD 02MO 02MC 10RD 02RO	0	1	2.64260196686	None	None	None	None	1
2.7	2015_May_03_1927	s	s	2	1	SIC	400	RC	1	0	02VD 02VO 02VC 02MD 02MO 09MC 02RD 02RO	1	0	0.846873998642	77.0	-184.0	83	-181	1
2.7	2015_May_03_1927	s	s	2	1	SIC	401	ABS	1	0	02VD 02VO 02VC 02MD 02MO 10MC 02RD 02RO	0	1	2.59261202812	None	None	None	None	1
2.7	2015_May_03_1927	s	s	2	1	SIC	402	RC	1	2	02VD 02VO 02VC 09MD 02MO 02MC 02RD 02RO	1	0	2.23566198349	-462.0	320.0	-460	313	1
2.7	2015_May_03_1927	s	s	2	1	SIC	403	ABS	0	2	02VD 02VO 02VC 02MD 02MO 02MC 10RD 02RO	0	1	1.48947501183	None	None	None	None	1
2.7	2015_May_03_1927	s	s	2	1	SIC	404	ABS	1	1	02VD 02VO 02VC 02MD 10MO 02MC 02RD 02RO	0	1	1.40011096001	None	None	None	None	1
2.7	2015_May_03_1927	s	s	2	1	SIC	405	ABS	0	1	02VD 02VO 02VC 02MD 02MO 02MC 02RD 10RO	0	1	3.50697112083	None	None	None	None	1
2.7	2015_May_03_1927	s	s	2	1	SIC	406	RC	1	0	02VD 02VO 02VC 02MD 02MO 09MC 02RD 02RO	1	0	1.43299889565	335.0	-249.0	325	-242	1
2.7	2015_May_03_1927	s	s	2	1	SIC	407	ABS	1	2	02VD 02VO 02VC 10MD 02MO 02MC 02RD 02RO	0	1	2.66608309746	None	None	None	None	1
2.7	2015_May_03_1927	s	s	2	1	SIC	408	RC	2	1	02VD 09VO 02VC 02MD 02MO 02MC 02RD 02RO	0	1	1.31768608093	45.0	-340.0	None	None	0
2.7	2015_May_03_1927	s	s	2	1	SIC	409	RC	2	0	02VD 02VO 09VC 02MD 02MO 02MC 02RD 02RO	1	0	1.14795804024	-189.0	-213.0	-187	-208	1
2.7	2015_May_03_1927	s	s	2	1	SIC	410	RC	1	1	02VD 02VO 02VC 02MD 09MO 02MC 02RD 02RO	1	0	1.1238360405	163.0	-272.0	159	-282	1
2.7	2015_May_03_1927	s	s	2	1	SIC	411	RC	0	2	02VD 02VO 02VC 02MD 02MO 02MC 09RD 02RO	1	0	0.882047176361	33.0	-293.0	26	-294	1
2.7	2015_May_03_1927	s	s	2	1	SIC	412	RC	2	2	09VD 02VO 02VC 02MD 02MO 02MC 02RD 02RO	1	0	0.634994983673	261.0	17.0	253	19	1
2.7	2015_May_03_1927	s	s	2	1	SIC	413	ABS	2	0	02VD 02VO 10VC 02MD 02MO 02MC 02RD 02RO	0	1	1.64727115631	None	None	None	None	1
2.7	2015_May_03_1927	s	s	2	1	SIC	414	ABS	2	1	02VD 10VO 02VC 02MD 02MO 02MC 02RD 02RO	0	1	1.6774251461	None	None	None	None	1
2.7	2015_May_03_1927	s	s	2	1	SIC	415	ABS	2	2	10VD 02VO 02VC 02MD 02MO 02MC 02RD 02RO	0	1	1.90618109703	None	None	None	None	1
2.7	2015_May_03_1927	s	s	2	1	SIC	416	RC	0	1	02VD 02VO 02VC 02MD 02MO 02MC 02RD 09RO	1	0	3.10217189789	73.0	329.0	71	329	1
2.7	2015_May_03_1927	s	s	2	1	SIC	417	RC	2	0	02VD 02VO 09VC 02MD 02MO 02MC 02RD 02RO	1	0	1.74771714211	309.0	-217.0	303	-214	1
2.7	2015_May_03_1927	s	s	2	1	SIC	418	ABS	2	0	02VD 02VO 10VC 02MD 02MO 02MC 02RD 02RO	0	1	2.1608569622	None	None	None	None	1
2.7	2015_May_03_1927	s	s	2	1	SIC	419	ABS	1	1	02VD 02VO 02VC 02MD 10MO 02MC 02RD 02RO	0	1	3.07146596909	None	None	None	None	1
2.7	2015_May_03_1927	s	s	2	1	SIC	420	RC	1	1	02VD 02VO 02VC 02MD 09MO 02MC 02RD 02RO	1	0	0.905925989151	-310.0	20.0	-319	25	1
2.7	2015_May_03_1927	s	s	2	1	SIC	421	ABS	0	2	02VD 02VO 02VC 02MD 02MO 02MC 10RD 02RO	0	1	2.11808896065	None	None	None	None	1
2.7	2015_May_03_1927	s	s	2	1	SIC	422	RC	1	0	02VD 02VO 02VC 02MD 02MO 09MC 02RD 02RO	1	0	1.28238987923	-521.0	-223.0	-513	-223	1
2.7	2015_May_03_1927	s	s	2	1	SIC	423	RC	0	2	02VD 02VO 02VC 02MD 02MO 02MC 09RD 02RO	1	0	1.65080809593	519.0	-326.0	512	-331	1
2.7	2015_May_03_1927	s	s	2	1	SIC	424	ABS	0	1	02VD 02VO 02VC 02MD 02MO 02MC 02RD 10RO	0	1	3.68982100487	None	None	None	None	1
2.7	2015_May_03_1927	s	s	2	1	SIC	425	ABS	1	2	02VD 02VO 02VC 10MD 02MO 02MC 02RD 02RO	0	1	1.5479631424	None	None	None	None	1
2.7	2015_May_03_1927	s	s	2	1	SIC	426	ABS	2	1	02VD 10VO 02VC 02MD 02MO 02MC 02RD 02RO	0	1	1.89191389084	None	None	None	None	1
2.7	2015_May_03_1927	s	s	2	1	SIC	427	ABS	1	0	02VD 02VO 02VC 02MD 02MO 10MC 02RD 02RO	0	1	3.80133700371	None	None	None	None	1
2.7	2015_May_03_1927	s	s	2	1	SIC	428	RC	2	2	09VD 02VO 02VC 02MD 02MO 02MC 02RD 02RO	1	0	0.788015842438	-61.0	-132.0	-56	-130	1
2.7	2015_May_03_1927	s	s	2	1	SIC	429	RC	1	2	02VD 02VO 02VC 09MD 02MO 02MC 02RD 02RO	1	0	0.797055006027	204.0	252.0	202	252	1
2.7	2015_May_03_1927	s	s	2	1	SIC	430	RC	0	1	02VD 02VO 02VC 02MD 02MO 02MC 02RD 09RO	1	0	3.91089892387	-462.0	167.0	-457	162	1
2.7	2015_May_03_1927	s	s	2	1	SIC	431	ABS	2	2	10VD 02VO 02VC 02MD 02MO 02MC 02RD 02RO	0	1	1.35882902145	None	None	None	None	1
2.7	2015_May_03_1927	s	s	2	1	SIC	432	RC	2	1	02VD 09VO 02VC 02MD 02MO 02MC 02RD 02RO	1	0	1.47430181503	337.0	-66.0	339	-68	1
2.7	2015_May_03_1927	s	s	2	1	SIC	433	ABS	2	1	02VD 10VO 02VC 02MD 02MO 02MC 02RD 02RO	0	1	2.14200091362	None	None	None	None	1
2.7	2015_May_03_1927	s	s	2	1	SIC	434	RC	1	0	02VD 02VO 02VC 02MD 02MO 09MC 02RD 02RO	1	0	1.42975497246	97.0	-230.0	107	-221	1
2.7	2015_May_03_1927	s	s	2	1	SIC	435	RC	0	1	02VD 02VO 02VC 02MD 02MO 02MC 02RD 09RO	1	0	1.57658910751	-179.0	247.0	-181	246	1
2.7	2015_May_03_1927	s	s	2	1	SIC	436	ABS	1	2	02VD 02VO 02VC 10MD 02MO 02MC 02RD 02RO	0	1	2.10140705109	None	None	None	None	1
2.7	2015_May_03_1927	s	s	2	1	SIC	437	RC	1	2	02VD 02VO 02VC 09MD 02MO 02MC 02RD 02RO	1	0	0.900555849075	283.0	68.0	287	64	1
2.7	2015_May_03_1927	s	s	2	1	SIC	438	RC	2	0	02VD 02VO 09VC 02MD 02MO 02MC 02RD 02RO	1	0	0.888741970062	-277.0	231.0	-284	230	1
2.7	2015_May_03_1927	s	s	2	1	SIC	439	RC	1	1	02VD 02VO 02VC 02MD 09MO 02MC 02RD 02RO	1	0	2.06857705116	77.0	-405.0	88	-405	1
2.7	2015_May_03_1927	s	s	2	1	SIC	440	ABS	2	0	02VD 02VO 10VC 02MD 02MO 02MC 02RD 02RO	0	1	2.59578204155	None	None	None	None	1
2.7	2015_May_03_1927	s	s	2	1	SIC	441	RC	2	1	02VD 09VO 02VC 02MD 02MO 02MC 02RD 02RO	1	0	0.579847812653	-57.0	-59.0	-49	-60	1
2.7	2015_May_03_1927	s	s	2	1	SIC	442	RC	2	2	09VD 02VO 02VC 02MD 02MO 02MC 02RD 02RO	1	0	0.959632158279	-2.0	-393.0	-13	-384	1
2.7	2015_May_03_1927	s	s	2	1	SIC	443	ABS	1	1	02VD 02VO 02VC 02MD 10MO 02MC 02RD 02RO	0	1	2.68311500549	None	None	None	None	1
2.7	2015_May_03_1927	s	s	2	1	SIC	444	RC	0	2	02VD 02VO 02VC 02MD 02MO 02MC 09RD 02RO	1	0	1.96504306793	489.0	-306.0	490	-303	1
2.7	2015_May_03_1927	s	s	2	1	SIC	445	ABS	1	0	02VD 02VO 02VC 02MD 02MO 10MC 02RD 02RO	0	1	2.96545410156	None	None	None	None	1
2.7	2015_May_03_1927	s	s	2	1	SIC	446	ABS	2	2	10VD 02VO 02VC 02MD 02MO 02MC 02RD 02RO	0	1	1.72623205185	None	None	None	None	1
2.7	2015_May_03_1927	s	s	2	1	SIC	447	ABS	0	1	02VD 02VO 02VC 02MD 02MO 02MC 02RD 10RO	0	1	3.38434004784	None	None	None	None	1
2.7	2015_May_03_1927	s	s	2	1	SIC	448	ABS	0	2	02VD 02VO 02VC 02MD 02MO 02MC 10RD 02RO	0	1	2.17216706276	None	None	None	None	1
2.7	2015_May_03_1927	s	s	2	1	SIC	449	RC	1	2	02VD 02VO 02VC 09MD 02MO 02MC 02RD 02RO	1	0	1.0655310154	56.0	255.0	51	251	1
2.7	2015_May_03_1927	s	s	2	1	SIC	450	ABS	0	1	02VD 02VO 02VC 02MD 02MO 02MC 02RD 10RO	0	1	3.50728416443	None	None	None	None	1
2.7	2015_May_03_1927	s	s	2	1	SIC	451	ABS	2	2	10VD 02VO 02VC 02MD 02MO 02MC 02RD 02RO	0	1	1.64257311821	None	None	None	None	1
2.7	2015_May_03_1927	s	s	2	1	SIC	452	RC	1	1	02VD 02VO 02VC 02MD 09MO 02MC 02RD 02RO	1	0	1.07049798965	411.0	113.0	415	112	1
2.7	2015_May_03_1927	s	s	2	1	SIC	453	RC	2	2	09VD 02VO 02VC 02MD 02MO 02MC 02RD 02RO	1	0	0.858546972275	232.0	161.0	230	156	1
2.7	2015_May_03_1927	s	s	2	1	SIC	454	RC	0	2	02VD 02VO 02VC 02MD 02MO 02MC 09RD 02RO	1	0	0.631662130356	125.0	191.0	123	182	1
2.7	2015_May_03_1927	s	s	2	1	SIC	455	RC	2	0	02VD 02VO 09VC 02MD 02MO 02MC 02RD 02RO	1	0	1.28235197067	-134.0	-99.0	-129	-105	1
2.7	2015_May_03_1927	s	s	2	1	SIC	456	ABS	1	1	02VD 02VO 02VC 02MD 10MO 02MC 02RD 02RO	0	1	2.73015904427	None	None	None	None	1
2.7	2015_May_03_1927	s	s	2	1	SIC	457	ABS	1	2	02VD 02VO 02VC 10MD 02MO 02MC 02RD 02RO	0	1	1.53885793686	None	None	None	None	1
2.7	2015_May_03_1927	s	s	2	1	SIC	458	ABS	0	2	02VD 02VO 02VC 02MD 02MO 02MC 10RD 02RO	0	1	1.72962594032	None	None	None	None	1
2.7	2015_May_03_1927	s	s	2	1	SIC	459	ABS	2	1	02VD 10VO 02VC 02MD 02MO 02MC 02RD 02RO	0	1	1.73584699631	None	None	None	None	1
2.7	2015_May_03_1927	s	s	2	1	SIC	460	RC	2	1	02VD 09VO 02VC 02MD 02MO 02MC 02RD 02RO	0	1	1.37155508995	97.0	-321.0	None	None	0
2.7	2015_May_03_1927	s	s	2	1	SIC	461	ABS	1	0	02VD 02VO 02VC 02MD 02MO 10MC 02RD 02RO	0	1	2.36566090584	None	None	None	None	1
2.7	2015_May_03_1927	s	s	2	1	SIC	462	RC	1	0	02VD 02VO 02VC 02MD 02MO 09MC 02RD 02RO	1	0	1.68920612335	-530.0	197.0	-542	205	1
2.7	2015_May_03_1927	s	s	2	1	SIC	463	RC	0	1	02VD 02VO 02VC 02MD 02MO 02MC 02RD 09RO	1	0	1.42364001274	-461.0	311.0	-457	316	1
2.7	2015_May_03_1927	s	s	2	1	SIC	464	ABS	2	0	02VD 02VO 10VC 02MD 02MO 02MC 02RD 02RO	0	1	1.82380604744	None	None	None	None	1
2.7	2015_May_03_1927	s	s	2	1	SIC	465	RC	2	1	02VD 09VO 02VC 02MD 02MO 02MC 02RD 02RO	1	0	1.83243703842	283.0	-351.0	285	-355	1
2.7	2015_May_03_1927	s	s	2	1	SIC	466	RC	1	0	02VD 02VO 02VC 02MD 02MO 09MC 02RD 02RO	1	0	1.78845715523	-433.0	87.0	-431	73	1
2.7	2015_May_03_1927	s	s	2	1	SIC	467	RC	1	2	02VD 02VO 02VC 09MD 02MO 02MC 02RD 02RO	1	0	0.91744685173	-42.0	301.0	-46	293	1
2.7	2015_May_03_1927	s	s	2	1	SIC	468	ABS	0	1	02VD 02VO 02VC 02MD 02MO 02MC 02RD 10RO	0	1	3.91881418228	None	None	None	None	1
2.7	2015_May_03_1927	s	s	2	1	SIC	469	ABS	2	2	10VD 02VO 02VC 02MD 02MO 02MC 02RD 02RO	0	1	2.14165282249	None	None	None	None	1
2.7	2015_May_03_1927	s	s	2	1	SIC	470	RC	2	0	02VD 02VO 09VC 02MD 02MO 02MC 02RD 02RO	1	0	1.36245298386	0.0	-282.0	-6	-276	1
2.7	2015_May_03_1927	s	s	2	1	SIC	471	ABS	1	2	02VD 02VO 02VC 10MD 02MO 02MC 02RD 02RO	0	1	1.7686650753	None	None	None	None	1
2.7	2015_May_03_1927	s	s	2	1	SIC	472	RC	2	2	09VD 02VO 02VC 02MD 02MO 02MC 02RD 02RO	1	0	0.548352003098	-38.0	64.0	-30	64	1
2.7	2015_May_03_1927	s	s	2	1	SIC	473	ABS	2	1	02VD 10VO 02VC 02MD 02MO 02MC 02RD 02RO	0	1	1.85911607742	None	None	None	None	1
2.7	2015_May_03_1927	s	s	2	1	SIC	474	ABS	2	0	02VD 02VO 10VC 02MD 02MO 02MC 02RD 02RO	0	1	1.7413918972	None	None	None	None	1
2.7	2015_May_03_1927	s	s	2	1	SIC	475	RC	0	1	02VD 02VO 02VC 02MD 02MO 02MC 02RD 09RO	1	0	2.31814002991	339.0	-169.0	337	-167	1
2.7	2015_May_03_1927	s	s	2	1	SIC	476	RC	0	2	02VD 02VO 02VC 02MD 02MO 02MC 09RD 02RO	1	0	1.18326807022	176.0	-316.0	176	-312	1
2.7	2015_May_03_1927	s	s	2	1	SIC	477	ABS	0	2	02VD 02VO 02VC 02MD 02MO 02MC 10RD 02RO	0	1	1.91390609741	None	None	None	None	1
2.7	2015_May_03_1927	s	s	2	1	SIC	478	ABS	1	1	02VD 02VO 02VC 02MD 10MO 02MC 02RD 02RO	0	1	2.17698812485	None	None	None	None	1
2.7	2015_May_03_1927	s	s	2	1	SIC	479	RC	1	1	02VD 02VO 02VC 02MD 09MO 02MC 02RD 02RO	1	0	1.37167596817	-332.0	218.0	-330	214	1
2.7	2015_May_03_1927	s	s	2	1	SIC	480	ABS	1	0	02VD 02VO 02VC 02MD 02MO 10MC 02RD 02RO	0	1	3.33740401268	None	None	None	None	1
