Version	Date	Stimuli	Method	Subject	Session	Condition	Trial	Target	Channel1	Channel2	Distractors	LMouseButton	RMouseButton	RT	TargetX	TargetY	ResponseX	ResponseY	Correct
2.7	2015_May_07_1207	s	s	2	5	Capacity	1	ABS	2	0	16VC 08MC	0	1	1.76494598389	None	None	None	None	1
2.7	2015_May_07_1207	s	s	2	5	Capacity	2	RC	1	0	08VC 15MC	1	0	0.665220022202	183.0	136.0	184	138	1
2.7	2015_May_07_1207	s	s	2	5	Capacity	3	RC	2	0	15VC 08MC	1	0	1.35302305222	314.0	-299.0	322	-298	1
2.7	2015_May_07_1207	s	s	2	5	Capacity	4	ABS	1	0	08VC 16MC	0	1	1.85562801361	None	None	None	None	1
2.7	2015_May_07_1207	s	s	2	5	Capacity	5	RC	1	0	08VC 15MC	1	0	1.30591702461	-52.0	-350.0	-54	-349	1
2.7	2015_May_07_1207	s	s	2	5	Capacity	6	RC	2	0	15VC 08MC	1	0	0.717714071274	178.0	382.0	172	385	1
2.7	2015_May_07_1207	s	s	2	5	Capacity	7	ABS	2	0	16VC 08MC	0	1	1.52455091476	None	None	None	None	1
2.7	2015_May_07_1207	s	s	2	5	Capacity	8	ABS	1	0	08VC 16MC	0	1	2.16519498825	None	None	None	None	1
2.7	2015_May_07_1207	s	s	2	5	Capacity	9	ABS	2	0	16VC 08MC	0	1	1.33612108231	None	None	None	None	1
2.7	2015_May_07_1207	s	s	2	5	Capacity	10	ABS	1	0	08VC 16MC	0	1	1.79530215263	None	None	None	None	1
2.7	2015_May_07_1207	s	s	2	5	Capacity	11	RC	1	0	08VC 15MC	1	0	1.07735204697	500.0	214.0	510	219	1
2.7	2015_May_07_1207	s	s	2	5	Capacity	12	RC	2	0	15VC 08MC	1	0	0.693850040436	-47.0	-370.0	-56	-371	1
2.7	2015_May_07_1207	s	s	2	5	Capacity	13	ABS	1	0	08VC 16MC	0	1	2.36031794548	None	None	None	None	1
2.7	2015_May_07_1207	s	s	2	5	Capacity	14	RC	1	0	08VC 15MC	1	0	0.646747112274	-78.0	-277.0	-85	-283	1
2.7	2015_May_07_1207	s	s	2	5	Capacity	15	RC	2	0	15VC 08MC	1	0	0.630000114441	217.0	197.0	209	206	1
2.7	2015_May_07_1207	s	s	2	5	Capacity	16	ABS	2	0	16VC 08MC	0	1	1.43538403511	None	None	None	None	1
2.7	2015_May_07_1207	s	s	2	5	Capacity	17	RC	2	0	15VC 08MC	1	0	0.477076053619	131.0	57.0	129	65	1
2.7	2015_May_07_1207	s	s	2	5	Capacity	18	RC	1	0	08VC 15MC	1	0	1.62379717827	436.0	-280.0	439	-281	1
2.7	2015_May_07_1207	s	s	2	5	Capacity	19	ABS	1	0	08VC 16MC	0	1	1.20000815392	None	None	None	None	1
2.7	2015_May_07_1207	s	s	2	5	Capacity	20	ABS	2	0	16VC 08MC	0	1	1.55315113068	None	None	None	None	1
2.7	2015_May_07_1207	s	s	2	5	Capacity	21	ABS	1	0	08VC 16MC	0	1	1.38354587555	None	None	None	None	1
2.7	2015_May_07_1207	s	s	2	5	Capacity	22	RC	2	0	15VC 08MC	1	0	0.606490850449	42.0	287.0	41	286	1
2.7	2015_May_07_1207	s	s	2	5	Capacity	23	ABS	2	0	16VC 08MC	0	1	1.45887207985	None	None	None	None	1
2.7	2015_May_07_1207	s	s	2	5	Capacity	24	RC	1	0	08VC 15MC	1	0	0.61150598526	-78.0	262.0	-70	270	1
2.7	2015_May_07_1207	s	s	2	5	Capacity	25	RC	2	0	15VC 08MC	1	0	0.700662851334	75.0	-37.0	70	-28	1
2.7	2015_May_07_1207	s	s	2	5	Capacity	26	ABS	2	0	16VC 08MC	0	1	1.13616704941	None	None	None	None	1
2.7	2015_May_07_1207	s	s	2	5	Capacity	27	RC	1	0	08VC 15MC	1	0	0.493768930435	-130.0	77.0	-137	75	1
2.7	2015_May_07_1207	s	s	2	5	Capacity	28	ABS	1	0	08VC 16MC	0	1	1.61198616028	None	None	None	None	1
2.7	2015_May_07_1207	s	s	2	5	Capacity	29	RC	1	0	08VC 15MC	1	0	0.679470777512	-205.0	-155.0	-205	-161	1
2.7	2015_May_07_1207	s	s	2	5	Capacity	30	ABS	2	0	16VC 08MC	0	1	1.01159596443	None	None	None	None	1
2.7	2015_May_07_1207	s	s	2	5	Capacity	31	RC	2	0	15VC 08MC	1	0	0.900020837784	513.0	264.0	517	265	1
2.7	2015_May_07_1207	s	s	2	5	Capacity	32	ABS	1	0	08VC 16MC	0	1	1.91300702095	None	None	None	None	1
2.7	2015_May_07_1207	s	s	2	5	Capacity	33	ABS	2	0	16VC 08MC	0	1	1.00640702248	None	None	None	None	1
2.7	2015_May_07_1207	s	s	2	5	Capacity	34	RC	2	0	15VC 08MC	1	0	0.646614074707	397.0	-236.0	396	-237	1
2.7	2015_May_07_1207	s	s	2	5	Capacity	35	RC	1	0	08VC 15MC	1	0	0.477063894272	-236.0	-46.0	-241	-45	1
2.7	2015_May_07_1207	s	s	2	5	Capacity	36	ABS	1	0	08VC 16MC	0	1	1.25395202637	None	None	None	None	1
2.7	2015_May_07_1207	s	s	2	5	Capacity	37	RC	2	0	15VC 08MC	1	0	0.752720832825	143.0	-349.0	141	-347	1
2.7	2015_May_07_1207	s	s	2	5	Capacity	38	ABS	2	0	16VC 08MC	0	1	1.31271100044	None	None	None	None	1
2.7	2015_May_07_1207	s	s	2	5	Capacity	39	RC	1	0	08VC 15MC	1	0	1.58346581459	520.0	-386.0	518	-394	1
2.7	2015_May_07_1207	s	s	2	5	Capacity	40	ABS	1	0	08VC 16MC	0	1	1.67822885513	None	None	None	None	1
2.7	2015_May_07_1207	s	s	2	5	Capacity	41	RC	1	0	08VC 15MC	1	0	0.594707012177	-303.0	406.0	-304	410	1
2.7	2015_May_07_1207	s	s	2	5	Capacity	42	RC	2	0	15VC 08MC	1	0	0.856113910675	411.0	183.0	400	185	1
2.7	2015_May_07_1207	s	s	2	5	Capacity	43	ABS	1	0	08VC 16MC	0	1	1.83214902878	None	None	None	None	1
2.7	2015_May_07_1207	s	s	2	5	Capacity	44	ABS	2	0	16VC 08MC	0	1	1.12435102463	None	None	None	None	1
2.7	2015_May_07_1207	s	s	2	5	Capacity	45	ABS	1	0	08VC 16MC	0	1	1.58841300011	None	None	None	None	1
2.7	2015_May_07_1207	s	s	2	5	Capacity	46	RC	2	0	15VC 08MC	1	0	1.05863213539	14.0	-358.0	21	-364	1
2.7	2015_May_07_1207	s	s	2	5	Capacity	47	ABS	2	0	16VC 08MC	0	1	2.23100495338	None	None	None	None	1
2.7	2015_May_07_1207	s	s	2	5	Capacity	48	RC	1	0	08VC 15MC	1	0	0.647166013718	-444.0	-39.0	-438	-34	1
2.7	2015_May_07_1207	s	s	2	5	Capacity	49	RC	2	0	15VC 08MC	1	0	0.642251968384	-238.0	116.0	-237	114	1
2.7	2015_May_07_1207	s	s	2	5	Capacity	50	ABS	2	0	16VC 08MC	0	1	0.799755811691	None	None	None	None	1
2.7	2015_May_07_1207	s	s	2	5	Capacity	51	RC	1	0	08VC 15MC	1	0	0.51328420639	-170.0	308.0	-165	306	1
2.7	2015_May_07_1207	s	s	2	5	Capacity	52	ABS	1	0	08VC 16MC	0	1	1.19999098778	None	None	None	None	1
2.7	2015_May_07_1207	s	s	2	5	Capacity	53	RC	2	0	15VC 08MC	1	0	0.470201969147	-332.0	-31.0	-334	-34	1
2.7	2015_May_07_1207	s	s	2	5	Capacity	54	ABS	1	0	08VC 16MC	0	1	1.89100193977	None	None	None	None	1
2.7	2015_May_07_1207	s	s	2	5	Capacity	55	RC	1	0	08VC 15MC	1	0	1.18326997757	333.0	-304.0	337	-302	1
2.7	2015_May_07_1207	s	s	2	5	Capacity	56	ABS	2	0	16VC 08MC	0	1	1.18312692642	None	None	None	None	1
2.7	2015_May_07_1207	s	s	2	5	Capacity	57	ABS	1	0	08VC 16MC	0	1	2.13833498955	None	None	None	None	1
2.7	2015_May_07_1207	s	s	2	5	Capacity	58	RC	2	0	15VC 08MC	1	0	1.08924007416	389.0	395.0	379	395	1
2.7	2015_May_07_1207	s	s	2	5	Capacity	59	RC	1	0	08VC 15MC	1	0	0.576142072678	94.0	359.0	96	357	1
2.7	2015_May_07_1207	s	s	2	5	Capacity	60	ABS	2	0	16VC 08MC	0	1	1.36479902267	None	None	None	None	1
2.7	2015_May_07_1207	s	s	2	5	Capacity	61	ABS	2	0	16VC 08MC	0	1	1.4353621006	None	None	None	None	1
2.7	2015_May_07_1207	s	s	2	5	Capacity	62	RC	1	0	08VC 15MC	1	0	0.470214128494	111.0	143.0	106	145	1
2.7	2015_May_07_1207	s	s	2	5	Capacity	63	ABS	1	0	08VC 16MC	0	1	1.77174305916	None	None	None	None	1
2.7	2015_May_07_1207	s	s	2	5	Capacity	64	RC	2	0	15VC 08MC	1	0	0.488825798035	146.0	-44.0	142	-48	1
2.7	2015_May_07_1207	s	s	2	5	Capacity	1	RC	0	2	15RD 08RO	1	0	1.18823099136	-419.0	-320.0	-419	-322	1
2.7	2015_May_07_1207	s	s	2	5	Capacity	2	ABS	0	1	08RD 16RO	0	1	3.41284704208	None	None	None	None	1
2.7	2015_May_07_1207	s	s	2	5	Capacity	3	ABS	0	2	16RD 08RO	0	1	1.82787895203	None	None	None	None	1
2.7	2015_May_07_1207	s	s	2	5	Capacity	4	RC	0	1	08RD 15RO	1	0	0.759255886078	-480.0	334.0	-477	343	1
2.7	2015_May_07_1207	s	s	2	5	Capacity	5	ABS	0	1	08RD 16RO	0	1	5.71986293793	None	None	None	None	1
2.7	2015_May_07_1207	s	s	2	5	Capacity	6	RC	0	1	08RD 15RO	1	0	3.80791902542	249.0	366.0	245	367	1
2.7	2015_May_07_1207	s	s	2	5	Capacity	7	ABS	0	2	16RD 08RO	0	1	2.28296303749	None	None	None	None	1
2.7	2015_May_07_1207	s	s	2	5	Capacity	8	RC	0	2	15RD 08RO	1	0	0.587939977646	-188.0	11.0	-188	8	1
2.7	2015_May_07_1207	s	s	2	5	Capacity	9	RC	0	2	15RD 08RO	1	0	1.82995390892	537.0	281.0	536	278	1
2.7	2015_May_07_1207	s	s	2	5	Capacity	10	ABS	0	2	16RD 08RO	0	1	2.58400177956	None	None	None	None	1
2.7	2015_May_07_1207	s	s	2	5	Capacity	11	RC	0	1	08RD 15RO	1	0	1.47069096565	-364.0	-289.0	-368	-287	1
2.7	2015_May_07_1207	s	s	2	5	Capacity	12	ABS	0	1	08RD 16RO	0	1	3.80945086479	None	None	None	None	1
2.7	2015_May_07_1207	s	s	2	5	Capacity	13	ABS	0	2	16RD 08RO	0	1	2.37200498581	None	None	None	None	1
2.7	2015_May_07_1207	s	s	2	5	Capacity	14	RC	0	1	08RD 15RO	1	0	1.29053497314	111.0	69.0	121	67	1
2.7	2015_May_07_1207	s	s	2	5	Capacity	15	RC	0	2	15RD 08RO	1	0	1.11243987083	165.0	-62.0	167	-62	1
2.7	2015_May_07_1207	s	s	2	5	Capacity	16	ABS	0	1	08RD 16RO	0	1	5.36676502228	None	None	None	None	1
2.7	2015_May_07_1207	s	s	2	5	Capacity	17	RC	0	1	08RD 15RO	1	0	1.13549113274	203.0	242.0	204	241	1
2.7	2015_May_07_1207	s	s	2	5	Capacity	18	RC	0	2	15RD 08RO	1	0	1.02348589897	-396.0	-129.0	-387	-120	1
2.7	2015_May_07_1207	s	s	2	5	Capacity	19	ABS	0	1	08RD 16RO	0	1	3.08323502541	None	None	None	None	1
2.7	2015_May_07_1207	s	s	2	5	Capacity	20	ABS	0	2	16RD 08RO	0	1	1.80927419662	None	None	None	None	1
2.7	2015_May_07_1207	s	s	2	5	Capacity	21	RC	0	2	15RD 08RO	1	0	1.23193120956	416.0	176.0	413	176	1
2.7	2015_May_07_1207	s	s	2	5	Capacity	22	ABS	0	1	08RD 16RO	0	1	3.62473583221	None	None	None	None	1
2.7	2015_May_07_1207	s	s	2	5	Capacity	23	RC	0	1	08RD 15RO	1	0	1.18824315071	-464.0	221.0	-464	219	1
2.7	2015_May_07_1207	s	s	2	5	Capacity	24	ABS	0	2	16RD 08RO	0	1	3.24555587769	None	None	None	None	1
2.7	2015_May_07_1207	s	s	2	5	Capacity	25	ABS	0	1	08RD 16RO	0	1	3.1029150486	None	None	None	None	1
2.7	2015_May_07_1207	s	s	2	5	Capacity	26	RC	0	1	08RD 15RO	1	0	1.59199786186	92.0	241.0	102	245	1
2.7	2015_May_07_1207	s	s	2	5	Capacity	27	RC	0	2	15RD 08RO	1	0	1.40675497055	-37.0	-370.0	-31	-374	1
2.7	2015_May_07_1207	s	s	2	5	Capacity	28	ABS	0	2	16RD 08RO	0	1	2.13593411446	None	None	None	None	1
2.7	2015_May_07_1207	s	s	2	5	Capacity	29	RC	0	1	08RD 15RO	1	0	0.917371034622	151.0	-144.0	151	-149	1
2.7	2015_May_07_1207	s	s	2	5	Capacity	30	ABS	0	2	16RD 08RO	0	1	2.55361914635	None	None	None	None	1
2.7	2015_May_07_1207	s	s	2	5	Capacity	31	ABS	0	1	08RD 16RO	0	1	3.98494291306	None	None	None	None	1
2.7	2015_May_07_1207	s	s	2	5	Capacity	32	RC	0	2	15RD 08RO	1	0	0.747745037079	-210.0	352.0	-225	359	1
2.7	2015_May_07_1207	s	s	2	5	Capacity	33	ABS	0	1	08RD 16RO	0	1	4.06033205986	None	None	None	None	1
2.7	2015_May_07_1207	s	s	2	5	Capacity	34	RC	0	1	08RD 15RO	1	0	0.811517000198	-278.0	152.0	-268	154	1
2.7	2015_May_07_1207	s	s	2	5	Capacity	35	ABS	0	2	16RD 08RO	0	1	2.25923919678	None	None	None	None	1
2.7	2015_May_07_1207	s	s	2	5	Capacity	36	RC	0	2	15RD 08RO	1	0	1.47740197182	-486.0	-16.0	-489	-10	1
2.7	2015_May_07_1207	s	s	2	5	Capacity	37	ABS	0	2	16RD 08RO	0	1	1.73886990547	None	None	None	None	1
2.7	2015_May_07_1207	s	s	2	5	Capacity	38	RC	0	2	15RD 08RO	1	0	1.38829898834	-437.0	262.0	-443	265	1
2.7	2015_May_07_1207	s	s	2	5	Capacity	39	RC	0	1	08RD 15RO	1	0	0.811546087265	-367.0	372.0	-357	381	1
2.7	2015_May_07_1207	s	s	2	5	Capacity	40	ABS	0	1	08RD 16RO	0	1	4.97835683823	None	None	None	None	1
2.7	2015_May_07_1207	s	s	2	5	Capacity	41	ABS	0	1	08RD 16RO	0	1	3.46682906151	None	None	None	None	1
2.7	2015_May_07_1207	s	s	2	5	Capacity	42	RC	0	2	15RD 08RO	0	1	1.92521810532	391.0	-37.0	None	None	0
2.7	2015_May_07_1207	s	s	2	5	Capacity	43	RC	0	1	08RD 15RO	1	0	0.999861001968	-319.0	-305.0	-311	-308	1
2.7	2015_May_07_1207	s	s	2	5	Capacity	44	ABS	0	2	16RD 08RO	0	1	2.28947114944	None	None	None	None	1
2.7	2015_May_07_1207	s	s	2	5	Capacity	45	RC	0	2	15RD 08RO	1	0	0.740908145905	-375.0	231.0	-379	226	1
2.7	2015_May_07_1207	s	s	2	5	Capacity	46	ABS	0	2	16RD 08RO	0	1	1.54976391792	None	None	None	None	1
2.7	2015_May_07_1207	s	s	2	5	Capacity	47	ABS	0	1	08RD 16RO	0	1	3.68354105949	None	None	None	None	1
2.7	2015_May_07_1207	s	s	2	5	Capacity	48	RC	0	1	08RD 15RO	1	0	1.57175588608	152.0	311.0	148	308	1
2.7	2015_May_07_1207	s	s	2	5	Capacity	49	ABS	0	1	08RD 16RO	0	1	3.93075203896	None	None	None	None	1
2.7	2015_May_07_1207	s	s	2	5	Capacity	50	ABS	0	2	16RD 08RO	0	1	2.63632512093	None	None	None	None	1
2.7	2015_May_07_1207	s	s	2	5	Capacity	51	RC	0	2	15RD 08RO	1	0	1.12425804138	167.0	-388.0	157	-381	1
2.7	2015_May_07_1207	s	s	2	5	Capacity	52	RC	0	1	08RD 15RO	1	0	1.088793993	196.0	-395.0	200	-391	1
2.7	2015_May_07_1207	s	s	2	5	Capacity	53	ABS	0	2	16RD 08RO	0	1	2.03058099747	None	None	None	None	1
2.7	2015_May_07_1207	s	s	2	5	Capacity	54	RC	0	1	08RD 15RO	1	0	1.08883213997	-123.0	-109.0	-121	-101	1
2.7	2015_May_07_1207	s	s	2	5	Capacity	55	ABS	0	1	08RD 16RO	0	1	3.9488158226	None	None	None	None	1
2.7	2015_May_07_1207	s	s	2	5	Capacity	56	RC	0	2	15RD 08RO	1	0	0.528980970383	-215.0	195.0	-215	198	1
2.7	2015_May_07_1207	s	s	2	5	Capacity	57	ABS	0	1	08RD 16RO	0	1	2.54873514175	None	None	None	None	1
2.7	2015_May_07_1207	s	s	2	5	Capacity	58	ABS	0	2	16RD 08RO	0	1	2.08947300911	None	None	None	None	1
2.7	2015_May_07_1207	s	s	2	5	Capacity	59	RC	0	2	15RD 08RO	1	0	0.658328056335	63.0	-133.0	56	-125	1
2.7	2015_May_07_1207	s	s	2	5	Capacity	60	RC	0	1	08RD 15RO	1	0	1.8709628582	-472.0	-85.0	-477	-95	1
2.7	2015_May_07_1207	s	s	2	5	Capacity	61	RC	0	1	08RD 15RO	0	1	3.24317002296	510.0	-298.0	None	None	0
2.7	2015_May_07_1207	s	s	2	5	Capacity	62	ABS	0	1	08RD 16RO	0	1	4.68412804604	None	None	None	None	1
2.7	2015_May_07_1207	s	s	2	5	Capacity	63	ABS	0	2	16RD 08RO	0	1	2.35347294807	None	None	None	None	1
2.7	2015_May_07_1207	s	s	2	5	Capacity	64	RC	0	2	15RD 08RO	1	0	2.16519212723	304.0	-338.0	304	-340	1
2.7	2015_May_07_1207	s	s	2	5	SIC	1	ABS	1	2	02VD 02VO 02VC 10MD 02MO 02MC 02RD 02RO	0	1	1.84129691124	None	None	None	None	1
2.7	2015_May_07_1207	s	s	2	5	SIC	2	RC	2	0	02VD 02VO 09VC 02MD 02MO 02MC 02RD 02RO	1	0	1.19997787476	-115.0	-323.0	-119	-318	1
2.7	2015_May_07_1207	s	s	2	5	SIC	3	RC	1	2	02VD 02VO 02VC 09MD 02MO 02MC 02RD 02RO	1	0	0.889430046082	39.0	-247.0	279	-113	0
2.7	2015_May_07_1207	s	s	2	5	SIC	4	ABS	2	2	10VD 02VO 02VC 02MD 02MO 02MC 02RD 02RO	0	1	1.61801600456	None	None	None	None	1
2.7	2015_May_07_1207	s	s	2	5	SIC	5	RC	0	2	02VD 02VO 02VC 02MD 02MO 02MC 09RD 02RO	1	0	0.964603900909	332.0	340.0	321	342	1
2.7	2015_May_07_1207	s	s	2	5	SIC	6	RC	1	1	02VD 02VO 02VC 02MD 09MO 02MC 02RD 02RO	1	0	1.19541788101	-465.0	161.0	-452	165	1
2.7	2015_May_07_1207	s	s	2	5	SIC	7	RC	0	1	02VD 02VO 02VC 02MD 02MO 02MC 02RD 09RO	1	0	0.738384962082	-214.0	94.0	-223	95	1
2.7	2015_May_07_1207	s	s	2	5	SIC	8	RC	2	2	09VD 02VO 02VC 02MD 02MO 02MC 02RD 02RO	1	0	1.18301606178	523.0	353.0	515	357	1
2.7	2015_May_07_1207	s	s	2	5	SIC	9	RC	2	1	02VD 09VO 02VC 02MD 02MO 02MC 02RD 02RO	1	0	0.806309938431	334.0	-171.0	333	-166	1
2.7	2015_May_07_1207	s	s	2	5	SIC	10	ABS	2	0	02VD 02VO 10VC 02MD 02MO 02MC 02RD 02RO	0	1	1.67445898056	None	None	None	None	1
2.7	2015_May_07_1207	s	s	2	5	SIC	11	RC	1	0	02VD 02VO 02VC 02MD 02MO 09MC 02RD 02RO	1	0	0.941046953201	424.0	74.0	426	68	1
2.7	2015_May_07_1207	s	s	2	5	SIC	12	ABS	2	1	02VD 10VO 02VC 02MD 02MO 02MC 02RD 02RO	0	1	1.62399983406	None	None	None	None	1
2.7	2015_May_07_1207	s	s	2	5	SIC	13	ABS	1	0	02VD 02VO 02VC 02MD 02MO 10MC 02RD 02RO	0	1	1.86615014076	None	None	None	None	1
2.7	2015_May_07_1207	s	s	2	5	SIC	14	ABS	0	1	02VD 02VO 02VC 02MD 02MO 02MC 02RD 10RO	0	1	3.7932510376	None	None	None	None	1
2.7	2015_May_07_1207	s	s	2	5	SIC	15	ABS	1	1	02VD 02VO 02VC 02MD 10MO 02MC 02RD 02RO	0	1	1.91795182228	None	None	None	None	1
2.7	2015_May_07_1207	s	s	2	5	SIC	16	ABS	0	2	02VD 02VO 02VC 02MD 02MO 02MC 10RD 02RO	0	1	1.37653112411	None	None	None	None	1
2.7	2015_May_07_1207	s	s	2	5	SIC	17	RC	1	1	02VD 02VO 02VC 02MD 09MO 02MC 02RD 02RO	1	0	0.756254911423	-9.0	-90.0	0	-89	1
2.7	2015_May_07_1207	s	s	2	5	SIC	18	RC	2	2	09VD 02VO 02VC 02MD 02MO 02MC 02RD 02RO	1	0	0.665455102921	-32.0	-281.0	-31	-292	1
2.7	2015_May_07_1207	s	s	2	5	SIC	19	ABS	2	1	02VD 10VO 02VC 02MD 02MO 02MC 02RD 02RO	0	1	1.53575086594	None	None	None	None	1
2.7	2015_May_07_1207	s	s	2	5	SIC	20	ABS	1	2	02VD 02VO 02VC 10MD 02MO 02MC 02RD 02RO	0	1	1.16470003128	None	None	None	None	1
2.7	2015_May_07_1207	s	s	2	5	SIC	21	ABS	1	0	02VD 02VO 02VC 02MD 02MO 10MC 02RD 02RO	0	1	1.68283104897	None	None	None	None	1
2.7	2015_May_07_1207	s	s	2	5	SIC	22	RC	2	1	02VD 09VO 02VC 02MD 02MO 02MC 02RD 02RO	1	0	1.22719788551	208.0	-112.0	206	-111	1
2.7	2015_May_07_1207	s	s	2	5	SIC	23	RC	1	0	02VD 02VO 02VC 02MD 02MO 09MC 02RD 02RO	1	0	0.759821891785	-166.0	229.0	-169	230	1
2.7	2015_May_07_1207	s	s	2	5	SIC	24	RC	1	2	02VD 02VO 02VC 09MD 02MO 02MC 02RD 02RO	1	0	0.724316120148	82.0	-223.0	84	-226	1
2.7	2015_May_07_1207	s	s	2	5	SIC	25	ABS	2	0	02VD 02VO 10VC 02MD 02MO 02MC 02RD 02RO	0	1	1.80028581619	None	None	None	None	1
2.7	2015_May_07_1207	s	s	2	5	SIC	26	RC	0	1	02VD 02VO 02VC 02MD 02MO 02MC 02RD 09RO	1	0	1.43045401573	200.0	313.0	204	321	1
2.7	2015_May_07_1207	s	s	2	5	SIC	27	RC	0	2	02VD 02VO 02VC 02MD 02MO 02MC 09RD 02RO	1	0	0.62322807312	93.0	-32.0	101	-22	1
2.7	2015_May_07_1207	s	s	2	5	SIC	28	ABS	0	1	02VD 02VO 02VC 02MD 02MO 02MC 02RD 10RO	0	1	4.1605629921	None	None	None	None	1
2.7	2015_May_07_1207	s	s	2	5	SIC	29	ABS	2	2	10VD 02VO 02VC 02MD 02MO 02MC 02RD 02RO	0	1	1.34837698936	None	None	None	None	1
2.7	2015_May_07_1207	s	s	2	5	SIC	30	ABS	0	2	02VD 02VO 02VC 02MD 02MO 02MC 10RD 02RO	0	1	1.47092700005	None	None	None	None	1
2.7	2015_May_07_1207	s	s	2	5	SIC	31	RC	2	0	02VD 02VO 09VC 02MD 02MO 02MC 02RD 02RO	1	0	0.799758911133	-132.0	-114.0	-136	-123	1
2.7	2015_May_07_1207	s	s	2	5	SIC	32	ABS	1	1	02VD 02VO 02VC 02MD 10MO 02MC 02RD 02RO	0	1	1.38383889198	None	None	None	None	1
2.7	2015_May_07_1207	s	s	2	5	SIC	33	ABS	2	2	10VD 02VO 02VC 02MD 02MO 02MC 02RD 02RO	0	1	0.938345193863	None	None	None	None	1
2.7	2015_May_07_1207	s	s	2	5	SIC	34	ABS	0	1	02VD 02VO 02VC 02MD 02MO 02MC 02RD 10RO	0	1	3.49017119408	None	None	None	None	1
2.7	2015_May_07_1207	s	s	2	5	SIC	35	ABS	1	1	02VD 02VO 02VC 02MD 10MO 02MC 02RD 02RO	1	0	1.03517508507	None	None	473	7	0
2.7	2015_May_07_1207	s	s	2	5	SIC	36	RC	2	1	02VD 09VO 02VC 02MD 02MO 02MC 02RD 02RO	1	0	1.01781487465	443.0	189.0	447	195	1
2.7	2015_May_07_1207	s	s	2	5	SIC	37	RC	2	0	02VD 02VO 09VC 02MD 02MO 02MC 02RD 02RO	1	0	0.968219995499	-29.0	-197.0	-30	-196	1
2.7	2015_May_07_1207	s	s	2	5	SIC	38	RC	2	2	09VD 02VO 02VC 02MD 02MO 02MC 02RD 02RO	1	0	1.66809082031	-454.0	-188.0	-450	-188	1
2.7	2015_May_07_1207	s	s	2	5	SIC	39	RC	1	2	02VD 02VO 02VC 09MD 02MO 02MC 02RD 02RO	1	0	0.705668926239	-185.0	180.0	-177	184	1
2.7	2015_May_07_1207	s	s	2	5	SIC	40	ABS	2	0	02VD 02VO 10VC 02MD 02MO 02MC 02RD 02RO	0	1	1.85328412056	None	None	None	None	1
2.7	2015_May_07_1207	s	s	2	5	SIC	41	ABS	1	2	02VD 02VO 02VC 10MD 02MO 02MC 02RD 02RO	0	1	2.21898698807	None	None	None	None	1
2.7	2015_May_07_1207	s	s	2	5	SIC	42	ABS	1	0	02VD 02VO 02VC 02MD 02MO 10MC 02RD 02RO	0	1	3.09137606621	None	None	None	None	1
2.7	2015_May_07_1207	s	s	2	5	SIC	43	RC	0	1	02VD 02VO 02VC 02MD 02MO 02MC 02RD 09RO	1	0	0.865510940552	-59.0	-41.0	-62	-36	1
2.7	2015_May_07_1207	s	s	2	5	SIC	44	RC	1	0	02VD 02VO 02VC 02MD 02MO 09MC 02RD 02RO	0	1	2.18875312805	466.0	-391.0	None	None	0
2.7	2015_May_07_1207	s	s	2	5	SIC	45	RC	0	2	02VD 02VO 02VC 02MD 02MO 02MC 09RD 02RO	1	0	0.561816930771	-95.0	-8.0	-93	-16	1
2.7	2015_May_07_1207	s	s	2	5	SIC	46	ABS	0	2	02VD 02VO 02VC 02MD 02MO 02MC 10RD 02RO	0	1	1.60690116882	None	None	None	None	1
2.7	2015_May_07_1207	s	s	2	5	SIC	47	ABS	2	1	02VD 10VO 02VC 02MD 02MO 02MC 02RD 02RO	0	1	1.26245999336	None	None	None	None	1
2.7	2015_May_07_1207	s	s	2	5	SIC	48	RC	1	1	02VD 02VO 02VC 02MD 09MO 02MC 02RD 02RO	1	0	1.94964814186	320.0	-383.0	326	-392	1
2.7	2015_May_07_1207	s	s	2	5	SIC	49	RC	2	2	09VD 02VO 02VC 02MD 02MO 02MC 02RD 02RO	1	0	0.646761894226	-178.0	-21.0	-182	-26	1
2.7	2015_May_07_1207	s	s	2	5	SIC	50	ABS	1	1	02VD 02VO 02VC 02MD 10MO 02MC 02RD 02RO	0	1	1.41850304604	None	None	None	None	1
2.7	2015_May_07_1207	s	s	2	5	SIC	51	RC	1	2	02VD 02VO 02VC 09MD 02MO 02MC 02RD 02RO	1	0	0.740901947021	199.0	308.0	191	304	1
2.7	2015_May_07_1207	s	s	2	5	SIC	52	RC	0	2	02VD 02VO 02VC 02MD 02MO 02MC 09RD 02RO	1	0	0.952803134918	384.0	241.0	387	237	1
2.7	2015_May_07_1207	s	s	2	5	SIC	53	RC	0	1	02VD 02VO 02VC 02MD 02MO 02MC 02RD 09RO	1	0	1.16469812393	330.0	-276.0	325	-271	1
2.7	2015_May_07_1207	s	s	2	5	SIC	54	ABS	1	2	02VD 02VO 02VC 10MD 02MO 02MC 02RD 02RO	0	1	1.27058696747	None	None	None	None	1
2.7	2015_May_07_1207	s	s	2	5	SIC	55	ABS	2	0	02VD 02VO 10VC 02MD 02MO 02MC 02RD 02RO	0	1	1.44726991653	None	None	None	None	1
2.7	2015_May_07_1207	s	s	2	5	SIC	56	ABS	2	1	02VD 10VO 02VC 02MD 02MO 02MC 02RD 02RO	0	1	1.67766308784	None	None	None	None	1
2.7	2015_May_07_1207	s	s	2	5	SIC	57	ABS	0	1	02VD 02VO 02VC 02MD 02MO 02MC 02RD 10RO	0	1	3.63633298874	None	None	None	None	1
2.7	2015_May_07_1207	s	s	2	5	SIC	58	RC	2	0	02VD 02VO 09VC 02MD 02MO 02MC 02RD 02RO	1	0	0.623236179352	-182.0	146.0	-183	136	1
2.7	2015_May_07_1207	s	s	2	5	SIC	59	RC	1	0	02VD 02VO 02VC 02MD 02MO 09MC 02RD 02RO	1	0	0.808659791946	350.0	395.0	347	403	1
2.7	2015_May_07_1207	s	s	2	5	SIC	60	ABS	2	2	10VD 02VO 02VC 02MD 02MO 02MC 02RD 02RO	0	1	1.18446397781	None	None	None	None	1
2.7	2015_May_07_1207	s	s	2	5	SIC	61	ABS	1	0	02VD 02VO 02VC 02MD 02MO 10MC 02RD 02RO	0	1	1.23007702827	None	None	None	None	1
2.7	2015_May_07_1207	s	s	2	5	SIC	62	RC	2	1	02VD 09VO 02VC 02MD 02MO 02MC 02RD 02RO	1	0	1.04429221153	-228.0	-207.0	-222	-209	1
2.7	2015_May_07_1207	s	s	2	5	SIC	63	RC	1	1	02VD 02VO 02VC 02MD 09MO 02MC 02RD 02RO	1	0	0.702908039093	267.0	-119.0	268	-113	1
2.7	2015_May_07_1207	s	s	2	5	SIC	64	ABS	0	2	02VD 02VO 02VC 02MD 02MO 02MC 10RD 02RO	0	1	1.89950704575	None	None	None	None	1
2.7	2015_May_07_1207	s	s	2	5	SIC	65	ABS	2	0	02VD 02VO 10VC 02MD 02MO 02MC 02RD 02RO	0	1	2.10098099709	None	None	None	None	1
2.7	2015_May_07_1207	s	s	2	5	SIC	66	RC	2	1	02VD 09VO 02VC 02MD 02MO 02MC 02RD 02RO	1	0	0.700602054596	-350.0	-130.0	-346	-140	1
2.7	2015_May_07_1207	s	s	2	5	SIC	67	RC	1	0	02VD 02VO 02VC 02MD 02MO 09MC 02RD 02RO	1	0	0.973742961884	-56.0	54.0	-63	57	1
2.7	2015_May_07_1207	s	s	2	5	SIC	68	ABS	0	1	02VD 02VO 02VC 02MD 02MO 02MC 02RD 10RO	0	1	2.35352301598	None	None	None	None	1
2.7	2015_May_07_1207	s	s	2	5	SIC	69	RC	2	0	02VD 02VO 09VC 02MD 02MO 02MC 02RD 02RO	1	0	1.08225512505	370.0	284.0	366	280	1
2.7	2015_May_07_1207	s	s	2	5	SIC	70	ABS	1	0	02VD 02VO 02VC 02MD 02MO 10MC 02RD 02RO	0	1	1.85413503647	None	None	None	None	1
2.7	2015_May_07_1207	s	s	2	5	SIC	71	RC	0	2	02VD 02VO 02VC 02MD 02MO 02MC 09RD 02RO	1	0	0.905730962753	22.0	-114.0	24	-123	1
2.7	2015_May_07_1207	s	s	2	5	SIC	72	ABS	2	2	10VD 02VO 02VC 02MD 02MO 02MC 02RD 02RO	0	1	1.30593895912	None	None	None	None	1
2.7	2015_May_07_1207	s	s	2	5	SIC	73	ABS	1	1	02VD 02VO 02VC 02MD 10MO 02MC 02RD 02RO	0	1	2.21223092079	None	None	None	None	1
2.7	2015_May_07_1207	s	s	2	5	SIC	74	RC	1	1	02VD 02VO 02VC 02MD 09MO 02MC 02RD 02RO	1	0	0.676609992981	-266.0	-91.0	-267	-88	1
2.7	2015_May_07_1207	s	s	2	5	SIC	75	RC	0	1	02VD 02VO 02VC 02MD 02MO 02MC 02RD 09RO	1	0	0.623242139816	-264.0	-9.0	-258	-7	1
2.7	2015_May_07_1207	s	s	2	5	SIC	76	RC	1	2	02VD 02VO 02VC 09MD 02MO 02MC 02RD 02RO	1	0	0.771401882172	115.0	-201.0	121	-208	1
2.7	2015_May_07_1207	s	s	2	5	SIC	77	RC	2	2	09VD 02VO 02VC 02MD 02MO 02MC 02RD 02RO	1	0	0.48233795166	-23.0	-50.0	-28	-49	1
2.7	2015_May_07_1207	s	s	2	5	SIC	78	ABS	0	2	02VD 02VO 02VC 02MD 02MO 02MC 10RD 02RO	0	1	2.04742693901	None	None	None	None	1
2.7	2015_May_07_1207	s	s	2	5	SIC	79	ABS	2	1	02VD 10VO 02VC 02MD 02MO 02MC 02RD 02RO	0	1	1.43177604675	None	None	None	None	1
2.7	2015_May_07_1207	s	s	2	5	SIC	80	ABS	1	2	02VD 02VO 02VC 10MD 02MO 02MC 02RD 02RO	0	1	1.26403594017	None	None	None	None	1
2.7	2015_May_07_1207	s	s	2	5	SIC	81	RC	2	0	02VD 02VO 09VC 02MD 02MO 02MC 02RD 02RO	1	0	1.64461278915	-288.0	409.0	-283	411	1
2.7	2015_May_07_1207	s	s	2	5	SIC	82	ABS	0	1	02VD 02VO 02VC 02MD 02MO 02MC 02RD 10RO	0	1	3.11255288124	None	None	None	None	1
2.7	2015_May_07_1207	s	s	2	5	SIC	83	ABS	2	2	10VD 02VO 02VC 02MD 02MO 02MC 02RD 02RO	0	1	1.55966806412	None	None	None	None	1
2.7	2015_May_07_1207	s	s	2	5	SIC	84	ABS	1	2	02VD 02VO 02VC 10MD 02MO 02MC 02RD 02RO	0	1	1.19997000694	None	None	None	None	1
2.7	2015_May_07_1207	s	s	2	5	SIC	85	RC	0	2	02VD 02VO 02VC 02MD 02MO 02MC 09RD 02RO	1	0	1.4435338974	433.0	-160.0	429	-153	1
2.7	2015_May_07_1207	s	s	2	5	SIC	86	RC	1	2	02VD 02VO 02VC 09MD 02MO 02MC 02RD 02RO	1	0	0.999861001968	57.0	-183.0	57	-185	1
2.7	2015_May_07_1207	s	s	2	5	SIC	87	ABS	2	0	02VD 02VO 10VC 02MD 02MO 02MC 02RD 02RO	0	1	1.49832820892	None	None	None	None	1
2.7	2015_May_07_1207	s	s	2	5	SIC	88	RC	2	1	02VD 09VO 02VC 02MD 02MO 02MC 02RD 02RO	1	0	0.835079193115	286.0	-119.0	284	-114	1
2.7	2015_May_07_1207	s	s	2	5	SIC	89	ABS	2	1	02VD 10VO 02VC 02MD 02MO 02MC 02RD 02RO	0	1	1.3483710289	None	None	None	None	1
2.7	2015_May_07_1207	s	s	2	5	SIC	90	ABS	1	1	02VD 02VO 02VC 02MD 10MO 02MC 02RD 02RO	0	1	2.0120010376	None	None	None	None	1
2.7	2015_May_07_1207	s	s	2	5	SIC	91	RC	2	2	09VD 02VO 02VC 02MD 02MO 02MC 02RD 02RO	1	0	0.924890041351	429.0	95.0	423	94	1
2.7	2015_May_07_1207	s	s	2	5	SIC	92	RC	1	1	02VD 02VO 02VC 02MD 09MO 02MC 02RD 02RO	1	0	0.897579908371	-261.0	377.0	-263	381	1
2.7	2015_May_07_1207	s	s	2	5	SIC	93	RC	0	1	02VD 02VO 02VC 02MD 02MO 02MC 02RD 09RO	1	0	0.760365009308	-258.0	203.0	-264	201	1
2.7	2015_May_07_1207	s	s	2	5	SIC	94	ABS	1	0	02VD 02VO 02VC 02MD 02MO 10MC 02RD 02RO	0	1	1.94145894051	None	None	None	None	1
2.7	2015_May_07_1207	s	s	2	5	SIC	95	RC	1	0	02VD 02VO 02VC 02MD 02MO 09MC 02RD 02RO	1	0	1.05335021019	-298.0	-97.0	-295	-102	1
2.7	2015_May_07_1207	s	s	2	5	SIC	96	ABS	0	2	02VD 02VO 02VC 02MD 02MO 02MC 10RD 02RO	0	1	1.79539513588	None	None	None	None	1
2.7	2015_May_07_1207	s	s	2	5	SIC	97	RC	2	1	02VD 09VO 02VC 02MD 02MO 02MC 02RD 02RO	1	0	0.717381954193	376.0	-59.0	383	-55	1
2.7	2015_May_07_1207	s	s	2	5	SIC	98	ABS	2	2	10VD 02VO 02VC 02MD 02MO 02MC 02RD 02RO	0	1	1.43534612656	None	None	None	None	1
2.7	2015_May_07_1207	s	s	2	5	SIC	99	ABS	2	1	02VD 10VO 02VC 02MD 02MO 02MC 02RD 02RO	0	1	1.97241783142	None	None	None	None	1
2.7	2015_May_07_1207	s	s	2	5	SIC	100	RC	2	2	09VD 02VO 02VC 02MD 02MO 02MC 02RD 02RO	1	0	0.679400205612	-377.0	-321.0	-381	-320	1
2.7	2015_May_07_1207	s	s	2	5	SIC	101	ABS	0	1	02VD 02VO 02VC 02MD 02MO 02MC 02RD 10RO	0	1	3.67850804329	None	None	None	None	1
2.7	2015_May_07_1207	s	s	2	5	SIC	102	RC	1	2	02VD 02VO 02VC 09MD 02MO 02MC 02RD 02RO	1	0	1.34733200073	-405.0	-370.0	-397	-373	1
2.7	2015_May_07_1207	s	s	2	5	SIC	103	RC	1	1	02VD 02VO 02VC 02MD 09MO 02MC 02RD 02RO	1	0	0.771306991577	161.0	49.0	160	56	1
2.7	2015_May_07_1207	s	s	2	5	SIC	104	RC	1	0	02VD 02VO 02VC 02MD 02MO 09MC 02RD 02RO	1	0	0.59968996048	-218.0	144.0	-219	140	1
2.7	2015_May_07_1207	s	s	2	5	SIC	105	ABS	1	1	02VD 02VO 02VC 02MD 10MO 02MC 02RD 02RO	0	1	1.8391828537	None	None	None	None	1
2.7	2015_May_07_1207	s	s	2	5	SIC	106	ABS	1	2	02VD 02VO 02VC 10MD 02MO 02MC 02RD 02RO	0	1	1.79798817635	None	None	None	None	1
2.7	2015_May_07_1207	s	s	2	5	SIC	107	ABS	2	0	02VD 02VO 10VC 02MD 02MO 02MC 02RD 02RO	0	1	1.45559000969	None	None	None	None	1
2.7	2015_May_07_1207	s	s	2	5	SIC	108	RC	2	0	02VD 02VO 09VC 02MD 02MO 02MC 02RD 02RO	1	0	1.19693803787	265.0	-363.0	275	-356	1
2.7	2015_May_07_1207	s	s	2	5	SIC	109	ABS	1	0	02VD 02VO 02VC 02MD 02MO 10MC 02RD 02RO	0	1	1.65894699097	None	None	None	None	1
2.7	2015_May_07_1207	s	s	2	5	SIC	110	ABS	0	2	02VD 02VO 02VC 02MD 02MO 02MC 10RD 02RO	0	1	2.07716321945	None	None	None	None	1
2.7	2015_May_07_1207	s	s	2	5	SIC	111	RC	0	1	02VD 02VO 02VC 02MD 02MO 02MC 02RD 09RO	1	0	1.35302996635	-165.0	326.0	-175	324	1
2.7	2015_May_07_1207	s	s	2	5	SIC	112	RC	0	2	02VD 02VO 02VC 02MD 02MO 02MC 09RD 02RO	1	0	0.796147823334	48.0	396.0	57	397	1
2.7	2015_May_07_1207	s	s	2	5	SIC	113	ABS	0	1	02VD 02VO 02VC 02MD 02MO 02MC 02RD 10RO	0	1	3.40716695786	None	None	None	None	1
2.7	2015_May_07_1207	s	s	2	5	SIC	114	RC	1	0	02VD 02VO 02VC 02MD 02MO 09MC 02RD 02RO	1	0	0.988042831421	367.0	153.0	361	154	1
2.7	2015_May_07_1207	s	s	2	5	SIC	115	RC	1	1	02VD 02VO 02VC 02MD 09MO 02MC 02RD 02RO	1	0	1.05882382393	-477.0	323.0	-466	325	1
2.7	2015_May_07_1207	s	s	2	5	SIC	116	ABS	1	1	02VD 02VO 02VC 02MD 10MO 02MC 02RD 02RO	0	1	1.47433185577	None	None	None	None	1
2.7	2015_May_07_1207	s	s	2	5	SIC	117	ABS	1	2	02VD 02VO 02VC 10MD 02MO 02MC 02RD 02RO	0	1	1.74146008492	None	None	None	None	1
2.7	2015_May_07_1207	s	s	2	5	SIC	118	ABS	1	0	02VD 02VO 02VC 02MD 02MO 10MC 02RD 02RO	0	1	1.72976303101	None	None	None	None	1
2.7	2015_May_07_1207	s	s	2	5	SIC	119	RC	2	0	02VD 02VO 09VC 02MD 02MO 02MC 02RD 02RO	1	0	1.14790892601	287.0	45.0	285	53	1
2.7	2015_May_07_1207	s	s	2	5	SIC	120	RC	0	2	02VD 02VO 02VC 02MD 02MO 02MC 09RD 02RO	1	0	0.611479997635	-162.0	148.0	-160	148	1
2.7	2015_May_07_1207	s	s	2	5	SIC	121	ABS	2	2	10VD 02VO 02VC 02MD 02MO 02MC 02RD 02RO	0	1	2.10087418556	None	None	None	None	1
2.7	2015_May_07_1207	s	s	2	5	SIC	122	RC	0	1	02VD 02VO 02VC 02MD 02MO 02MC 02RD 09RO	1	0	1.0234708786	-526.0	217.0	-538	219	1
2.7	2015_May_07_1207	s	s	2	5	SIC	123	ABS	2	0	02VD 02VO 10VC 02MD 02MO 02MC 02RD 02RO	0	1	1.44716787338	None	None	None	None	1
2.7	2015_May_07_1207	s	s	2	5	SIC	124	ABS	2	1	02VD 10VO 02VC 02MD 02MO 02MC 02RD 02RO	0	1	1.50108408928	None	None	None	None	1
2.7	2015_May_07_1207	s	s	2	5	SIC	125	RC	1	2	02VD 02VO 02VC 09MD 02MO 02MC 02RD 02RO	1	0	1.58551001549	-427.0	-305.0	-428	-305	1
2.7	2015_May_07_1207	s	s	2	5	SIC	126	ABS	0	2	02VD 02VO 02VC 02MD 02MO 02MC 10RD 02RO	0	1	1.45384001732	None	None	None	None	1
2.7	2015_May_07_1207	s	s	2	5	SIC	127	RC	2	1	02VD 09VO 02VC 02MD 02MO 02MC 02RD 02RO	1	0	1.12448215485	-80.0	-325.0	-79	-322	1
2.7	2015_May_07_1207	s	s	2	5	SIC	128	RC	2	2	09VD 02VO 02VC 02MD 02MO 02MC 02RD 02RO	1	0	1.05131411552	-140.0	-198.0	-136	-197	1
2.7	2015_May_07_1207	s	s	2	5	SIC	129	RC	2	1	02VD 09VO 02VC 02MD 02MO 02MC 02RD 02RO	1	0	0.794761896133	63.0	-151.0	63	-146	1
2.7	2015_May_07_1207	s	s	2	5	SIC	130	ABS	0	2	02VD 02VO 02VC 02MD 02MO 02MC 10RD 02RO	0	1	1.83078289032	None	None	None	None	1
2.7	2015_May_07_1207	s	s	2	5	SIC	131	ABS	1	1	02VD 02VO 02VC 02MD 10MO 02MC 02RD 02RO	0	1	2.6892490387	None	None	None	None	1
2.7	2015_May_07_1207	s	s	2	5	SIC	132	ABS	0	1	02VD 02VO 02VC 02MD 02MO 02MC 02RD 10RO	0	1	2.8714158535	None	None	None	None	1
2.7	2015_May_07_1207	s	s	2	5	SIC	133	RC	1	2	02VD 02VO 02VC 09MD 02MO 02MC 02RD 02RO	1	0	0.964602947235	292.0	68.0	289	65	1
2.7	2015_May_07_1207	s	s	2	5	SIC	134	RC	1	1	02VD 02VO 02VC 02MD 09MO 02MC 02RD 02RO	1	0	0.611345052719	-33.0	188.0	-28	195	1
2.7	2015_May_07_1207	s	s	2	5	SIC	135	ABS	2	2	10VD 02VO 02VC 02MD 02MO 02MC 02RD 02RO	0	1	1.63552904129	None	None	None	None	1
2.7	2015_May_07_1207	s	s	2	5	SIC	136	RC	2	0	02VD 02VO 09VC 02MD 02MO 02MC 02RD 02RO	1	0	0.877245187759	200.0	356.0	205	360	1
2.7	2015_May_07_1207	s	s	2	5	SIC	137	RC	1	0	02VD 02VO 02VC 02MD 02MO 09MC 02RD 02RO	1	0	0.736061096191	86.0	353.0	89	349	1
2.7	2015_May_07_1207	s	s	2	5	SIC	138	RC	2	2	09VD 02VO 02VC 02MD 02MO 02MC 02RD 02RO	1	0	0.559653043747	272.0	244.0	268	240	1
2.7	2015_May_07_1207	s	s	2	5	SIC	139	ABS	1	0	02VD 02VO 02VC 02MD 02MO 10MC 02RD 02RO	0	1	1.70126509666	None	None	None	None	1
2.7	2015_May_07_1207	s	s	2	5	SIC	140	RC	0	2	02VD 02VO 02VC 02MD 02MO 02MC 09RD 02RO	1	0	0.788024902344	-314.0	192.0	-315	189	1
2.7	2015_May_07_1207	s	s	2	5	SIC	141	ABS	2	0	02VD 02VO 10VC 02MD 02MO 02MC 02RD 02RO	0	1	1.40845894814	None	None	None	None	1
2.7	2015_May_07_1207	s	s	2	5	SIC	142	ABS	2	1	02VD 10VO 02VC 02MD 02MO 02MC 02RD 02RO	0	1	1.11758184433	None	None	None	None	1
2.7	2015_May_07_1207	s	s	2	5	SIC	143	ABS	1	2	02VD 02VO 02VC 10MD 02MO 02MC 02RD 02RO	0	1	1.47066497803	None	None	None	None	1
2.7	2015_May_07_1207	s	s	2	5	SIC	144	RC	0	1	02VD 02VO 02VC 02MD 02MO 02MC 02RD 09RO	1	0	2.74249505997	441.0	354.0	442	360	1
2.7	2015_May_07_1207	s	s	2	5	SIC	145	RC	2	1	02VD 09VO 02VC 02MD 02MO 02MC 02RD 02RO	1	0	1.07721590996	-179.0	-33.0	-177	-26	1
2.7	2015_May_07_1207	s	s	2	5	SIC	146	ABS	0	1	02VD 02VO 02VC 02MD 02MO 02MC 02RD 10RO	0	1	3.72707414627	None	None	None	None	1
2.7	2015_May_07_1207	s	s	2	5	SIC	147	ABS	1	0	02VD 02VO 02VC 02MD 02MO 10MC 02RD 02RO	0	1	1.72407484055	None	None	None	None	1
2.7	2015_May_07_1207	s	s	2	5	SIC	148	ABS	2	0	02VD 02VO 10VC 02MD 02MO 02MC 02RD 02RO	0	1	1.16468501091	None	None	None	None	1
2.7	2015_May_07_1207	s	s	2	5	SIC	149	ABS	1	2	02VD 02VO 02VC 10MD 02MO 02MC 02RD 02RO	0	1	1.16114115715	None	None	None	None	1
2.7	2015_May_07_1207	s	s	2	5	SIC	150	ABS	2	1	02VD 10VO 02VC 02MD 02MO 02MC 02RD 02RO	0	1	2.1958630085	None	None	None	None	1
2.7	2015_May_07_1207	s	s	2	5	SIC	151	RC	1	1	02VD 02VO 02VC 02MD 09MO 02MC 02RD 02RO	1	0	0.655816078186	-252.0	48.0	-242	57	1
2.7	2015_May_07_1207	s	s	2	5	SIC	152	RC	1	0	02VD 02VO 02VC 02MD 02MO 09MC 02RD 02RO	1	0	0.759579896927	91.0	278.0	90	274	1
2.7	2015_May_07_1207	s	s	2	5	SIC	153	RC	2	2	09VD 02VO 02VC 02MD 02MO 02MC 02RD 02RO	1	0	0.761786937714	487.0	374.0	486	380	1
2.7	2015_May_07_1207	s	s	2	5	SIC	154	RC	2	0	02VD 02VO 09VC 02MD 02MO 02MC 02RD 02RO	1	0	0.599687099457	93.0	274.0	101	275	1
2.7	2015_May_07_1207	s	s	2	5	SIC	155	ABS	0	2	02VD 02VO 02VC 02MD 02MO 02MC 10RD 02RO	0	1	1.75326704979	None	None	None	None	1
2.7	2015_May_07_1207	s	s	2	5	SIC	156	RC	0	2	02VD 02VO 02VC 02MD 02MO 02MC 09RD 02RO	1	0	0.599690914154	-314.0	169.0	-303	169	1
2.7	2015_May_07_1207	s	s	2	5	SIC	157	ABS	1	1	02VD 02VO 02VC 02MD 10MO 02MC 02RD 02RO	0	1	1.94784212112	None	None	None	None	1
2.7	2015_May_07_1207	s	s	2	5	SIC	158	RC	1	2	02VD 02VO 02VC 09MD 02MO 02MC 02RD 02RO	1	0	0.700663805008	315.0	282.0	313	288	1
2.7	2015_May_07_1207	s	s	2	5	SIC	159	ABS	2	2	10VD 02VO 02VC 02MD 02MO 02MC 02RD 02RO	0	1	1.32422804832	None	None	None	None	1
2.7	2015_May_07_1207	s	s	2	5	SIC	160	RC	0	1	02VD 02VO 02VC 02MD 02MO 02MC 02RD 09RO	1	0	2.35018396378	281.0	-276.0	287	-269	1
2.7	2015_May_07_1207	s	s	2	5	SIC	161	ABS	0	2	02VD 02VO 02VC 02MD 02MO 02MC 10RD 02RO	0	1	1.82375907898	None	None	None	None	1
2.7	2015_May_07_1207	s	s	2	5	SIC	162	RC	2	2	09VD 02VO 02VC 02MD 02MO 02MC 02RD 02RO	1	0	0.712259054184	-228.0	242.0	-224	249	1
2.7	2015_May_07_1207	s	s	2	5	SIC	163	RC	2	0	02VD 02VO 09VC 02MD 02MO 02MC 02RD 02RO	1	0	0.83517408371	324.0	175.0	330	170	1
2.7	2015_May_07_1207	s	s	2	5	SIC	164	RC	0	2	02VD 02VO 02VC 02MD 02MO 02MC 09RD 02RO	1	0	1.11241412163	423.0	60.0	425	56	1
2.7	2015_May_07_1207	s	s	2	5	SIC	165	ABS	2	2	10VD 02VO 02VC 02MD 02MO 02MC 02RD 02RO	0	1	2.06644797325	None	None	None	None	1
2.7	2015_May_07_1207	s	s	2	5	SIC	166	ABS	2	1	02VD 10VO 02VC 02MD 02MO 02MC 02RD 02RO	0	1	1.51213216782	None	None	None	None	1
2.7	2015_May_07_1207	s	s	2	5	SIC	167	RC	1	1	02VD 02VO 02VC 02MD 09MO 02MC 02RD 02RO	1	0	1.4118180275	-366.0	382.0	-364	367	1
2.7	2015_May_07_1207	s	s	2	5	SIC	168	RC	0	1	02VD 02VO 02VC 02MD 02MO 02MC 02RD 09RO	1	0	1.44226002693	513.0	308.0	507	313	1
2.7	2015_May_07_1207	s	s	2	5	SIC	169	ABS	1	1	02VD 02VO 02VC 02MD 10MO 02MC 02RD 02RO	0	1	2.01907396317	None	None	None	None	1
2.7	2015_May_07_1207	s	s	2	5	SIC	170	RC	1	2	02VD 02VO 02VC 09MD 02MO 02MC 02RD 02RO	1	0	2.05416989326	515.0	179.0	514	185	1
2.7	2015_May_07_1207	s	s	2	5	SIC	171	ABS	2	0	02VD 02VO 10VC 02MD 02MO 02MC 02RD 02RO	0	1	1.56861114502	None	None	None	None	1
2.7	2015_May_07_1207	s	s	2	5	SIC	172	ABS	0	1	02VD 02VO 02VC 02MD 02MO 02MC 02RD 10RO	0	1	2.74233698845	None	None	None	None	1
2.7	2015_May_07_1207	s	s	2	5	SIC	173	RC	1	0	02VD 02VO 02VC 02MD 02MO 09MC 02RD 02RO	1	0	0.761301994324	194.0	3.0	187	1	1
2.7	2015_May_07_1207	s	s	2	5	SIC	174	ABS	1	2	02VD 02VO 02VC 10MD 02MO 02MC 02RD 02RO	0	1	1.68252205849	None	None	None	None	1
2.7	2015_May_07_1207	s	s	2	5	SIC	175	ABS	1	0	02VD 02VO 02VC 02MD 02MO 10MC 02RD 02RO	0	1	2.20884084702	None	None	None	None	1
2.7	2015_May_07_1207	s	s	2	5	SIC	176	RC	2	1	02VD 09VO 02VC 02MD 02MO 02MC 02RD 02RO	1	0	0.664824008942	-208.0	157.0	-205	151	1
2.7	2015_May_07_1207	s	s	2	5	SIC	177	RC	0	2	02VD 02VO 02VC 02MD 02MO 02MC 09RD 02RO	1	0	1.15292191505	375.0	371.0	367	365	1
2.7	2015_May_07_1207	s	s	2	5	SIC	178	ABS	0	2	02VD 02VO 02VC 02MD 02MO 02MC 10RD 02RO	0	1	2.3888630867	None	None	None	None	1
2.7	2015_May_07_1207	s	s	2	5	SIC	179	RC	2	0	02VD 02VO 09VC 02MD 02MO 02MC 02RD 02RO	1	0	1.25364685059	-263.0	-368.0	-254	-368	1
2.7	2015_May_07_1207	s	s	2	5	SIC	180	RC	1	2	02VD 02VO 02VC 09MD 02MO 02MC 02RD 02RO	1	0	1.01854395866	-429.0	63.0	-419	61	1
2.7	2015_May_07_1207	s	s	2	5	SIC	181	ABS	2	2	10VD 02VO 02VC 02MD 02MO 02MC 02RD 02RO	0	1	1.32985401154	None	None	None	None	1
2.7	2015_May_07_1207	s	s	2	5	SIC	182	ABS	0	1	02VD 02VO 02VC 02MD 02MO 02MC 02RD 10RO	0	1	3.94257593155	None	None	None	None	1
2.7	2015_May_07_1207	s	s	2	5	SIC	183	RC	1	0	02VD 02VO 02VC 02MD 02MO 09MC 02RD 02RO	1	0	0.841930866241	-138.0	330.0	-139	335	1
2.7	2015_May_07_1207	s	s	2	5	SIC	184	ABS	1	0	02VD 02VO 02VC 02MD 02MO 10MC 02RD 02RO	0	1	3.43133497238	None	None	None	None	1
2.7	2015_May_07_1207	s	s	2	5	SIC	185	RC	2	2	09VD 02VO 02VC 02MD 02MO 02MC 02RD 02RO	1	0	0.750239133835	-270.0	100.0	-277	99	1
2.7	2015_May_07_1207	s	s	2	5	SIC	186	RC	1	1	02VD 02VO 02VC 02MD 09MO 02MC 02RD 02RO	1	0	0.947290182114	-529.0	215.0	-534	217	1
2.7	2015_May_07_1207	s	s	2	5	SIC	187	RC	0	1	02VD 02VO 02VC 02MD 02MO 02MC 02RD 09RO	1	0	1.83071494102	52.0	-298.0	58	-291	1
2.7	2015_May_07_1207	s	s	2	5	SIC	188	ABS	2	0	02VD 02VO 10VC 02MD 02MO 02MC 02RD 02RO	0	1	2.01213598251	None	None	None	None	1
2.7	2015_May_07_1207	s	s	2	5	SIC	189	ABS	1	2	02VD 02VO 02VC 10MD 02MO 02MC 02RD 02RO	0	1	1.1882250309	None	None	None	None	1
2.7	2015_May_07_1207	s	s	2	5	SIC	190	ABS	2	1	02VD 10VO 02VC 02MD 02MO 02MC 02RD 02RO	0	1	1.63147807121	None	None	None	None	1
2.7	2015_May_07_1207	s	s	2	5	SIC	191	ABS	1	1	02VD 02VO 02VC 02MD 10MO 02MC 02RD 02RO	0	1	1.25929117203	None	None	None	None	1
2.7	2015_May_07_1207	s	s	2	5	SIC	192	RC	2	1	02VD 09VO 02VC 02MD 02MO 02MC 02RD 02RO	1	0	1.37693190575	423.0	-375.0	425	-383	1
2.7	2015_May_07_1207	s	s	2	5	SIC	193	ABS	0	2	02VD 02VO 02VC 02MD 02MO 02MC 10RD 02RO	0	1	1.19994616508	None	None	None	None	1
2.7	2015_May_07_1207	s	s	2	5	SIC	194	RC	1	2	02VD 02VO 02VC 09MD 02MO 02MC 02RD 02RO	1	0	1.09775710106	506.0	-84.0	505	-77	1
2.7	2015_May_07_1207	s	s	2	5	SIC	195	ABS	1	1	02VD 02VO 02VC 02MD 10MO 02MC 02RD 02RO	0	1	1.89139294624	None	None	None	None	1
2.7	2015_May_07_1207	s	s	2	5	SIC	196	ABS	2	2	10VD 02VO 02VC 02MD 02MO 02MC 02RD 02RO	0	1	1.08906817436	None	None	None	None	1
2.7	2015_May_07_1207	s	s	2	5	SIC	197	RC	0	2	02VD 02VO 02VC 02MD 02MO 02MC 09RD 02RO	0	1	1.37654995918	-505.0	-397.0	None	None	0
2.7	2015_May_07_1207	s	s	2	5	SIC	198	ABS	1	2	02VD 02VO 02VC 10MD 02MO 02MC 02RD 02RO	0	1	1.4776160717	None	None	None	None	1
2.7	2015_May_07_1207	s	s	2	5	SIC	199	RC	2	0	02VD 02VO 09VC 02MD 02MO 02MC 02RD 02RO	1	0	0.835139989853	-307.0	340.0	-311	334	1
2.7	2015_May_07_1207	s	s	2	5	SIC	200	ABS	1	0	02VD 02VO 02VC 02MD 02MO 10MC 02RD 02RO	0	1	1.77170085907	None	None	None	None	1
2.7	2015_May_07_1207	s	s	2	5	SIC	201	RC	2	2	09VD 02VO 02VC 02MD 02MO 02MC 02RD 02RO	1	0	1.01844906807	384.0	-4.0	393	-3	1
2.7	2015_May_07_1207	s	s	2	5	SIC	202	RC	2	1	02VD 09VO 02VC 02MD 02MO 02MC 02RD 02RO	1	0	1.07746505737	155.0	336.0	153	343	1
2.7	2015_May_07_1207	s	s	2	5	SIC	203	ABS	2	1	02VD 10VO 02VC 02MD 02MO 02MC 02RD 02RO	0	1	1.62393188477	None	None	None	None	1
2.7	2015_May_07_1207	s	s	2	5	SIC	204	RC	1	0	02VD 02VO 02VC 02MD 02MO 09MC 02RD 02RO	1	0	0.847285985947	433.0	117.0	438	111	1
2.7	2015_May_07_1207	s	s	2	5	SIC	205	RC	1	1	02VD 02VO 02VC 02MD 09MO 02MC 02RD 02RO	1	0	1.16464686394	-67.0	-165.0	-66	-156	1
2.7	2015_May_07_1207	s	s	2	5	SIC	206	ABS	0	1	02VD 02VO 02VC 02MD 02MO 02MC 02RD 10RO	0	1	2.97734308243	None	None	None	None	1
2.7	2015_May_07_1207	s	s	2	5	SIC	207	RC	0	1	02VD 02VO 02VC 02MD 02MO 02MC 02RD 09RO	0	1	2.6360039711	340.0	173.0	None	None	0
2.7	2015_May_07_1207	s	s	2	5	SIC	208	ABS	2	0	02VD 02VO 10VC 02MD 02MO 02MC 02RD 02RO	0	1	2.07094597816	None	None	None	None	1
2.7	2015_May_07_1207	s	s	2	5	SIC	209	ABS	1	2	02VD 02VO 02VC 10MD 02MO 02MC 02RD 02RO	0	1	1.57160115242	None	None	None	None	1
2.7	2015_May_07_1207	s	s	2	5	SIC	210	RC	2	1	02VD 09VO 02VC 02MD 02MO 02MC 02RD 02RO	1	0	0.764451980591	303.0	354.0	308	349	1
2.7	2015_May_07_1207	s	s	2	5	SIC	211	RC	2	2	09VD 02VO 02VC 02MD 02MO 02MC 02RD 02RO	1	0	0.587941884995	77.0	164.0	83	166	1
2.7	2015_May_07_1207	s	s	2	5	SIC	212	ABS	2	0	02VD 02VO 10VC 02MD 02MO 02MC 02RD 02RO	0	1	1.17640089989	None	None	None	None	1
2.7	2015_May_07_1207	s	s	2	5	SIC	213	ABS	0	2	02VD 02VO 02VC 02MD 02MO 02MC 10RD 02RO	0	1	1.61877083778	None	None	None	None	1
2.7	2015_May_07_1207	s	s	2	5	SIC	214	ABS	2	1	02VD 10VO 02VC 02MD 02MO 02MC 02RD 02RO	0	1	1.52956914902	None	None	None	None	1
2.7	2015_May_07_1207	s	s	2	5	SIC	215	ABS	0	1	02VD 02VO 02VC 02MD 02MO 02MC 02RD 10RO	0	1	2.94567584991	None	None	None	None	1
2.7	2015_May_07_1207	s	s	2	5	SIC	216	ABS	1	1	02VD 02VO 02VC 02MD 10MO 02MC 02RD 02RO	0	1	2.17198204994	None	None	None	None	1
2.7	2015_May_07_1207	s	s	2	5	SIC	217	ABS	1	0	02VD 02VO 02VC 02MD 02MO 10MC 02RD 02RO	0	1	1.44244408607	None	None	None	None	1
2.7	2015_May_07_1207	s	s	2	5	SIC	218	RC	1	1	02VD 02VO 02VC 02MD 09MO 02MC 02RD 02RO	1	0	0.571074962616	-133.0	49.0	-131	53	1
2.7	2015_May_07_1207	s	s	2	5	SIC	219	RC	2	0	02VD 02VO 09VC 02MD 02MO 02MC 02RD 02RO	1	0	0.917440891266	-382.0	179.0	-382	184	1
2.7	2015_May_07_1207	s	s	2	5	SIC	220	RC	1	0	02VD 02VO 02VC 02MD 02MO 09MC 02RD 02RO	1	0	0.935810804367	441.0	122.0	440	117	1
2.7	2015_May_07_1207	s	s	2	5	SIC	221	RC	1	2	02VD 02VO 02VC 09MD 02MO 02MC 02RD 02RO	1	0	0.952917098999	-441.0	346.0	-437	350	1
2.7	2015_May_07_1207	s	s	2	5	SIC	222	RC	0	1	02VD 02VO 02VC 02MD 02MO 02MC 02RD 09RO	1	0	2.08943605423	-91.0	-315.0	-86	-308	1
2.7	2015_May_07_1207	s	s	2	5	SIC	223	ABS	2	2	10VD 02VO 02VC 02MD 02MO 02MC 02RD 02RO	0	1	1.61195707321	None	None	None	None	1
2.7	2015_May_07_1207	s	s	2	5	SIC	224	RC	0	2	02VD 02VO 02VC 02MD 02MO 02MC 09RD 02RO	1	0	0.670350074768	-296.0	67.0	-285	67	1
2.7	2015_May_07_1207	s	s	2	5	SIC	225	RC	1	2	02VD 02VO 02VC 09MD 02MO 02MC 02RD 02RO	1	0	1.17641305923	372.0	-161.0	365	-159	1
2.7	2015_May_07_1207	s	s	2	5	SIC	226	ABS	1	1	02VD 02VO 02VC 02MD 10MO 02MC 02RD 02RO	0	1	2.2660009861	None	None	None	None	1
2.7	2015_May_07_1207	s	s	2	5	SIC	227	RC	1	1	02VD 02VO 02VC 02MD 09MO 02MC 02RD 02RO	1	0	1.3530061245	-521.0	284.0	-522	287	1
2.7	2015_May_07_1207	s	s	2	5	SIC	228	ABS	0	1	02VD 02VO 02VC 02MD 02MO 02MC 02RD 10RO	0	1	3.10421991348	None	None	None	None	1
2.7	2015_May_07_1207	s	s	2	5	SIC	229	RC	0	2	02VD 02VO 02VC 02MD 02MO 02MC 09RD 02RO	1	0	2.27783799171	357.0	-288.0	354	-285	1
2.7	2015_May_07_1207	s	s	2	5	SIC	230	RC	1	0	02VD 02VO 02VC 02MD 02MO 09MC 02RD 02RO	1	0	1.19233608246	-81.0	257.0	-80	256	1
2.7	2015_May_07_1207	s	s	2	5	SIC	231	RC	2	1	02VD 09VO 02VC 02MD 02MO 02MC 02RD 02RO	1	0	1.26494193077	333.0	-303.0	327	-299	1
2.7	2015_May_07_1207	s	s	2	5	SIC	232	RC	0	1	02VD 02VO 02VC 02MD 02MO 02MC 02RD 09RO	1	0	1.22354006767	-315.0	238.0	-309	241	1
2.7	2015_May_07_1207	s	s	2	5	SIC	233	ABS	1	2	02VD 02VO 02VC 10MD 02MO 02MC 02RD 02RO	0	1	1.47665309906	None	None	None	None	1
2.7	2015_May_07_1207	s	s	2	5	SIC	234	ABS	2	1	02VD 10VO 02VC 02MD 02MO 02MC 02RD 02RO	0	1	1.84209799767	None	None	None	None	1
2.7	2015_May_07_1207	s	s	2	5	SIC	235	RC	2	0	02VD 02VO 09VC 02MD 02MO 02MC 02RD 02RO	1	0	0.995844125748	-482.0	-186.0	-481	-188	1
2.7	2015_May_07_1207	s	s	2	5	SIC	236	ABS	2	0	02VD 02VO 10VC 02MD 02MO 02MC 02RD 02RO	0	1	1.21840715408	None	None	None	None	1
2.7	2015_May_07_1207	s	s	2	5	SIC	237	ABS	1	0	02VD 02VO 02VC 02MD 02MO 10MC 02RD 02RO	0	1	1.83068203926	None	None	None	None	1
2.7	2015_May_07_1207	s	s	2	5	SIC	238	ABS	2	2	10VD 02VO 02VC 02MD 02MO 02MC 02RD 02RO	0	1	1.87802100182	None	None	None	None	1
2.7	2015_May_07_1207	s	s	2	5	SIC	239	RC	2	2	09VD 02VO 02VC 02MD 02MO 02MC 02RD 02RO	1	0	1.24453091621	-417.0	-265.0	-412	-264	1
2.7	2015_May_07_1207	s	s	2	5	SIC	240	ABS	0	2	02VD 02VO 02VC 02MD 02MO 02MC 10RD 02RO	0	1	1.51775383949	None	None	None	None	1
2.7	2015_May_07_1207	s	s	2	5	SIC	241	RC	1	1	02VD 02VO 02VC 02MD 09MO 02MC 02RD 02RO	1	0	0.664192914963	-189.0	182.0	-190	183	1
2.7	2015_May_07_1207	s	s	2	5	SIC	242	RC	2	2	09VD 02VO 02VC 02MD 02MO 02MC 02RD 02RO	1	0	1.11273884773	-222.0	323.0	-220	314	1
2.7	2015_May_07_1207	s	s	2	5	SIC	243	ABS	0	1	02VD 02VO 02VC 02MD 02MO 02MC 02RD 10RO	0	1	3.396078825	None	None	None	None	1
2.7	2015_May_07_1207	s	s	2	5	SIC	244	ABS	2	0	02VD 02VO 10VC 02MD 02MO 02MC 02RD 02RO	0	1	1.80641198158	None	None	None	None	1
2.7	2015_May_07_1207	s	s	2	5	SIC	245	RC	2	0	02VD 02VO 09VC 02MD 02MO 02MC 02RD 02RO	1	0	0.682199954987	-240.0	143.0	-230	143	1
2.7	2015_May_07_1207	s	s	2	5	SIC	246	RC	0	1	02VD 02VO 02VC 02MD 02MO 02MC 02RD 09RO	1	0	1.06716704369	256.0	328.0	260	315	1
2.7	2015_May_07_1207	s	s	2	5	SIC	247	ABS	0	2	02VD 02VO 02VC 02MD 02MO 02MC 10RD 02RO	0	1	1.51771593094	None	None	None	None	1
2.7	2015_May_07_1207	s	s	2	5	SIC	248	ABS	1	0	02VD 02VO 02VC 02MD 02MO 10MC 02RD 02RO	0	1	2.30677103996	None	None	None	None	1
2.7	2015_May_07_1207	s	s	2	5	SIC	249	RC	1	0	02VD 02VO 02VC 02MD 02MO 09MC 02RD 02RO	1	0	1.37169790268	426.0	-32.0	428	-26	1
2.7	2015_May_07_1207	s	s	2	5	SIC	250	RC	1	2	02VD 02VO 02VC 09MD 02MO 02MC 02RD 02RO	1	0	0.736064195633	143.0	-142.0	142	-138	1
2.7	2015_May_07_1207	s	s	2	5	SIC	251	ABS	1	2	02VD 02VO 02VC 10MD 02MO 02MC 02RD 02RO	0	1	1.91526603699	None	None	None	None	1
2.7	2015_May_07_1207	s	s	2	5	SIC	252	ABS	2	1	02VD 10VO 02VC 02MD 02MO 02MC 02RD 02RO	0	1	1.30582499504	None	None	None	None	1
2.7	2015_May_07_1207	s	s	2	5	SIC	253	ABS	2	2	10VD 02VO 02VC 02MD 02MO 02MC 02RD 02RO	0	1	1.95335793495	None	None	None	None	1
2.7	2015_May_07_1207	s	s	2	5	SIC	254	RC	0	2	02VD 02VO 02VC 02MD 02MO 02MC 09RD 02RO	1	0	0.823341846466	255.0	-227.0	265	-223	1
2.7	2015_May_07_1207	s	s	2	5	SIC	255	ABS	1	1	02VD 02VO 02VC 02MD 10MO 02MC 02RD 02RO	0	1	2.29503297806	None	None	None	None	1
2.7	2015_May_07_1207	s	s	2	5	SIC	256	RC	2	1	02VD 09VO 02VC 02MD 02MO 02MC 02RD 02RO	1	0	0.964745998383	-433.0	80.0	-440	79	1
2.7	2015_May_07_1207	s	s	2	5	SIC	257	RC	2	1	02VD 09VO 02VC 02MD 02MO 02MC 02RD 02RO	1	0	0.628572940826	246.0	-97.0	253	-95	1
2.7	2015_May_07_1207	s	s	2	5	SIC	258	RC	0	1	02VD 02VO 02VC 02MD 02MO 02MC 02RD 09RO	1	0	0.501517057419	-25.0	120.0	-40	128	1
2.7	2015_May_07_1207	s	s	2	5	SIC	259	ABS	0	1	02VD 02VO 02VC 02MD 02MO 02MC 02RD 10RO	0	1	4.06674003601	None	None	None	None	1
2.7	2015_May_07_1207	s	s	2	5	SIC	260	ABS	2	2	10VD 02VO 02VC 02MD 02MO 02MC 02RD 02RO	0	1	1.59493088722	None	None	None	None	1
2.7	2015_May_07_1207	s	s	2	5	SIC	261	RC	1	2	02VD 02VO 02VC 09MD 02MO 02MC 02RD 02RO	1	0	1.286495924	500.0	106.0	498	107	1
2.7	2015_May_07_1207	s	s	2	5	SIC	262	RC	0	2	02VD 02VO 02VC 02MD 02MO 02MC 09RD 02RO	1	0	1.72977590561	-234.0	375.0	-236	383	1
2.7	2015_May_07_1207	s	s	2	5	SIC	263	RC	1	1	02VD 02VO 02VC 02MD 09MO 02MC 02RD 02RO	1	0	1.2860250473	-315.0	-287.0	-310	-295	1
2.7	2015_May_07_1207	s	s	2	5	SIC	264	ABS	1	2	02VD 02VO 02VC 10MD 02MO 02MC 02RD 02RO	0	1	1.67082691193	None	None	None	None	1
2.7	2015_May_07_1207	s	s	2	5	SIC	265	RC	2	2	09VD 02VO 02VC 02MD 02MO 02MC 02RD 02RO	1	0	2.03108787537	489.0	-321.0	483	-330	1
2.7	2015_May_07_1207	s	s	2	5	SIC	266	ABS	1	1	02VD 02VO 02VC 02MD 10MO 02MC 02RD 02RO	0	1	2.68670511246	None	None	None	None	1
2.7	2015_May_07_1207	s	s	2	5	SIC	267	ABS	2	1	02VD 10VO 02VC 02MD 02MO 02MC 02RD 02RO	0	1	1.27712488174	None	None	None	None	1
2.7	2015_May_07_1207	s	s	2	5	SIC	268	RC	1	0	02VD 02VO 02VC 02MD 02MO 09MC 02RD 02RO	1	0	1.32947707176	171.0	329.0	174	329	1
2.7	2015_May_07_1207	s	s	2	5	SIC	269	ABS	0	2	02VD 02VO 02VC 02MD 02MO 02MC 10RD 02RO	0	1	1.43206000328	None	None	None	None	1
2.7	2015_May_07_1207	s	s	2	5	SIC	270	ABS	2	0	02VD 02VO 10VC 02MD 02MO 02MC 02RD 02RO	0	1	1.59583210945	None	None	None	None	1
2.7	2015_May_07_1207	s	s	2	5	SIC	271	RC	2	0	02VD 02VO 09VC 02MD 02MO 02MC 02RD 02RO	1	0	1.22395014763	414.0	203.0	406	204	1
2.7	2015_May_07_1207	s	s	2	5	SIC	272	ABS	1	0	02VD 02VO 02VC 02MD 02MO 10MC 02RD 02RO	0	1	1.63553094864	None	None	None	None	1
2.7	2015_May_07_1207	s	s	2	5	SIC	273	ABS	2	1	02VD 10VO 02VC 02MD 02MO 02MC 02RD 02RO	0	1	1.18826389313	None	None	None	None	1
2.7	2015_May_07_1207	s	s	2	5	SIC	274	RC	1	2	02VD 02VO 02VC 09MD 02MO 02MC 02RD 02RO	1	0	0.749253988266	184.0	-12.0	176	-12	1
2.7	2015_May_07_1207	s	s	2	5	SIC	275	RC	2	1	02VD 09VO 02VC 02MD 02MO 02MC 02RD 02RO	1	0	1.00680804253	21.0	349.0	22	358	1
2.7	2015_May_07_1207	s	s	2	5	SIC	276	ABS	1	1	02VD 02VO 02VC 02MD 10MO 02MC 02RD 02RO	0	1	2.0827767849	None	None	None	None	1
2.7	2015_May_07_1207	s	s	2	5	SIC	277	RC	2	2	09VD 02VO 02VC 02MD 02MO 02MC 02RD 02RO	1	0	1.54821920395	263.0	349.0	264	341	1
2.7	2015_May_07_1207	s	s	2	5	SIC	278	ABS	1	2	02VD 02VO 02VC 10MD 02MO 02MC 02RD 02RO	0	1	1.35298895836	None	None	None	None	1
2.7	2015_May_07_1207	s	s	2	5	SIC	279	RC	0	1	02VD 02VO 02VC 02MD 02MO 02MC 02RD 09RO	1	0	2.36024594307	-159.0	-405.0	-156	-409	1
2.7	2015_May_07_1207	s	s	2	5	SIC	280	ABS	0	2	02VD 02VO 02VC 02MD 02MO 02MC 10RD 02RO	0	1	2.18506908417	None	None	None	None	1
2.7	2015_May_07_1207	s	s	2	5	SIC	281	ABS	2	2	10VD 02VO 02VC 02MD 02MO 02MC 02RD 02RO	0	1	1.58840799332	None	None	None	None	1
2.7	2015_May_07_1207	s	s	2	5	SIC	282	ABS	1	0	02VD 02VO 02VC 02MD 02MO 10MC 02RD 02RO	0	1	2.32516312599	None	None	None	None	1
2.7	2015_May_07_1207	s	s	2	5	SIC	283	RC	0	2	02VD 02VO 02VC 02MD 02MO 02MC 09RD 02RO	1	0	0.641517877579	268.0	-11.0	269	-8	1
2.7	2015_May_07_1207	s	s	2	5	SIC	284	RC	1	1	02VD 02VO 02VC 02MD 09MO 02MC 02RD 02RO	1	0	1.89449000359	496.0	-101.0	503	-95	1
2.7	2015_May_07_1207	s	s	2	5	SIC	285	ABS	0	1	02VD 02VO 02VC 02MD 02MO 02MC 02RD 10RO	0	1	3.65489292145	None	None	None	None	1
2.7	2015_May_07_1207	s	s	2	5	SIC	286	RC	2	0	02VD 02VO 09VC 02MD 02MO 02MC 02RD 02RO	1	0	0.999861001968	355.0	-46.0	362	-43	1
2.7	2015_May_07_1207	s	s	2	5	SIC	287	RC	1	0	02VD 02VO 02VC 02MD 02MO 09MC 02RD 02RO	1	0	1.17139697075	32.0	-387.0	35	-391	1
2.7	2015_May_07_1207	s	s	2	5	SIC	288	ABS	2	0	02VD 02VO 10VC 02MD 02MO 02MC 02RD 02RO	0	1	1.39498806	None	None	None	None	1
2.7	2015_May_07_1207	s	s	2	5	SIC	289	ABS	1	1	02VD 02VO 02VC 02MD 10MO 02MC 02RD 02RO	0	1	2.12484478951	None	None	None	None	1
2.7	2015_May_07_1207	s	s	2	5	SIC	290	RC	1	2	02VD 02VO 02VC 09MD 02MO 02MC 02RD 02RO	1	0	0.582841873169	40.0	-27.0	46	-24	1
2.7	2015_May_07_1207	s	s	2	5	SIC	291	ABS	2	0	02VD 02VO 10VC 02MD 02MO 02MC 02RD 02RO	0	1	1.27726483345	None	None	None	None	1
2.7	2015_May_07_1207	s	s	2	5	SIC	292	RC	0	2	02VD 02VO 02VC 02MD 02MO 02MC 09RD 02RO	0	1	1.22061300278	-242.0	-358.0	None	None	0
2.7	2015_May_07_1207	s	s	2	5	SIC	293	ABS	0	1	02VD 02VO 02VC 02MD 02MO 02MC 02RD 10RO	0	1	2.1299200058	None	None	None	None	1
2.7	2015_May_07_1207	s	s	2	5	SIC	294	RC	2	2	09VD 02VO 02VC 02MD 02MO 02MC 02RD 02RO	1	0	0.877303123474	-45.0	-185.0	-50	-189	1
2.7	2015_May_07_1207	s	s	2	5	SIC	295	ABS	2	2	10VD 02VO 02VC 02MD 02MO 02MC 02RD 02RO	0	1	1.42356300354	None	None	None	None	1
2.7	2015_May_07_1207	s	s	2	5	SIC	296	RC	0	1	02VD 02VO 02VC 02MD 02MO 02MC 02RD 09RO	1	0	0.682088136673	-17.0	258.0	-13	265	1
2.7	2015_May_07_1207	s	s	2	5	SIC	297	RC	2	0	02VD 02VO 09VC 02MD 02MO 02MC 02RD 02RO	1	0	0.764429092407	-229.0	345.0	-232	345	1
2.7	2015_May_07_1207	s	s	2	5	SIC	298	ABS	1	2	02VD 02VO 02VC 10MD 02MO 02MC 02RD 02RO	0	1	1.43275403976	None	None	None	None	1
2.7	2015_May_07_1207	s	s	2	5	SIC	299	RC	1	1	02VD 02VO 02VC 02MD 09MO 02MC 02RD 02RO	1	0	1.04698204994	-518.0	374.0	-517	370	1
2.7	2015_May_07_1207	s	s	2	5	SIC	300	ABS	0	2	02VD 02VO 02VC 02MD 02MO 02MC 10RD 02RO	0	1	1.47045302391	None	None	None	None	1
2.7	2015_May_07_1207	s	s	2	5	SIC	301	ABS	2	1	02VD 10VO 02VC 02MD 02MO 02MC 02RD 02RO	0	1	1.42972588539	None	None	None	None	1
2.7	2015_May_07_1207	s	s	2	5	SIC	302	ABS	1	0	02VD 02VO 02VC 02MD 02MO 10MC 02RD 02RO	0	1	1.31763100624	None	None	None	None	1
2.7	2015_May_07_1207	s	s	2	5	SIC	303	RC	2	1	02VD 09VO 02VC 02MD 02MO 02MC 02RD 02RO	1	0	0.594671010971	443.0	291.0	436	287	1
2.7	2015_May_07_1207	s	s	2	5	SIC	304	RC	1	0	02VD 02VO 02VC 02MD 02MO 09MC 02RD 02RO	1	0	1.11775588989	-221.0	-154.0	-230	-149	1
2.7	2015_May_07_1207	s	s	2	5	SIC	305	ABS	2	0	02VD 02VO 10VC 02MD 02MO 02MC 02RD 02RO	0	1	2.26574611664	None	None	None	None	1
2.7	2015_May_07_1207	s	s	2	5	SIC	306	RC	1	2	02VD 02VO 02VC 09MD 02MO 02MC 02RD 02RO	1	0	0.688596963882	216.0	-22.0	222	-22	1
2.7	2015_May_07_1207	s	s	2	5	SIC	307	ABS	1	0	02VD 02VO 02VC 02MD 02MO 10MC 02RD 02RO	0	1	3.02449083328	None	None	None	None	1
2.7	2015_May_07_1207	s	s	2	5	SIC	308	ABS	1	2	02VD 02VO 02VC 10MD 02MO 02MC 02RD 02RO	0	1	2.03574895859	None	None	None	None	1
2.7	2015_May_07_1207	s	s	2	5	SIC	309	RC	0	2	02VD 02VO 02VC 02MD 02MO 02MC 09RD 02RO	1	0	0.571410179138	17.0	-55.0	10	-56	1
2.7	2015_May_07_1207	s	s	2	5	SIC	310	ABS	0	2	02VD 02VO 02VC 02MD 02MO 02MC 10RD 02RO	0	1	1.86758708954	None	None	None	None	1
2.7	2015_May_07_1207	s	s	2	5	SIC	311	RC	1	0	02VD 02VO 02VC 02MD 02MO 09MC 02RD 02RO	1	0	1.69433808327	450.0	-89.0	455	-89	1
2.7	2015_May_07_1207	s	s	2	5	SIC	312	RC	2	2	09VD 02VO 02VC 02MD 02MO 02MC 02RD 02RO	1	0	1.83553195	533.0	254.0	527	261	1
2.7	2015_May_07_1207	s	s	2	5	SIC	313	RC	0	1	02VD 02VO 02VC 02MD 02MO 02MC 02RD 09RO	1	0	1.82103705406	521.0	44.0	516	45	1
2.7	2015_May_07_1207	s	s	2	5	SIC	314	RC	2	0	02VD 02VO 09VC 02MD 02MO 02MC 02RD 02RO	1	0	1.0551109314	111.0	-249.0	103	-245	1
2.7	2015_May_07_1207	s	s	2	5	SIC	315	ABS	0	1	02VD 02VO 02VC 02MD 02MO 02MC 02RD 10RO	0	1	2.78088092804	None	None	None	None	1
2.7	2015_May_07_1207	s	s	2	5	SIC	316	RC	1	1	02VD 02VO 02VC 02MD 09MO 02MC 02RD 02RO	1	0	1.21179413795	-490.0	-272.0	-493	-264	1
2.7	2015_May_07_1207	s	s	2	5	SIC	317	ABS	1	1	02VD 02VO 02VC 02MD 10MO 02MC 02RD 02RO	0	1	1.97680401802	None	None	None	None	1
2.7	2015_May_07_1207	s	s	2	5	SIC	318	RC	2	1	02VD 09VO 02VC 02MD 02MO 02MC 02RD 02RO	1	0	0.717368125916	-101.0	253.0	-107	258	1
2.7	2015_May_07_1207	s	s	2	5	SIC	319	ABS	2	1	02VD 10VO 02VC 02MD 02MO 02MC 02RD 02RO	0	1	1.71793794632	None	None	None	None	1
2.7	2015_May_07_1207	s	s	2	5	SIC	320	ABS	2	2	10VD 02VO 02VC 02MD 02MO 02MC 02RD 02RO	0	1	1.6310300827	None	None	None	None	1
2.7	2015_May_07_1207	s	s	2	5	SIC	321	RC	1	1	02VD 02VO 02VC 02MD 09MO 02MC 02RD 02RO	1	0	0.889909982681	-112.0	-355.0	-112	-357	1
2.7	2015_May_07_1207	s	s	2	5	SIC	322	ABS	1	0	02VD 02VO 02VC 02MD 02MO 10MC 02RD 02RO	0	1	2.40911507607	None	None	None	None	1
2.7	2015_May_07_1207	s	s	2	5	SIC	323	RC	0	1	02VD 02VO 02VC 02MD 02MO 02MC 02RD 09RO	1	0	2.34172701836	238.0	320.0	237	318	1
2.7	2015_May_07_1207	s	s	2	5	SIC	324	RC	2	0	02VD 02VO 09VC 02MD 02MO 02MC 02RD 02RO	1	0	0.623258829117	-25.0	-60.0	-29	-64	1
2.7	2015_May_07_1207	s	s	2	5	SIC	325	RC	2	1	02VD 09VO 02VC 02MD 02MO 02MC 02RD 02RO	1	0	1.07735109329	3.0	387.0	8	391	1
2.7	2015_May_07_1207	s	s	2	5	SIC	326	RC	2	2	09VD 02VO 02VC 02MD 02MO 02MC 02RD 02RO	1	0	0.717355966568	308.0	305.0	309	304	1
2.7	2015_May_07_1207	s	s	2	5	SIC	327	RC	0	2	02VD 02VO 02VC 02MD 02MO 02MC 09RD 02RO	1	0	1.09014797211	-349.0	-120.0	-347	-116	1
2.7	2015_May_07_1207	s	s	2	5	SIC	328	ABS	2	1	02VD 10VO 02VC 02MD 02MO 02MC 02RD 02RO	0	1	1.71791100502	None	None	None	None	1
2.7	2015_May_07_1207	s	s	2	5	SIC	329	ABS	0	1	02VD 02VO 02VC 02MD 02MO 02MC 02RD 10RO	0	1	3.09116292	None	None	None	None	1
2.7	2015_May_07_1207	s	s	2	5	SIC	330	RC	1	0	02VD 02VO 02VC 02MD 02MO 09MC 02RD 02RO	1	0	0.641736984253	45.0	-191.0	53	-187	1
2.7	2015_May_07_1207	s	s	2	5	SIC	331	ABS	2	2	10VD 02VO 02VC 02MD 02MO 02MC 02RD 02RO	0	1	1.4942741394	None	None	None	None	1
2.7	2015_May_07_1207	s	s	2	5	SIC	332	ABS	1	2	02VD 02VO 02VC 10MD 02MO 02MC 02RD 02RO	0	1	1.95978999138	None	None	None	None	1
2.7	2015_May_07_1207	s	s	2	5	SIC	333	RC	1	2	02VD 02VO 02VC 09MD 02MO 02MC 02RD 02RO	1	0	1.47449398041	-398.0	-264.0	-396	-264	1
2.7	2015_May_07_1207	s	s	2	5	SIC	334	ABS	0	2	02VD 02VO 02VC 02MD 02MO 02MC 10RD 02RO	0	1	1.40661692619	None	None	None	None	1
2.7	2015_May_07_1207	s	s	2	5	SIC	335	ABS	1	1	02VD 02VO 02VC 02MD 10MO 02MC 02RD 02RO	0	1	1.54797792435	None	None	None	None	1
2.7	2015_May_07_1207	s	s	2	5	SIC	336	ABS	2	0	02VD 02VO 10VC 02MD 02MO 02MC 02RD 02RO	0	1	1.71793103218	None	None	None	None	1
2.7	2015_May_07_1207	s	s	2	5	SIC	337	RC	0	2	02VD 02VO 02VC 02MD 02MO 02MC 09RD 02RO	1	0	1.64162516594	-540.0	-235.0	-530	-237	1
2.7	2015_May_07_1207	s	s	2	5	SIC	338	ABS	2	2	10VD 02VO 02VC 02MD 02MO 02MC 02RD 02RO	0	1	1.41856217384	None	None	None	None	1
2.7	2015_May_07_1207	s	s	2	5	SIC	339	RC	1	2	02VD 02VO 02VC 09MD 02MO 02MC 02RD 02RO	1	0	1.02384400368	329.0	30.0	331	30	1
2.7	2015_May_07_1207	s	s	2	5	SIC	340	RC	2	2	09VD 02VO 02VC 02MD 02MO 02MC 02RD 02RO	1	0	1.07862091064	27.0	-385.0	24	-380	1
2.7	2015_May_07_1207	s	s	2	5	SIC	341	RC	0	1	02VD 02VO 02VC 02MD 02MO 02MC 02RD 09RO	1	0	1.51772379875	-73.0	403.0	-66	399	1
2.7	2015_May_07_1207	s	s	2	5	SIC	342	ABS	2	0	02VD 02VO 10VC 02MD 02MO 02MC 02RD 02RO	0	1	1.09385895729	None	None	None	None	1
2.7	2015_May_07_1207	s	s	2	5	SIC	343	ABS	1	2	02VD 02VO 02VC 10MD 02MO 02MC 02RD 02RO	0	1	1.90124487877	None	None	None	None	1
2.7	2015_May_07_1207	s	s	2	5	SIC	344	RC	2	0	02VD 02VO 09VC 02MD 02MO 02MC 02RD 02RO	1	0	1.46821880341	409.0	119.0	403	118	1
2.7	2015_May_07_1207	s	s	2	5	SIC	345	ABS	1	1	02VD 02VO 02VC 02MD 10MO 02MC 02RD 02RO	0	1	1.81892681122	None	None	None	None	1
2.7	2015_May_07_1207	s	s	2	5	SIC	346	ABS	1	0	02VD 02VO 02VC 02MD 02MO 10MC 02RD 02RO	0	1	2.05925893784	None	None	None	None	1
2.7	2015_May_07_1207	s	s	2	5	SIC	347	RC	1	1	02VD 02VO 02VC 02MD 09MO 02MC 02RD 02RO	1	0	1.02707481384	-355.0	97.0	-351	99	1
2.7	2015_May_07_1207	s	s	2	5	SIC	348	ABS	0	1	02VD 02VO 02VC 02MD 02MO 02MC 02RD 10RO	0	1	3.07918405533	None	None	None	None	1
2.7	2015_May_07_1207	s	s	2	5	SIC	349	ABS	2	1	02VD 10VO 02VC 02MD 02MO 02MC 02RD 02RO	0	1	1.84288907051	None	None	None	None	1
2.7	2015_May_07_1207	s	s	2	5	SIC	350	ABS	0	2	02VD 02VO 02VC 02MD 02MO 02MC 10RD 02RO	0	1	1.91025495529	None	None	None	None	1
2.7	2015_May_07_1207	s	s	2	5	SIC	351	RC	2	1	02VD 09VO 02VC 02MD 02MO 02MC 02RD 02RO	1	0	0.811841011047	-346.0	128.0	-344	130	1
2.7	2015_May_07_1207	s	s	2	5	SIC	352	RC	1	0	02VD 02VO 02VC 02MD 02MO 09MC 02RD 02RO	1	0	1.34797692299	438.0	-135.0	444	-133	1
2.7	2015_May_07_1207	s	s	2	5	SIC	353	RC	2	0	02VD 02VO 09VC 02MD 02MO 02MC 02RD 02RO	1	0	0.999883890152	346.0	-322.0	346	-326	1
2.7	2015_May_07_1207	s	s	2	5	SIC	354	ABS	2	1	02VD 10VO 02VC 02MD 02MO 02MC 02RD 02RO	0	1	2.35353398323	None	None	None	None	1
2.7	2015_May_07_1207	s	s	2	5	SIC	355	ABS	0	2	02VD 02VO 02VC 02MD 02MO 02MC 10RD 02RO	0	1	1.82974100113	None	None	None	None	1
2.7	2015_May_07_1207	s	s	2	5	SIC	356	ABS	2	0	02VD 02VO 10VC 02MD 02MO 02MC 02RD 02RO	1	0	0.641767978668	None	None	-52	-325	0
2.7	2015_May_07_1207	s	s	2	5	SIC	357	RC	2	2	09VD 02VO 02VC 02MD 02MO 02MC 02RD 02RO	1	0	0.528995037079	-128.0	81.0	-129	86	1
2.7	2015_May_07_1207	s	s	2	5	SIC	358	ABS	1	2	02VD 02VO 02VC 10MD 02MO 02MC 02RD 02RO	0	1	1.4061460495	None	None	None	None	1
2.7	2015_May_07_1207	s	s	2	5	SIC	359	RC	1	2	02VD 02VO 02VC 09MD 02MO 02MC 02RD 02RO	1	0	0.623230934143	148.0	-51.0	147	-56	1
2.7	2015_May_07_1207	s	s	2	5	SIC	360	ABS	1	1	02VD 02VO 02VC 02MD 10MO 02MC 02RD 02RO	0	1	2.27097702026	None	None	None	None	1
2.7	2015_May_07_1207	s	s	2	5	SIC	361	ABS	0	1	02VD 02VO 02VC 02MD 02MO 02MC 02RD 10RO	0	1	2.63304495811	None	None	None	None	1
2.7	2015_May_07_1207	s	s	2	5	SIC	362	ABS	1	0	02VD 02VO 02VC 02MD 02MO 10MC 02RD 02RO	0	1	2.17374992371	None	None	None	None	1
2.7	2015_May_07_1207	s	s	2	5	SIC	363	RC	1	0	02VD 02VO 02VC 02MD 02MO 09MC 02RD 02RO	1	0	0.909355163574	509.0	391.0	508	391	1
2.7	2015_May_07_1207	s	s	2	5	SIC	364	RC	0	2	02VD 02VO 02VC 02MD 02MO 02MC 09RD 02RO	0	1	1.91453003883	174.0	-400.0	None	None	0
2.7	2015_May_07_1207	s	s	2	5	SIC	365	RC	0	1	02VD 02VO 02VC 02MD 02MO 02MC 02RD 09RO	1	0	1.09406995773	141.0	339.0	138	344	1
2.7	2015_May_07_1207	s	s	2	5	SIC	366	RC	2	1	02VD 09VO 02VC 02MD 02MO 02MC 02RD 02RO	1	0	1.53635120392	476.0	-308.0	473	-306	1
2.7	2015_May_07_1207	s	s	2	5	SIC	367	RC	1	1	02VD 02VO 02VC 02MD 09MO 02MC 02RD 02RO	1	0	0.922639131546	-216.0	-359.0	-207	-359	1
2.7	2015_May_07_1207	s	s	2	5	SIC	368	ABS	2	2	10VD 02VO 02VC 02MD 02MO 02MC 02RD 02RO	0	1	1.64139413834	None	None	None	None	1
2.7	2015_May_07_1207	s	s	2	5	SIC	369	ABS	1	1	02VD 02VO 02VC 02MD 10MO 02MC 02RD 02RO	0	1	1.81209897995	None	None	None	None	1
2.7	2015_May_07_1207	s	s	2	5	SIC	370	RC	2	0	02VD 02VO 09VC 02MD 02MO 02MC 02RD 02RO	1	0	1.25367617607	523.0	-182.0	532	-180	1
2.7	2015_May_07_1207	s	s	2	5	SIC	371	RC	1	0	02VD 02VO 02VC 02MD 02MO 09MC 02RD 02RO	1	0	0.764477014542	42.0	246.0	54	252	1
2.7	2015_May_07_1207	s	s	2	5	SIC	372	RC	2	1	02VD 09VO 02VC 02MD 02MO 02MC 02RD 02RO	1	0	1.65904593468	-501.0	-117.0	-493	-110	1
2.7	2015_May_07_1207	s	s	2	5	SIC	373	ABS	1	2	02VD 02VO 02VC 10MD 02MO 02MC 02RD 02RO	0	1	1.70252895355	None	None	None	None	1
2.7	2015_May_07_1207	s	s	2	5	SIC	374	ABS	1	0	02VD 02VO 02VC 02MD 02MO 10MC 02RD 02RO	0	1	2.2828772068	None	None	None	None	1
2.7	2015_May_07_1207	s	s	2	5	SIC	375	ABS	2	1	02VD 10VO 02VC 02MD 02MO 02MC 02RD 02RO	0	1	1.43062400818	None	None	None	None	1
2.7	2015_May_07_1207	s	s	2	5	SIC	376	RC	1	1	02VD 02VO 02VC 02MD 09MO 02MC 02RD 02RO	1	0	1.2184240818	265.0	399.0	270	402	1
2.7	2015_May_07_1207	s	s	2	5	SIC	377	RC	0	2	02VD 02VO 02VC 02MD 02MO 02MC 09RD 02RO	1	0	1.26556301117	-387.0	-121.0	-385	-116	1
2.7	2015_May_07_1207	s	s	2	5	SIC	378	RC	1	2	02VD 02VO 02VC 09MD 02MO 02MC 02RD 02RO	1	0	1.44718003273	-194.0	-177.0	-197	-169	1
2.7	2015_May_07_1207	s	s	2	5	SIC	379	ABS	2	2	10VD 02VO 02VC 02MD 02MO 02MC 02RD 02RO	0	1	2.00040388107	None	None	None	None	1
2.7	2015_May_07_1207	s	s	2	5	SIC	380	RC	0	1	02VD 02VO 02VC 02MD 02MO 02MC 02RD 09RO	1	0	2.21894192696	210.0	274.0	216	278	1
2.7	2015_May_07_1207	s	s	2	5	SIC	381	ABS	0	1	02VD 02VO 02VC 02MD 02MO 02MC 02RD 10RO	0	1	3.51343417168	None	None	None	None	1
2.7	2015_May_07_1207	s	s	2	5	SIC	382	RC	2	2	09VD 02VO 02VC 02MD 02MO 02MC 02RD 02RO	1	0	1.78344607353	-517.0	405.0	-516	404	1
2.7	2015_May_07_1207	s	s	2	5	SIC	383	ABS	2	0	02VD 02VO 10VC 02MD 02MO 02MC 02RD 02RO	0	1	1.89092302322	None	None	None	None	1
2.7	2015_May_07_1207	s	s	2	5	SIC	384	ABS	0	2	02VD 02VO 02VC 02MD 02MO 02MC 10RD 02RO	0	1	1.72965908051	None	None	None	None	1
2.7	2015_May_07_1207	s	s	2	5	SIC	385	RC	2	1	02VD 09VO 02VC 02MD 02MO 02MC 02RD 02RO	1	0	1.17078185081	129.0	-270.0	136	-270	1
2.7	2015_May_07_1207	s	s	2	5	SIC	386	ABS	2	0	02VD 02VO 10VC 02MD 02MO 02MC 02RD 02RO	0	1	1.52626681328	None	None	None	None	1
2.7	2015_May_07_1207	s	s	2	5	SIC	387	ABS	0	2	02VD 02VO 02VC 02MD 02MO 02MC 10RD 02RO	0	1	1.28939509392	None	None	None	None	1
2.7	2015_May_07_1207	s	s	2	5	SIC	388	RC	1	1	02VD 02VO 02VC 02MD 09MO 02MC 02RD 02RO	1	0	1.72984194756	284.0	398.0	290	399	1
2.7	2015_May_07_1207	s	s	2	5	SIC	389	ABS	2	1	02VD 10VO 02VC 02MD 02MO 02MC 02RD 02RO	0	1	1.3059360981	None	None	None	None	1
2.7	2015_May_07_1207	s	s	2	5	SIC	390	ABS	1	2	02VD 02VO 02VC 10MD 02MO 02MC 02RD 02RO	0	1	1.47748589516	None	None	None	None	1
2.7	2015_May_07_1207	s	s	2	5	SIC	391	RC	1	0	02VD 02VO 02VC 02MD 02MO 09MC 02RD 02RO	1	0	0.753159999847	239.0	143.0	243	131	1
2.7	2015_May_07_1207	s	s	2	5	SIC	392	RC	2	2	09VD 02VO 02VC 02MD 02MO 02MC 02RD 02RO	1	0	0.823405981064	396.0	6.0	395	2	1
2.7	2015_May_07_1207	s	s	2	5	SIC	393	ABS	2	2	10VD 02VO 02VC 02MD 02MO 02MC 02RD 02RO	0	1	1.22353196144	None	None	None	None	1
2.7	2015_May_07_1207	s	s	2	5	SIC	394	ABS	1	1	02VD 02VO 02VC 02MD 10MO 02MC 02RD 02RO	0	1	1.97716617584	None	None	None	None	1
2.7	2015_May_07_1207	s	s	2	5	SIC	395	RC	0	1	02VD 02VO 02VC 02MD 02MO 02MC 02RD 09RO	1	0	0.541193962097	-12.0	190.0	-18	183	1
2.7	2015_May_07_1207	s	s	2	5	SIC	396	RC	1	2	02VD 02VO 02VC 09MD 02MO 02MC 02RD 02RO	1	0	1.4656829834	440.0	-286.0	433	-287	1
2.7	2015_May_07_1207	s	s	2	5	SIC	397	RC	0	2	02VD 02VO 02VC 02MD 02MO 02MC 09RD 02RO	1	0	1.56036305428	-409.0	325.0	-411	321	1
2.7	2015_May_07_1207	s	s	2	5	SIC	398	ABS	1	0	02VD 02VO 02VC 02MD 02MO 10MC 02RD 02RO	0	1	2.17691421509	None	None	None	None	1
2.7	2015_May_07_1207	s	s	2	5	SIC	399	RC	2	0	02VD 02VO 09VC 02MD 02MO 02MC 02RD 02RO	1	0	1.152998209	26.0	-180.0	26	-186	1
2.7	2015_May_07_1207	s	s	2	5	SIC	400	ABS	0	1	02VD 02VO 02VC 02MD 02MO 02MC 02RD 10RO	0	1	2.95377087593	None	None	None	None	1
2.7	2015_May_07_1207	s	s	2	5	SIC	401	RC	1	1	02VD 02VO 02VC 02MD 09MO 02MC 02RD 02RO	1	0	0.643460035324	-79.0	-16.0	-73	-16	1
2.7	2015_May_07_1207	s	s	2	5	SIC	402	RC	2	2	09VD 02VO 02VC 02MD 02MO 02MC 02RD 02RO	1	0	0.646774053574	306.0	-156.0	306	-164	1
2.7	2015_May_07_1207	s	s	2	5	SIC	403	ABS	1	1	02VD 02VO 02VC 02MD 10MO 02MC 02RD 02RO	0	1	1.98859286308	None	None	None	None	1
2.7	2015_May_07_1207	s	s	2	5	SIC	404	RC	0	2	02VD 02VO 02VC 02MD 02MO 02MC 09RD 02RO	0	1	1.85913991928	-474.0	304.0	None	None	0
2.7	2015_May_07_1207	s	s	2	5	SIC	405	ABS	2	2	10VD 02VO 02VC 02MD 02MO 02MC 02RD 02RO	0	1	1.38332390785	None	None	None	None	1
2.7	2015_May_07_1207	s	s	2	5	SIC	406	RC	2	0	02VD 02VO 09VC 02MD 02MO 02MC 02RD 02RO	1	0	1.43006396294	-410.0	189.0	-411	195	1
2.7	2015_May_07_1207	s	s	2	5	SIC	407	RC	2	1	02VD 09VO 02VC 02MD 02MO 02MC 02RD 02RO	1	0	0.587864875793	1.0	191.0	0	188	1
2.7	2015_May_07_1207	s	s	2	5	SIC	408	ABS	1	0	02VD 02VO 02VC 02MD 02MO 10MC 02RD 02RO	0	1	1.28236913681	None	None	None	None	1
2.7	2015_May_07_1207	s	s	2	5	SIC	409	RC	1	2	02VD 02VO 02VC 09MD 02MO 02MC 02RD 02RO	1	0	0.752639055252	163.0	275.0	163	280	1
2.7	2015_May_07_1207	s	s	2	5	SIC	410	ABS	2	0	02VD 02VO 10VC 02MD 02MO 02MC 02RD 02RO	0	1	1.24705004692	None	None	None	None	1
2.7	2015_May_07_1207	s	s	2	5	SIC	411	ABS	2	1	02VD 10VO 02VC 02MD 02MO 02MC 02RD 02RO	0	1	1.91396307945	None	None	None	None	1
2.7	2015_May_07_1207	s	s	2	5	SIC	412	ABS	1	2	02VD 02VO 02VC 10MD 02MO 02MC 02RD 02RO	0	1	1.78884601593	None	None	None	None	1
2.7	2015_May_07_1207	s	s	2	5	SIC	413	RC	1	0	02VD 02VO 02VC 02MD 02MO 09MC 02RD 02RO	1	0	1.11271214485	-17.0	-228.0	-11	-230	1
2.7	2015_May_07_1207	s	s	2	5	SIC	414	ABS	0	2	02VD 02VO 02VC 02MD 02MO 02MC 10RD 02RO	0	1	1.84208106995	None	None	None	None	1
2.7	2015_May_07_1207	s	s	2	5	SIC	415	RC	0	1	02VD 02VO 02VC 02MD 02MO 02MC 02RD 09RO	1	0	2.05947113037	-425.0	-321.0	-416	-321	1
2.7	2015_May_07_1207	s	s	2	5	SIC	416	ABS	0	1	02VD 02VO 02VC 02MD 02MO 02MC 02RD 10RO	0	1	3.0192091465	None	None	None	None	1
2.7	2015_May_07_1207	s	s	2	5	SIC	417	ABS	1	1	02VD 02VO 02VC 02MD 10MO 02MC 02RD 02RO	1	0	1.83126211166	None	None	209	-262	0
2.7	2015_May_07_1207	s	s	2	5	SIC	418	ABS	1	0	02VD 02VO 02VC 02MD 02MO 10MC 02RD 02RO	0	1	2.68308806419	None	None	None	None	1
2.7	2015_May_07_1207	s	s	2	5	SIC	419	ABS	2	0	02VD 02VO 10VC 02MD 02MO 02MC 02RD 02RO	0	1	1.90121388435	None	None	None	None	1
2.7	2015_May_07_1207	s	s	2	5	SIC	420	ABS	0	2	02VD 02VO 02VC 02MD 02MO 02MC 10RD 02RO	0	1	2.48302817345	None	None	None	None	1
2.7	2015_May_07_1207	s	s	2	5	SIC	421	RC	1	2	02VD 02VO 02VC 09MD 02MO 02MC 02RD 02RO	1	0	1.31423783302	125.0	395.0	128	398	1
2.7	2015_May_07_1207	s	s	2	5	SIC	422	ABS	2	1	02VD 10VO 02VC 02MD 02MO 02MC 02RD 02RO	0	1	1.97143316269	None	None	None	None	1
2.7	2015_May_07_1207	s	s	2	5	SIC	423	RC	0	2	02VD 02VO 02VC 02MD 02MO 02MC 09RD 02RO	1	0	0.823297977448	-510.0	311.0	-512	316	1
2.7	2015_May_07_1207	s	s	2	5	SIC	424	RC	2	2	09VD 02VO 02VC 02MD 02MO 02MC 02RD 02RO	1	0	0.540923118591	-366.0	140.0	-362	149	1
2.7	2015_May_07_1207	s	s	2	5	SIC	425	RC	2	1	02VD 09VO 02VC 02MD 02MO 02MC 02RD 02RO	1	0	1.08905506134	-501.0	376.0	-509	381	1
2.7	2015_May_07_1207	s	s	2	5	SIC	426	RC	1	0	02VD 02VO 02VC 02MD 02MO 09MC 02RD 02RO	1	0	1.29443883896	91.0	-215.0	88	-208	1
2.7	2015_May_07_1207	s	s	2	5	SIC	427	RC	0	1	02VD 02VO 02VC 02MD 02MO 02MC 02RD 09RO	1	0	3.04423999786	-268.0	-395.0	-262	-393	1
2.7	2015_May_07_1207	s	s	2	5	SIC	428	ABS	2	2	10VD 02VO 02VC 02MD 02MO 02MC 02RD 02RO	0	1	1.83064198494	None	None	None	None	1
2.7	2015_May_07_1207	s	s	2	5	SIC	429	RC	1	1	02VD 02VO 02VC 02MD 09MO 02MC 02RD 02RO	1	0	1.0469789505	-341.0	-126.0	-352	-126	1
2.7	2015_May_07_1207	s	s	2	5	SIC	430	ABS	1	2	02VD 02VO 02VC 10MD 02MO 02MC 02RD 02RO	0	1	1.52955198288	None	None	None	None	1
2.7	2015_May_07_1207	s	s	2	5	SIC	431	RC	2	0	02VD 02VO 09VC 02MD 02MO 02MC 02RD 02RO	1	0	1.49430680275	162.0	360.0	154	364	1
2.7	2015_May_07_1207	s	s	2	5	SIC	432	ABS	0	1	02VD 02VO 02VC 02MD 02MO 02MC 02RD 10RO	0	1	4.25763106346	None	None	None	None	1
2.7	2015_May_07_1207	s	s	2	5	SIC	433	RC	2	1	02VD 09VO 02VC 02MD 02MO 02MC 02RD 02RO	1	0	2.00039505959	-465.0	-166.0	-475	-166	1
2.7	2015_May_07_1207	s	s	2	5	SIC	434	RC	2	0	02VD 02VO 09VC 02MD 02MO 02MC 02RD 02RO	1	0	0.724104166031	-150.0	104.0	-140	103	1
2.7	2015_May_07_1207	s	s	2	5	SIC	435	ABS	1	2	02VD 02VO 02VC 10MD 02MO 02MC 02RD 02RO	0	1	1.92461299896	None	None	None	None	1
2.7	2015_May_07_1207	s	s	2	5	SIC	436	RC	0	1	02VD 02VO 02VC 02MD 02MO 02MC 02RD 09RO	1	0	3.34904885292	252.0	-368.0	250	-378	1
2.7	2015_May_07_1207	s	s	2	5	SIC	437	RC	1	1	02VD 02VO 02VC 02MD 09MO 02MC 02RD 02RO	1	0	1.40002393723	538.0	356.0	527	361	1
2.7	2015_May_07_1207	s	s	2	5	SIC	438	RC	1	0	02VD 02VO 02VC 02MD 02MO 09MC 02RD 02RO	1	0	1.02349996567	-49.0	346.0	-56	345	1
2.7	2015_May_07_1207	s	s	2	5	SIC	439	RC	2	2	09VD 02VO 02VC 02MD 02MO 02MC 02RD 02RO	1	0	0.547523021698	19.0	-37.0	13	-38	1
2.7	2015_May_07_1207	s	s	2	5	SIC	440	ABS	0	2	02VD 02VO 02VC 02MD 02MO 02MC 10RD 02RO	0	1	1.60017895699	None	None	None	None	1
2.7	2015_May_07_1207	s	s	2	5	SIC	441	RC	0	2	02VD 02VO 02VC 02MD 02MO 02MC 09RD 02RO	1	0	0.879413127899	318.0	-51.0	327	-53	1
2.7	2015_May_07_1207	s	s	2	5	SIC	442	ABS	1	0	02VD 02VO 02VC 02MD 02MO 10MC 02RD 02RO	0	1	2.2681388855	None	None	None	None	1
2.7	2015_May_07_1207	s	s	2	5	SIC	443	ABS	2	0	02VD 02VO 10VC 02MD 02MO 02MC 02RD 02RO	0	1	1.68939113617	None	None	None	None	1
2.7	2015_May_07_1207	s	s	2	5	SIC	444	ABS	1	1	02VD 02VO 02VC 02MD 10MO 02MC 02RD 02RO	0	1	1.63539195061	None	None	None	None	1
2.7	2015_May_07_1207	s	s	2	5	SIC	445	ABS	0	1	02VD 02VO 02VC 02MD 02MO 02MC 02RD 10RO	0	1	2.51590108871	None	None	None	None	1
2.7	2015_May_07_1207	s	s	2	5	SIC	446	ABS	2	1	02VD 10VO 02VC 02MD 02MO 02MC 02RD 02RO	0	1	1.61991119385	None	None	None	None	1
2.7	2015_May_07_1207	s	s	2	5	SIC	447	ABS	2	2	10VD 02VO 02VC 02MD 02MO 02MC 02RD 02RO	0	1	0.95952296257	None	None	None	None	1
2.7	2015_May_07_1207	s	s	2	5	SIC	448	RC	1	2	02VD 02VO 02VC 09MD 02MO 02MC 02RD 02RO	0	1	1.18000793457	492.0	-77.0	None	None	0
2.7	2015_May_07_1207	s	s	2	5	SIC	449	RC	2	1	02VD 09VO 02VC 02MD 02MO 02MC 02RD 02RO	1	0	1.52955293655	-281.0	-386.0	-288	-390	1
2.7	2015_May_07_1207	s	s	2	5	SIC	450	ABS	2	2	10VD 02VO 02VC 02MD 02MO 02MC 02RD 02RO	0	1	1.7060739994	None	None	None	None	1
2.7	2015_May_07_1207	s	s	2	5	SIC	451	ABS	1	1	02VD 02VO 02VC 02MD 10MO 02MC 02RD 02RO	0	1	1.97348499298	None	None	None	None	1
2.7	2015_May_07_1207	s	s	2	5	SIC	452	ABS	0	1	02VD 02VO 02VC 02MD 02MO 02MC 02RD 10RO	0	1	2.31813097	None	None	None	None	1
2.7	2015_May_07_1207	s	s	2	5	SIC	453	ABS	2	0	02VD 02VO 10VC 02MD 02MO 02MC 02RD 02RO	0	1	1.88940501213	None	None	None	None	1
2.7	2015_May_07_1207	s	s	2	5	SIC	454	ABS	0	2	02VD 02VO 02VC 02MD 02MO 02MC 10RD 02RO	0	1	1.44205999374	None	None	None	None	1
2.7	2015_May_07_1207	s	s	2	5	SIC	455	RC	2	0	02VD 02VO 09VC 02MD 02MO 02MC 02RD 02RO	1	0	0.641926050186	-147.0	114.0	-143	113	1
2.7	2015_May_07_1207	s	s	2	5	SIC	456	RC	1	0	02VD 02VO 02VC 02MD 02MO 09MC 02RD 02RO	1	0	0.95284485817	-245.0	-257.0	-259	-249	1
2.7	2015_May_07_1207	s	s	2	5	SIC	457	RC	2	2	09VD 02VO 02VC 02MD 02MO 02MC 02RD 02RO	1	0	0.764446020126	9.0	247.0	16	252	1
2.7	2015_May_07_1207	s	s	2	5	SIC	458	RC	1	1	02VD 02VO 02VC 02MD 09MO 02MC 02RD 02RO	1	0	0.823246002197	-287.0	114.0	-279	108	1
2.7	2015_May_07_1207	s	s	2	5	SIC	459	ABS	1	2	02VD 02VO 02VC 10MD 02MO 02MC 02RD 02RO	0	1	1.55906105042	None	None	None	None	1
2.7	2015_May_07_1207	s	s	2	5	SIC	460	RC	0	2	02VD 02VO 02VC 02MD 02MO 02MC 09RD 02RO	1	0	0.941085100174	-232.0	-117.0	-240	-114	1
2.7	2015_May_07_1207	s	s	2	5	SIC	461	RC	1	2	02VD 02VO 02VC 09MD 02MO 02MC 02RD 02RO	1	0	1.3058860302	-368.0	243.0	-363	242	1
2.7	2015_May_07_1207	s	s	2	5	SIC	462	ABS	1	0	02VD 02VO 02VC 02MD 02MO 10MC 02RD 02RO	0	1	2.3015229702	None	None	None	None	1
2.7	2015_May_07_1207	s	s	2	5	SIC	463	ABS	2	1	02VD 10VO 02VC 02MD 02MO 02MC 02RD 02RO	0	1	1.78844499588	None	None	None	None	1
2.7	2015_May_07_1207	s	s	2	5	SIC	464	RC	0	1	02VD 02VO 02VC 02MD 02MO 02MC 02RD 09RO	1	0	3.36066102982	-115.0	-86.0	-116	-100	1
2.7	2015_May_07_1207	s	s	2	5	SIC	465	RC	2	1	02VD 09VO 02VC 02MD 02MO 02MC 02RD 02RO	1	0	0.947905063629	255.0	-89.0	252	-94	1
2.7	2015_May_07_1207	s	s	2	5	SIC	466	RC	1	2	02VD 02VO 02VC 09MD 02MO 02MC 02RD 02RO	1	0	0.768182992935	-91.0	-118.0	-101	-118	1
2.7	2015_May_07_1207	s	s	2	5	SIC	467	RC	1	0	02VD 02VO 02VC 02MD 02MO 09MC 02RD 02RO	1	0	1.50969290733	-495.0	-99.0	-498	-92	1
2.7	2015_May_07_1207	s	s	2	5	SIC	468	ABS	1	1	02VD 02VO 02VC 02MD 10MO 02MC 02RD 02RO	0	1	1.91298294067	None	None	None	None	1
2.7	2015_May_07_1207	s	s	2	5	SIC	469	RC	0	1	02VD 02VO 02VC 02MD 02MO 02MC 02RD 09RO	1	0	1.45895004272	81.0	316.0	73	321	1
2.7	2015_May_07_1207	s	s	2	5	SIC	470	RC	2	2	09VD 02VO 02VC 02MD 02MO 02MC 02RD 02RO	1	0	0.629964113235	52.0	181.0	53	187	1
2.7	2015_May_07_1207	s	s	2	5	SIC	471	RC	0	2	02VD 02VO 02VC 02MD 02MO 02MC 09RD 02RO	1	0	0.890717983246	30.0	311.0	23	308	1
2.7	2015_May_07_1207	s	s	2	5	SIC	472	ABS	2	0	02VD 02VO 10VC 02MD 02MO 02MC 02RD 02RO	0	1	2.21908283234	None	None	None	None	1
2.7	2015_May_07_1207	s	s	2	5	SIC	473	ABS	2	1	02VD 10VO 02VC 02MD 02MO 02MC 02RD 02RO	0	1	1.53777122498	None	None	None	None	1
2.7	2015_May_07_1207	s	s	2	5	SIC	474	ABS	0	1	02VD 02VO 02VC 02MD 02MO 02MC 02RD 10RO	0	1	3.2089869976	None	None	None	None	1
2.7	2015_May_07_1207	s	s	2	5	SIC	475	RC	1	1	02VD 02VO 02VC 02MD 09MO 02MC 02RD 02RO	1	0	0.549156904221	176.0	167.0	177	168	1
2.7	2015_May_07_1207	s	s	2	5	SIC	476	ABS	2	2	10VD 02VO 02VC 02MD 02MO 02MC 02RD 02RO	0	1	1.78851795197	None	None	None	None	1
2.7	2015_May_07_1207	s	s	2	5	SIC	477	ABS	1	2	02VD 02VO 02VC 10MD 02MO 02MC 02RD 02RO	0	1	2.01880908012	None	None	None	None	1
2.7	2015_May_07_1207	s	s	2	5	SIC	478	RC	2	0	02VD 02VO 09VC 02MD 02MO 02MC 02RD 02RO	0	1	1.87073707581	509.0	-406.0	None	None	0
2.7	2015_May_07_1207	s	s	2	5	SIC	479	ABS	0	2	02VD 02VO 02VC 02MD 02MO 02MC 10RD 02RO	0	1	1.55669403076	None	None	None	None	1
2.7	2015_May_07_1207	s	s	2	5	SIC	480	ABS	1	0	02VD 02VO 02VC 02MD 02MO 10MC 02RD 02RO	0	1	2.32668495178	None	None	None	None	1
