Version	Date	Stimuli	Method	Subject	Session	Condition	Trial	Target	Channel1	Channel2	Distractors	LMouseButton	RMouseButton	RT	TargetX	TargetY	ResponseX	ResponseY	Correct
2.7	2015_May_08_1151	s	s	3	4	Capacity	1	ABS	0	2	16RD 08RO	0	1	2.15332007408	None	None	None	None	1
2.7	2015_May_08_1151	s	s	3	4	Capacity	2	RC	0	1	08RD 15RO	1	0	2.8570959568	398.0	74.0	408	83	1
2.7	2015_May_08_1151	s	s	3	4	Capacity	3	ABS	0	1	08RD 16RO	0	1	2.58878207207	None	None	None	None	1
2.7	2015_May_08_1151	s	s	3	4	Capacity	4	RC	0	2	15RD 08RO	1	0	0.941165924072	-134.0	266.0	-121	275	1
2.7	2015_May_08_1151	s	s	3	4	Capacity	5	RC	0	2	15RD 08RO	1	0	1.72424602509	208.0	-338.0	213	-344	1
2.7	2015_May_08_1151	s	s	3	4	Capacity	6	RC	0	1	08RD 15RO	1	0	1.65619397163	-461.0	269.0	-463	264	1
2.7	2015_May_08_1151	s	s	3	4	Capacity	7	ABS	0	2	16RD 08RO	0	1	2.21220397949	None	None	None	None	1
2.7	2015_May_08_1151	s	s	3	4	Capacity	8	ABS	0	1	08RD 16RO	0	1	3.30221104622	None	None	None	None	1
2.7	2015_May_08_1151	s	s	3	4	Capacity	9	ABS	0	1	08RD 16RO	0	1	2.66592812538	None	None	None	None	1
2.7	2015_May_08_1151	s	s	3	4	Capacity	10	ABS	0	2	16RD 08RO	0	1	2.16252684593	None	None	None	None	1
2.7	2015_May_08_1151	s	s	3	4	Capacity	11	RC	0	1	08RD 15RO	1	0	1.8003821373	512.0	350.0	511	348	1
2.7	2015_May_08_1151	s	s	3	4	Capacity	12	RC	0	2	15RD 08RO	1	0	1.60024404526	267.0	273.0	270	269	1
2.7	2015_May_08_1151	s	s	3	4	Capacity	13	ABS	0	2	16RD 08RO	0	1	1.7465069294	None	None	None	None	1
2.7	2015_May_08_1151	s	s	3	4	Capacity	14	RC	0	2	15RD 08RO	1	0	2.01242399216	-318.0	-256.0	-321	-256	1
2.7	2015_May_08_1151	s	s	3	4	Capacity	15	RC	0	1	08RD 15RO	1	0	2.80895400047	518.0	238.0	522	238	1
2.7	2015_May_08_1151	s	s	3	4	Capacity	16	ABS	0	1	08RD 16RO	0	1	2.9042699337	None	None	None	None	1
2.7	2015_May_08_1151	s	s	3	4	Capacity	17	RC	0	2	15RD 08RO	1	0	2.2094399929	185.0	280.0	185	281	1
2.7	2015_May_08_1151	s	s	3	4	Capacity	18	RC	0	1	08RD 15RO	1	0	0.806875944138	-114.0	308.0	-114	312	1
2.7	2015_May_08_1151	s	s	3	4	Capacity	19	ABS	0	2	16RD 08RO	0	1	2.12497115135	None	None	None	None	1
2.7	2015_May_08_1151	s	s	3	4	Capacity	20	ABS	0	1	08RD 16RO	0	1	3.84283304214	None	None	None	None	1
2.7	2015_May_08_1151	s	s	3	4	Capacity	21	ABS	0	1	08RD 16RO	0	1	3.21275997162	None	None	None	None	1
2.7	2015_May_08_1151	s	s	3	4	Capacity	22	RC	0	1	08RD 15RO	1	0	2.83369112015	109.0	195.0	106	194	1
2.7	2015_May_08_1151	s	s	3	4	Capacity	23	RC	0	2	15RD 08RO	1	0	2.36533999443	396.0	-310.0	399	-311	1
2.7	2015_May_08_1151	s	s	3	4	Capacity	24	ABS	0	2	16RD 08RO	0	1	1.76235795021	None	None	None	None	1
2.7	2015_May_08_1151	s	s	3	4	Capacity	25	ABS	0	2	16RD 08RO	0	1	1.78852105141	None	None	None	None	1
2.7	2015_May_08_1151	s	s	3	4	Capacity	26	RC	0	2	15RD 08RO	1	0	1.00679302216	-24.0	264.0	-27	271	1
2.7	2015_May_08_1151	s	s	3	4	Capacity	27	ABS	0	1	08RD 16RO	0	1	3.41891598701	None	None	None	None	1
2.7	2015_May_08_1151	s	s	3	4	Capacity	28	RC	0	1	08RD 15RO	1	0	1.81206989288	-22.0	-36.0	-19	-28	1
2.7	2015_May_08_1151	s	s	3	4	Capacity	29	ABS	0	1	08RD 16RO	0	1	3.21054005623	None	None	None	None	1
2.7	2015_May_08_1151	s	s	3	4	Capacity	30	RC	0	2	15RD 08RO	1	0	2.23630905151	419.0	-108.0	422	-110	1
2.7	2015_May_08_1151	s	s	3	4	Capacity	31	ABS	0	2	16RD 08RO	0	1	2.03063297272	None	None	None	None	1
2.7	2015_May_08_1151	s	s	3	4	Capacity	32	RC	0	1	08RD 15RO	1	0	0.69028711319	-322.0	142.0	-331	144	1
2.7	2015_May_08_1151	s	s	3	4	Capacity	33	ABS	0	1	08RD 16RO	0	1	4.0014500618	None	None	None	None	1
2.7	2015_May_08_1151	s	s	3	4	Capacity	34	ABS	0	2	16RD 08RO	0	1	1.92470502853	None	None	None	None	1
2.7	2015_May_08_1151	s	s	3	4	Capacity	35	RC	0	1	08RD 15RO	1	0	2.00695919991	-13.0	-405.0	-16	-409	1
2.7	2015_May_08_1151	s	s	3	4	Capacity	36	RC	0	2	15RD 08RO	1	0	2.35100889206	-534.0	-389.0	-537	-395	1
2.7	2015_May_08_1151	s	s	3	4	Capacity	37	RC	0	2	15RD 08RO	1	0	1.04374504089	-528.0	384.0	-532	381	1
2.7	2015_May_08_1151	s	s	3	4	Capacity	38	ABS	0	2	16RD 08RO	0	1	1.66829895973	None	None	None	None	1
2.7	2015_May_08_1151	s	s	3	4	Capacity	39	ABS	0	1	08RD 16RO	0	1	3.80957221985	None	None	None	None	1
2.7	2015_May_08_1151	s	s	3	4	Capacity	40	RC	0	1	08RD 15RO	1	0	2.06543922424	-505.0	-363.0	-505	-363	1
2.7	2015_May_08_1151	s	s	3	4	Capacity	41	RC	0	2	15RD 08RO	1	0	1.70034408569	-495.0	-152.0	-489	-153	1
2.7	2015_May_08_1151	s	s	3	4	Capacity	42	RC	0	1	08RD 15RO	1	0	2.43575906754	470.0	344.0	471	345	1
2.7	2015_May_08_1151	s	s	3	4	Capacity	43	ABS	0	1	08RD 16RO	0	1	2.71354389191	None	None	None	None	1
2.7	2015_May_08_1151	s	s	3	4	Capacity	44	ABS	0	2	16RD 08RO	0	1	2.70659303665	None	None	None	None	1
2.7	2015_May_08_1151	s	s	3	4	Capacity	45	RC	0	1	08RD 15RO	1	0	2.15969896317	88.0	-80.0	85	-79	1
2.7	2015_May_08_1151	s	s	3	4	Capacity	46	ABS	0	2	16RD 08RO	1	0	1.63030385971	None	None	83	-134	0
2.7	2015_May_08_1151	s	s	3	4	Capacity	47	RC	0	2	15RD 08RO	1	0	0.573647975922	-223.0	149.0	-221	146	1
2.7	2015_May_08_1151	s	s	3	4	Capacity	48	ABS	0	1	08RD 16RO	0	1	2.97736501694	None	None	None	None	1
2.7	2015_May_08_1151	s	s	3	4	Capacity	49	RC	0	2	15RD 08RO	1	0	1.41811084747	207.0	-343.0	207	-339	1
2.7	2015_May_08_1151	s	s	3	4	Capacity	50	ABS	0	2	16RD 08RO	0	1	1.87777304649	None	None	None	None	1
2.7	2015_May_08_1151	s	s	3	4	Capacity	51	ABS	0	1	08RD 16RO	0	1	3.26851296425	None	None	None	None	1
2.7	2015_May_08_1151	s	s	3	4	Capacity	52	RC	0	1	08RD 15RO	1	0	2.59555101395	-324.0	-370.0	-327	-371	1
2.7	2015_May_08_1151	s	s	3	4	Capacity	53	ABS	0	1	08RD 16RO	0	1	2.87884116173	None	None	None	None	1
2.7	2015_May_08_1151	s	s	3	4	Capacity	54	RC	0	1	08RD 15RO	1	0	2.01251292229	183.0	89.0	186	94	1
2.7	2015_May_08_1151	s	s	3	4	Capacity	55	RC	0	2	15RD 08RO	1	0	0.693874835968	-445.0	17.0	-440	17	1
2.7	2015_May_08_1151	s	s	3	4	Capacity	56	ABS	0	2	16RD 08RO	0	1	1.95317006111	None	None	None	None	1
2.7	2015_May_08_1151	s	s	3	4	Capacity	57	RC	0	2	15RD 08RO	1	0	1.42378592491	80.0	-348.0	87	-352	1
2.7	2015_May_08_1151	s	s	3	4	Capacity	58	ABS	0	1	08RD 16RO	0	1	3.38448500633	None	None	None	None	1
2.7	2015_May_08_1151	s	s	3	4	Capacity	59	RC	0	1	08RD 15RO	1	0	2.09010791779	56.0	268.0	60	268	1
2.7	2015_May_08_1151	s	s	3	4	Capacity	60	ABS	0	2	16RD 08RO	0	1	2.57713294029	None	None	None	None	1
2.7	2015_May_08_1151	s	s	3	4	Capacity	61	ABS	0	1	08RD 16RO	0	1	3.65998005867	None	None	None	None	1
2.7	2015_May_08_1151	s	s	3	4	Capacity	62	ABS	0	2	16RD 08RO	0	1	2.6655831337	None	None	None	None	1
2.7	2015_May_08_1151	s	s	3	4	Capacity	63	RC	0	2	15RD 08RO	1	0	1.17663788795	-110.0	-354.0	-105	-351	1
2.7	2015_May_08_1151	s	s	3	4	Capacity	64	RC	0	1	08RD 15RO	1	0	1.04685091972	500.0	-217.0	497	-215	1
2.7	2015_May_08_1151	s	s	3	4	Capacity	1	RC	1	0	08VC 15MC	1	0	0.823306083679	-92.0	232.0	-100	226	1
2.7	2015_May_08_1151	s	s	3	4	Capacity	2	ABS	2	0	16VC 08MC	0	1	1.11761498451	None	None	None	None	1
2.7	2015_May_08_1151	s	s	3	4	Capacity	3	ABS	1	0	08VC 16MC	0	1	2.56209206581	None	None	None	None	1
2.7	2015_May_08_1151	s	s	3	4	Capacity	4	RC	2	0	15VC 08MC	1	0	0.623333930969	88.0	232.0	91	229	1
2.7	2015_May_08_1151	s	s	3	4	Capacity	5	RC	1	0	08VC 15MC	1	0	0.509402036667	130.0	12.0	133	16	1
2.7	2015_May_08_1151	s	s	3	4	Capacity	6	RC	2	0	15VC 08MC	1	0	0.481965065002	-68.0	-23.0	-56	-16	1
2.7	2015_May_08_1151	s	s	3	4	Capacity	7	ABS	1	0	08VC 16MC	0	1	1.85915398598	None	None	None	None	1
2.7	2015_May_08_1151	s	s	3	4	Capacity	8	ABS	2	0	16VC 08MC	0	1	1.07846403122	None	None	None	None	1
2.7	2015_May_08_1151	s	s	3	4	Capacity	9	ABS	1	0	08VC 16MC	0	1	2.63076996803	None	None	None	None	1
2.7	2015_May_08_1151	s	s	3	4	Capacity	10	ABS	2	0	16VC 08MC	0	1	1.56162118912	None	None	None	None	1
2.7	2015_May_08_1151	s	s	3	4	Capacity	11	RC	1	0	08VC 15MC	1	0	1.02716112137	510.0	-189.0	516	-185	1
2.7	2015_May_08_1151	s	s	3	4	Capacity	12	RC	2	0	15VC 08MC	1	0	0.446752071381	-110.0	-217.0	-113	-216	1
2.7	2015_May_08_1151	s	s	3	4	Capacity	13	RC	2	0	15VC 08MC	1	0	0.387902021408	-246.0	9.0	-247	12	1
2.7	2015_May_08_1151	s	s	3	4	Capacity	14	ABS	1	0	08VC 16MC	0	1	2.27103495598	None	None	None	None	1
2.7	2015_May_08_1151	s	s	3	4	Capacity	15	RC	1	0	08VC 15MC	1	0	0.442312955856	-250.0	61.0	-246	66	1
2.7	2015_May_08_1151	s	s	3	4	Capacity	16	ABS	2	0	16VC 08MC	0	1	1.16130399704	None	None	None	None	1
2.7	2015_May_08_1151	s	s	3	4	Capacity	17	ABS	2	0	16VC 08MC	0	1	3.17265796661	None	None	None	None	1
2.7	2015_May_08_1151	s	s	3	4	Capacity	18	RC	1	0	08VC 15MC	1	0	0.522494077682	-196.0	57.0	-191	56	1
2.7	2015_May_08_1151	s	s	3	4	Capacity	19	ABS	1	0	08VC 16MC	0	1	1.55914902687	None	None	None	None	1
2.7	2015_May_08_1151	s	s	3	4	Capacity	20	RC	2	0	15VC 08MC	1	0	0.423286914825	-97.0	90.0	-89	92	1
2.7	2015_May_08_1151	s	s	3	4	Capacity	21	ABS	1	0	08VC 16MC	0	1	1.19997787476	None	None	None	None	1
2.7	2015_May_08_1151	s	s	3	4	Capacity	22	RC	1	0	08VC 15MC	1	0	0.481868028641	-12.0	-121.0	-3	-125	1
2.7	2015_May_08_1151	s	s	3	4	Capacity	23	ABS	2	0	16VC 08MC	0	1	1.41194200516	None	None	None	None	1
2.7	2015_May_08_1151	s	s	3	4	Capacity	24	RC	2	0	15VC 08MC	1	0	0.553076982498	137.0	-146.0	144	-141	1
2.7	2015_May_08_1151	s	s	3	4	Capacity	25	ABS	1	0	08VC 16MC	0	1	1.37650299072	None	None	None	None	1
2.7	2015_May_08_1151	s	s	3	4	Capacity	26	ABS	2	0	16VC 08MC	0	1	1.41186594963	None	None	None	None	1
2.7	2015_May_08_1151	s	s	3	4	Capacity	27	RC	1	0	08VC 15MC	1	0	0.985689163208	306.0	-305.0	313	-308	1
2.7	2015_May_08_1151	s	s	3	4	Capacity	28	RC	2	0	15VC 08MC	1	0	0.481996059418	223.0	168.0	222	168	1
2.7	2015_May_08_1151	s	s	3	4	Capacity	29	RC	1	0	08VC 15MC	1	0	0.529050111771	100.0	244.0	102	244	1
2.7	2015_May_08_1151	s	s	3	4	Capacity	30	ABS	1	0	08VC 16MC	0	1	1.10582590103	None	None	None	None	1
2.7	2015_May_08_1151	s	s	3	4	Capacity	31	ABS	2	0	16VC 08MC	0	1	1.14112186432	None	None	None	None	1
2.7	2015_May_08_1151	s	s	3	4	Capacity	32	RC	2	0	15VC 08MC	1	0	0.38765001297	-107.0	92.0	-100	92	1
2.7	2015_May_08_1151	s	s	3	4	Capacity	33	RC	1	0	08VC 15MC	1	0	0.446472883224	130.0	196.0	137	189	1
2.7	2015_May_08_1151	s	s	3	4	Capacity	34	RC	2	0	15VC 08MC	1	0	0.39365196228	-391.0	22.0	-381	27	1
2.7	2015_May_08_1151	s	s	3	4	Capacity	35	ABS	2	0	16VC 08MC	0	1	1.72626399994	None	None	None	None	1
2.7	2015_May_08_1151	s	s	3	4	Capacity	36	ABS	1	0	08VC 16MC	0	1	2.44175505638	None	None	None	None	1
2.7	2015_May_08_1151	s	s	3	4	Capacity	37	RC	2	0	15VC 08MC	1	0	0.646714925766	312.0	325.0	309	327	1
2.7	2015_May_08_1151	s	s	3	4	Capacity	38	ABS	2	0	16VC 08MC	0	1	1.16454291344	None	None	None	None	1
2.7	2015_May_08_1151	s	s	3	4	Capacity	39	RC	1	0	08VC 15MC	1	0	0.658545970917	-14.0	331.0	-15	334	1
2.7	2015_May_08_1151	s	s	3	4	Capacity	40	ABS	1	0	08VC 16MC	0	1	1.10555696487	None	None	None	None	1
2.7	2015_May_08_1151	s	s	3	4	Capacity	41	RC	1	0	08VC 15MC	1	0	1.19695901871	-442.0	-249.0	-439	-252	1
2.7	2015_May_08_1151	s	s	3	4	Capacity	42	ABS	2	0	16VC 08MC	0	1	0.964545965195	None	None	None	None	1
2.7	2015_May_08_1151	s	s	3	4	Capacity	43	RC	2	0	15VC 08MC	1	0	1.28267097473	354.0	329.0	362	325	1
2.7	2015_May_08_1151	s	s	3	4	Capacity	44	ABS	1	0	08VC 16MC	0	1	1.41834783554	None	None	None	None	1
2.7	2015_May_08_1151	s	s	3	4	Capacity	45	ABS	2	0	16VC 08MC	0	1	1.3031039238	None	None	None	None	1
2.7	2015_May_08_1151	s	s	3	4	Capacity	46	RC	2	0	15VC 08MC	1	0	0.874720096588	446.0	-32.0	437	-29	1
2.7	2015_May_08_1151	s	s	3	4	Capacity	47	ABS	1	0	08VC 16MC	0	1	1.30094695091	None	None	None	None	1
2.7	2015_May_08_1151	s	s	3	4	Capacity	48	RC	1	0	08VC 15MC	1	0	0.64655995369	-402.0	71.0	-409	74	1
2.7	2015_May_08_1151	s	s	3	4	Capacity	49	RC	1	0	08VC 15MC	1	0	0.632102966309	-473.0	-138.0	-476	-139	1
2.7	2015_May_08_1151	s	s	3	4	Capacity	50	ABS	2	0	16VC 08MC	0	1	0.964576005936	None	None	None	None	1
2.7	2015_May_08_1151	s	s	3	4	Capacity	51	RC	2	0	15VC 08MC	1	0	0.835161924362	19.0	356.0	23	348	1
2.7	2015_May_08_1151	s	s	3	4	Capacity	52	ABS	1	0	08VC 16MC	0	1	1.36476612091	None	None	None	None	1
2.7	2015_May_08_1151	s	s	3	4	Capacity	53	ABS	2	0	16VC 08MC	0	1	1.78610181808	None	None	None	None	1
2.7	2015_May_08_1151	s	s	3	4	Capacity	54	RC	1	0	08VC 15MC	1	0	0.71245598793	182.0	-392.0	178	-392	1
2.7	2015_May_08_1151	s	s	3	4	Capacity	55	ABS	1	0	08VC 16MC	0	1	1.14804792404	None	None	None	None	1
2.7	2015_May_08_1151	s	s	3	4	Capacity	56	RC	2	0	15VC 08MC	1	0	0.552845001221	287.0	332.0	293	335	1
2.7	2015_May_08_1151	s	s	3	4	Capacity	57	ABS	1	0	08VC 16MC	0	1	1.35685896873	None	None	None	None	1
2.7	2015_May_08_1151	s	s	3	4	Capacity	58	ABS	2	0	16VC 08MC	0	1	1.41811585426	None	None	None	None	1
2.7	2015_May_08_1151	s	s	3	4	Capacity	59	RC	2	0	15VC 08MC	1	0	0.532730102539	-141.0	-300.0	-144	-300	1
2.7	2015_May_08_1151	s	s	3	4	Capacity	60	RC	1	0	08VC 15MC	1	0	0.53585100174	-521.0	312.0	-532	316	1
2.7	2015_May_08_1151	s	s	3	4	Capacity	61	RC	2	0	15VC 08MC	1	0	0.503014802933	-69.0	-44.0	-76	-35	1
2.7	2015_May_08_1151	s	s	3	4	Capacity	62	ABS	1	0	08VC 16MC	0	1	1.79650497437	None	None	None	None	1
2.7	2015_May_08_1151	s	s	3	4	Capacity	63	RC	1	0	08VC 15MC	1	0	0.61843419075	23.0	-392.0	15	-392	1
2.7	2015_May_08_1151	s	s	3	4	Capacity	64	ABS	2	0	16VC 08MC	0	1	1.6895160675	None	None	None	None	1
2.7	2015_May_08_1151	s	s	3	4	SIC	1	RC	1	1	02VD 02VO 02VC 02MD 09MO 02MC 02RD 02RO	1	0	0.700702905655	179.0	30.0	169	37	1
2.7	2015_May_08_1151	s	s	3	4	SIC	2	RC	1	2	02VD 02VO 02VC 09MD 02MO 02MC 02RD 02RO	1	0	0.870437145233	-540.0	258.0	-542	262	1
2.7	2015_May_08_1151	s	s	3	4	SIC	3	RC	0	2	02VD 02VO 02VC 02MD 02MO 02MC 09RD 02RO	1	0	0.67029094696	-152.0	267.0	-153	268	1
2.7	2015_May_08_1151	s	s	3	4	SIC	4	ABS	0	1	02VD 02VO 02VC 02MD 02MO 02MC 02RD 10RO	0	1	2.28024101257	None	None	None	None	1
2.7	2015_May_08_1151	s	s	3	4	SIC	5	RC	2	0	02VD 02VO 09VC 02MD 02MO 02MC 02RD 02RO	1	0	1.16194605827	340.0	227.0	339	233	1
2.7	2015_May_08_1151	s	s	3	4	SIC	6	ABS	2	0	02VD 02VO 10VC 02MD 02MO 02MC 02RD 02RO	0	1	1.46797704697	None	None	None	None	1
2.7	2015_May_08_1151	s	s	3	4	SIC	7	ABS	2	1	02VD 10VO 02VC 02MD 02MO 02MC 02RD 02RO	0	1	1.6682600975	None	None	None	None	1
2.7	2015_May_08_1151	s	s	3	4	SIC	8	ABS	0	2	02VD 02VO 02VC 02MD 02MO 02MC 10RD 02RO	0	1	1.67076611519	None	None	None	None	1
2.7	2015_May_08_1151	s	s	3	4	SIC	9	RC	0	1	02VD 02VO 02VC 02MD 02MO 02MC 02RD 09RO	1	0	1.04140591621	-447.0	95.0	-446	104	1
2.7	2015_May_08_1151	s	s	3	4	SIC	10	ABS	2	2	10VD 02VO 02VC 02MD 02MO 02MC 02RD 02RO	0	1	1.40634894371	None	None	None	None	1
2.7	2015_May_08_1151	s	s	3	4	SIC	11	ABS	1	2	02VD 02VO 02VC 10MD 02MO 02MC 02RD 02RO	0	1	1.88291120529	None	None	None	None	1
2.7	2015_May_08_1151	s	s	3	4	SIC	12	RC	2	1	02VD 09VO 02VC 02MD 02MO 02MC 02RD 02RO	1	0	1.24709486961	431.0	218.0	435	222	1
2.7	2015_May_08_1151	s	s	3	4	SIC	13	RC	1	0	02VD 02VO 02VC 02MD 02MO 09MC 02RD 02RO	1	0	0.976379871368	343.0	-87.0	349	-87	1
2.7	2015_May_08_1151	s	s	3	4	SIC	14	ABS	1	1	02VD 02VO 02VC 02MD 10MO 02MC 02RD 02RO	0	1	1.48259997368	None	None	None	None	1
2.7	2015_May_08_1151	s	s	3	4	SIC	15	RC	2	2	09VD 02VO 02VC 02MD 02MO 02MC 02RD 02RO	1	0	0.596853017807	-278.0	-223.0	-292	-218	1
2.7	2015_May_08_1151	s	s	3	4	SIC	16	ABS	1	0	02VD 02VO 02VC 02MD 02MO 10MC 02RD 02RO	0	1	2.3770968914	None	None	None	None	1
2.7	2015_May_08_1151	s	s	3	4	SIC	17	RC	1	0	02VD 02VO 02VC 02MD 02MO 09MC 02RD 02RO	1	0	0.729161024094	384.0	268.0	385	270	1
2.7	2015_May_08_1151	s	s	3	4	SIC	18	ABS	2	0	02VD 02VO 10VC 02MD 02MO 02MC 02RD 02RO	0	1	1.20617508888	None	None	None	None	1
2.7	2015_May_08_1151	s	s	3	4	SIC	19	ABS	2	2	10VD 02VO 02VC 02MD 02MO 02MC 02RD 02RO	0	1	1.32946586609	None	None	None	None	1
2.7	2015_May_08_1151	s	s	3	4	SIC	20	ABS	1	2	02VD 02VO 02VC 10MD 02MO 02MC 02RD 02RO	1	0	1.9532790184	None	None	-280	-262	0
2.7	2015_May_08_1151	s	s	3	4	SIC	21	ABS	0	1	02VD 02VO 02VC 02MD 02MO 02MC 02RD 10RO	1	0	1.07689189911	None	None	296	-345	0
2.7	2015_May_08_1151	s	s	3	4	SIC	22	ABS	0	2	02VD 02VO 02VC 02MD 02MO 02MC 10RD 02RO	0	1	1.2319560051	None	None	None	None	1
2.7	2015_May_08_1151	s	s	3	4	SIC	23	RC	1	1	02VD 02VO 02VC 02MD 09MO 02MC 02RD 02RO	1	0	0.634990930557	101.0	-68.0	106	-63	1
2.7	2015_May_08_1151	s	s	3	4	SIC	24	RC	0	2	02VD 02VO 02VC 02MD 02MO 02MC 09RD 02RO	1	0	0.971561908722	271.0	101.0	267	97	1
2.7	2015_May_08_1151	s	s	3	4	SIC	25	ABS	2	1	02VD 10VO 02VC 02MD 02MO 02MC 02RD 02RO	0	1	1.60019803047	None	None	None	None	1
2.7	2015_May_08_1151	s	s	3	4	SIC	26	RC	2	1	02VD 09VO 02VC 02MD 02MO 02MC 02RD 02RO	1	0	1.23517918587	481.0	-40.0	474	-34	1
2.7	2015_May_08_1151	s	s	3	4	SIC	27	RC	2	0	02VD 02VO 09VC 02MD 02MO 02MC 02RD 02RO	1	0	0.740737915039	-9.0	-112.0	-9	-111	1
2.7	2015_May_08_1151	s	s	3	4	SIC	28	ABS	1	1	02VD 02VO 02VC 02MD 10MO 02MC 02RD 02RO	0	1	2.17229604721	None	None	None	None	1
2.7	2015_May_08_1151	s	s	3	4	SIC	29	RC	1	2	02VD 02VO 02VC 09MD 02MO 02MC 02RD 02RO	1	0	0.773195981979	-186.0	-261.0	-183	-257	1
2.7	2015_May_08_1151	s	s	3	4	SIC	30	ABS	1	0	02VD 02VO 02VC 02MD 02MO 10MC 02RD 02RO	0	1	1.70171403885	None	None	None	None	1
2.7	2015_May_08_1151	s	s	3	4	SIC	31	RC	2	2	09VD 02VO 02VC 02MD 02MO 02MC 02RD 02RO	1	0	1.04693388939	211.0	-305.0	218	-296	1
2.7	2015_May_08_1151	s	s	3	4	SIC	32	RC	0	1	02VD 02VO 02VC 02MD 02MO 02MC 02RD 09RO	1	0	0.983025074005	-324.0	250.0	-325	256	1
2.7	2015_May_08_1151	s	s	3	4	SIC	33	RC	2	1	02VD 09VO 02VC 02MD 02MO 02MC 02RD 02RO	1	0	1.37655091286	407.0	30.0	409	30	1
2.7	2015_May_08_1151	s	s	3	4	SIC	34	RC	1	1	02VD 02VO 02VC 02MD 09MO 02MC 02RD 02RO	1	0	0.811524868011	118.0	-15.0	119	-14	1
2.7	2015_May_08_1151	s	s	3	4	SIC	35	ABS	2	1	02VD 10VO 02VC 02MD 02MO 02MC 02RD 02RO	0	1	1.18586802483	None	None	None	None	1
2.7	2015_May_08_1151	s	s	3	4	SIC	36	ABS	0	1	02VD 02VO 02VC 02MD 02MO 02MC 02RD 10RO	0	1	2.71824383736	None	None	None	None	1
2.7	2015_May_08_1151	s	s	3	4	SIC	37	RC	1	0	02VD 02VO 02VC 02MD 02MO 09MC 02RD 02RO	1	0	1.24173402786	236.0	-325.0	238	-329	1
2.7	2015_May_08_1151	s	s	3	4	SIC	38	ABS	1	1	02VD 02VO 02VC 02MD 10MO 02MC 02RD 02RO	0	1	2.10635614395	None	None	None	None	1
2.7	2015_May_08_1151	s	s	3	4	SIC	39	ABS	2	0	02VD 02VO 10VC 02MD 02MO 02MC 02RD 02RO	0	1	1.41869497299	None	None	None	None	1
2.7	2015_May_08_1151	s	s	3	4	SIC	40	RC	0	2	02VD 02VO 02VC 02MD 02MO 02MC 09RD 02RO	1	0	0.67834186554	-343.0	315.0	-345	318	1
2.7	2015_May_08_1151	s	s	3	4	SIC	41	RC	0	1	02VD 02VO 02VC 02MD 02MO 02MC 02RD 09RO	1	0	1.95699000359	151.0	16.0	153	12	1
2.7	2015_May_08_1151	s	s	3	4	SIC	42	RC	2	0	02VD 02VO 09VC 02MD 02MO 02MC 02RD 02RO	1	0	0.466670036316	-237.0	136.0	-233	130	1
2.7	2015_May_08_1151	s	s	3	4	SIC	43	ABS	2	2	10VD 02VO 02VC 02MD 02MO 02MC 02RD 02RO	0	1	1.51771807671	None	None	None	None	1
2.7	2015_May_08_1151	s	s	3	4	SIC	44	ABS	0	2	02VD 02VO 02VC 02MD 02MO 02MC 10RD 02RO	0	1	1.88002586365	None	None	None	None	1
2.7	2015_May_08_1151	s	s	3	4	SIC	45	ABS	1	0	02VD 02VO 02VC 02MD 02MO 10MC 02RD 02RO	0	1	1.66431617737	None	None	None	None	1
2.7	2015_May_08_1151	s	s	3	4	SIC	46	RC	2	2	09VD 02VO 02VC 02MD 02MO 02MC 02RD 02RO	1	0	1.24201107025	430.0	347.0	430	346	1
2.7	2015_May_08_1151	s	s	3	4	SIC	47	ABS	1	2	02VD 02VO 02VC 10MD 02MO 02MC 02RD 02RO	0	1	1.33512210846	None	None	None	None	1
2.7	2015_May_08_1151	s	s	3	4	SIC	48	RC	1	2	02VD 02VO 02VC 09MD 02MO 02MC 02RD 02RO	1	0	0.971110105515	525.0	202.0	528	201	1
2.7	2015_May_08_1151	s	s	3	4	SIC	49	ABS	1	2	02VD 02VO 02VC 10MD 02MO 02MC 02RD 02RO	0	1	2.51826810837	None	None	None	None	1
2.7	2015_May_08_1151	s	s	3	4	SIC	50	RC	1	0	02VD 02VO 02VC 02MD 02MO 09MC 02RD 02RO	1	0	2.61242485046	-3.0	350.0	-9	354	1
2.7	2015_May_08_1151	s	s	3	4	SIC	51	ABS	2	0	02VD 02VO 10VC 02MD 02MO 02MC 02RD 02RO	0	1	1.11141109467	None	None	None	None	1
2.7	2015_May_08_1151	s	s	3	4	SIC	52	ABS	2	2	10VD 02VO 02VC 02MD 02MO 02MC 02RD 02RO	0	1	1.72646999359	None	None	None	None	1
2.7	2015_May_08_1151	s	s	3	4	SIC	53	RC	0	1	02VD 02VO 02VC 02MD 02MO 02MC 02RD 09RO	1	0	2.4126060009	304.0	-15.0	304	-21	1
2.7	2015_May_08_1151	s	s	3	4	SIC	54	RC	1	2	02VD 02VO 02VC 09MD 02MO 02MC 02RD 02RO	1	0	1.00870084763	348.0	342.0	348	348	1
2.7	2015_May_08_1151	s	s	3	4	SIC	55	ABS	0	2	02VD 02VO 02VC 02MD 02MO 02MC 10RD 02RO	0	1	1.36466813087	None	None	None	None	1
2.7	2015_May_08_1151	s	s	3	4	SIC	56	ABS	1	1	02VD 02VO 02VC 02MD 10MO 02MC 02RD 02RO	0	1	1.81211090088	None	None	None	None	1
2.7	2015_May_08_1151	s	s	3	4	SIC	57	RC	1	1	02VD 02VO 02VC 02MD 09MO 02MC 02RD 02RO	1	0	0.879948139191	-240.0	30.0	-239	29	1
2.7	2015_May_08_1151	s	s	3	4	SIC	58	RC	2	1	02VD 09VO 02VC 02MD 02MO 02MC 02RD 02RO	1	0	1.08922195435	321.0	206.0	314	209	1
2.7	2015_May_08_1151	s	s	3	4	SIC	59	RC	2	2	09VD 02VO 02VC 02MD 02MO 02MC 02RD 02RO	1	0	0.597455024719	33.0	118.0	30	113	1
2.7	2015_May_08_1151	s	s	3	4	SIC	60	ABS	2	1	02VD 10VO 02VC 02MD 02MO 02MC 02RD 02RO	0	1	1.91794800758	None	None	None	None	1
2.7	2015_May_08_1151	s	s	3	4	SIC	61	ABS	1	0	02VD 02VO 02VC 02MD 02MO 10MC 02RD 02RO	1	0	2.84442400932	None	None	-269	-340	0
2.7	2015_May_08_1151	s	s	3	4	SIC	62	RC	2	0	02VD 02VO 09VC 02MD 02MO 02MC 02RD 02RO	1	0	0.794507026672	-114.0	-186.0	-116	-178	1
2.7	2015_May_08_1151	s	s	3	4	SIC	63	ABS	0	1	02VD 02VO 02VC 02MD 02MO 02MC 02RD 10RO	0	1	3.15388798714	None	None	None	None	1
2.7	2015_May_08_1151	s	s	3	4	SIC	64	RC	0	2	02VD 02VO 02VC 02MD 02MO 02MC 09RD 02RO	1	0	0.913321018219	146.0	-166.0	137	-165	1
2.7	2015_May_08_1151	s	s	3	4	SIC	65	RC	1	1	02VD 02VO 02VC 02MD 09MO 02MC 02RD 02RO	1	0	1.88270306587	238.0	-232.0	244	-230	1
2.7	2015_May_08_1151	s	s	3	4	SIC	66	RC	1	0	02VD 02VO 02VC 02MD 02MO 09MC 02RD 02RO	1	0	1.84219288826	226.0	-288.0	231	-287	1
2.7	2015_May_08_1151	s	s	3	4	SIC	67	ABS	1	1	02VD 02VO 02VC 02MD 10MO 02MC 02RD 02RO	0	1	2.18900799751	None	None	None	None	1
2.7	2015_May_08_1151	s	s	3	4	SIC	68	ABS	0	1	02VD 02VO 02VC 02MD 02MO 02MC 02RD 10RO	0	1	3.00805592537	None	None	None	None	1
2.7	2015_May_08_1151	s	s	3	4	SIC	69	ABS	1	0	02VD 02VO 02VC 02MD 02MO 10MC 02RD 02RO	0	1	3.55065703392	None	None	None	None	1
2.7	2015_May_08_1151	s	s	3	4	SIC	70	ABS	2	1	02VD 10VO 02VC 02MD 02MO 02MC 02RD 02RO	0	1	1.85662007332	None	None	None	None	1
2.7	2015_May_08_1151	s	s	3	4	SIC	71	ABS	0	2	02VD 02VO 02VC 02MD 02MO 02MC 10RD 02RO	0	1	2.04382801056	None	None	None	None	1
2.7	2015_May_08_1151	s	s	3	4	SIC	72	RC	0	1	02VD 02VO 02VC 02MD 02MO 02MC 02RD 09RO	1	0	1.84466695786	167.0	-312.0	173	-318	1
2.7	2015_May_08_1151	s	s	3	4	SIC	73	RC	2	0	02VD 02VO 09VC 02MD 02MO 02MC 02RD 02RO	1	0	0.867944002151	25.0	-87.0	23	-78	1
2.7	2015_May_08_1151	s	s	3	4	SIC	74	ABS	2	2	10VD 02VO 02VC 02MD 02MO 02MC 02RD 02RO	0	1	1.66527819633	None	None	None	None	1
2.7	2015_May_08_1151	s	s	3	4	SIC	75	RC	2	2	09VD 02VO 02VC 02MD 02MO 02MC 02RD 02RO	1	0	0.988080024719	-202.0	-297.0	-193	-291	1
2.7	2015_May_08_1151	s	s	3	4	SIC	76	RC	2	1	02VD 09VO 02VC 02MD 02MO 02MC 02RD 02RO	1	0	0.750092029572	-294.0	160.0	-284	165	1
2.7	2015_May_08_1151	s	s	3	4	SIC	77	RC	0	2	02VD 02VO 02VC 02MD 02MO 02MC 09RD 02RO	1	0	0.999758958817	189.0	336.0	199	345	1
2.7	2015_May_08_1151	s	s	3	4	SIC	78	RC	1	2	02VD 02VO 02VC 09MD 02MO 02MC 02RD 02RO	1	0	0.505484819412	48.0	182.0	49	177	1
2.7	2015_May_08_1151	s	s	3	4	SIC	79	ABS	1	2	02VD 02VO 02VC 10MD 02MO 02MC 02RD 02RO	1	0	1.61196994781	None	None	63	-38	0
2.7	2015_May_08_1151	s	s	3	4	SIC	80	ABS	2	0	02VD 02VO 10VC 02MD 02MO 02MC 02RD 02RO	0	1	1.21803689003	None	None	None	None	1
2.7	2015_May_08_1151	s	s	3	4	SIC	81	ABS	1	2	02VD 02VO 02VC 10MD 02MO 02MC 02RD 02RO	0	1	1.85311388969	None	None	None	None	1
2.7	2015_May_08_1151	s	s	3	4	SIC	82	ABS	0	1	02VD 02VO 02VC 02MD 02MO 02MC 02RD 10RO	0	1	3.24284291267	None	None	None	None	1
2.7	2015_May_08_1151	s	s	3	4	SIC	83	ABS	1	1	02VD 02VO 02VC 02MD 10MO 02MC 02RD 02RO	0	1	2.33938097954	None	None	None	None	1
2.7	2015_May_08_1151	s	s	3	4	SIC	84	ABS	2	0	02VD 02VO 10VC 02MD 02MO 02MC 02RD 02RO	0	1	1.45893192291	None	None	None	None	1
2.7	2015_May_08_1151	s	s	3	4	SIC	85	RC	1	1	02VD 02VO 02VC 02MD 09MO 02MC 02RD 02RO	1	0	2.0533759594	125.0	-407.0	129	-408	1
2.7	2015_May_08_1151	s	s	3	4	SIC	86	RC	2	2	09VD 02VO 02VC 02MD 02MO 02MC 02RD 02RO	1	0	1.08922719955	-355.0	-22.0	-362	-17	1
2.7	2015_May_08_1151	s	s	3	4	SIC	87	RC	0	1	02VD 02VO 02VC 02MD 02MO 02MC 02RD 09RO	1	0	1.84191298485	488.0	-253.0	486	-254	1
2.7	2015_May_08_1151	s	s	3	4	SIC	88	ABS	1	0	02VD 02VO 02VC 02MD 02MO 10MC 02RD 02RO	0	1	2.91847109795	None	None	None	None	1
2.7	2015_May_08_1151	s	s	3	4	SIC	89	RC	1	2	02VD 02VO 02VC 09MD 02MO 02MC 02RD 02RO	1	0	0.512676000595	-164.0	147.0	-154	151	1
2.7	2015_May_08_1151	s	s	3	4	SIC	90	ABS	2	1	02VD 10VO 02VC 02MD 02MO 02MC 02RD 02RO	0	1	1.52964401245	None	None	None	None	1
2.7	2015_May_08_1151	s	s	3	4	SIC	91	RC	2	0	02VD 02VO 09VC 02MD 02MO 02MC 02RD 02RO	1	0	1.0891251564	67.0	-359.0	57	-357	1
2.7	2015_May_08_1151	s	s	3	4	SIC	92	RC	0	2	02VD 02VO 02VC 02MD 02MO 02MC 09RD 02RO	1	0	1.03250193596	96.0	-68.0	105	-67	1
2.7	2015_May_08_1151	s	s	3	4	SIC	93	RC	1	0	02VD 02VO 02VC 02MD 02MO 09MC 02RD 02RO	1	0	0.964600086212	49.0	-183.0	45	-180	1
2.7	2015_May_08_1151	s	s	3	4	SIC	94	RC	2	1	02VD 09VO 02VC 02MD 02MO 02MC 02RD 02RO	1	0	0.987977981567	309.0	-322.0	304	-321	1
2.7	2015_May_08_1151	s	s	3	4	SIC	95	ABS	2	2	10VD 02VO 02VC 02MD 02MO 02MC 02RD 02RO	0	1	1.44720506668	None	None	None	None	1
2.7	2015_May_08_1151	s	s	3	4	SIC	96	ABS	0	2	02VD 02VO 02VC 02MD 02MO 02MC 10RD 02RO	1	0	1.16024804115	None	None	-194	-268	0
2.7	2015_May_08_1151	s	s	3	4	SIC	97	RC	2	1	02VD 09VO 02VC 02MD 02MO 02MC 02RD 02RO	1	0	0.670639038086	-346.0	193.0	-341	194	1
2.7	2015_May_08_1151	s	s	3	4	SIC	98	ABS	1	0	02VD 02VO 02VC 02MD 02MO 10MC 02RD 02RO	0	1	2.81916189194	None	None	None	None	1
2.7	2015_May_08_1151	s	s	3	4	SIC	99	ABS	1	2	02VD 02VO 02VC 10MD 02MO 02MC 02RD 02RO	0	1	1.66514801979	None	None	None	None	1
2.7	2015_May_08_1151	s	s	3	4	SIC	100	ABS	2	0	02VD 02VO 10VC 02MD 02MO 02MC 02RD 02RO	0	1	3.44339585304	None	None	None	None	1
2.7	2015_May_08_1151	s	s	3	4	SIC	101	ABS	0	1	02VD 02VO 02VC 02MD 02MO 02MC 02RD 10RO	0	1	3.12580800056	None	None	None	None	1
2.7	2015_May_08_1151	s	s	3	4	SIC	102	ABS	1	1	02VD 02VO 02VC 02MD 10MO 02MC 02RD 02RO	0	1	3.64503717422	None	None	None	None	1
2.7	2015_May_08_1151	s	s	3	4	SIC	103	RC	0	1	02VD 02VO 02VC 02MD 02MO 02MC 02RD 09RO	1	0	0.96812415123	-405.0	278.0	-396	287	1
2.7	2015_May_08_1151	s	s	3	4	SIC	104	ABS	0	2	02VD 02VO 02VC 02MD 02MO 02MC 10RD 02RO	0	1	1.78856015205	None	None	None	None	1
2.7	2015_May_08_1151	s	s	3	4	SIC	105	ABS	2	1	02VD 10VO 02VC 02MD 02MO 02MC 02RD 02RO	1	0	1.40615582466	None	None	-401	-352	0
2.7	2015_May_08_1151	s	s	3	4	SIC	106	RC	0	2	02VD 02VO 02VC 02MD 02MO 02MC 09RD 02RO	1	0	0.947648048401	254.0	365.0	265	374	1
2.7	2015_May_08_1151	s	s	3	4	SIC	107	RC	2	2	09VD 02VO 02VC 02MD 02MO 02MC 02RD 02RO	1	0	1.09776711464	238.0	-203.0	249	-198	1
2.7	2015_May_08_1151	s	s	3	4	SIC	108	RC	1	2	02VD 02VO 02VC 09MD 02MO 02MC 02RD 02RO	1	0	0.658465862274	-255.0	-222.0	-263	-218	1
2.7	2015_May_08_1151	s	s	3	4	SIC	109	RC	1	1	02VD 02VO 02VC 02MD 09MO 02MC 02RD 02RO	1	0	0.75004196167	146.0	65.0	144	69	1
2.7	2015_May_08_1151	s	s	3	4	SIC	110	RC	1	0	02VD 02VO 02VC 02MD 02MO 09MC 02RD 02RO	1	0	0.670207023621	-333.0	85.0	-327	82	1
2.7	2015_May_08_1151	s	s	3	4	SIC	111	ABS	2	2	10VD 02VO 02VC 02MD 02MO 02MC 02RD 02RO	0	1	1.50208878517	None	None	None	None	1
2.7	2015_May_08_1151	s	s	3	4	SIC	112	RC	2	0	02VD 02VO 09VC 02MD 02MO 02MC 02RD 02RO	1	0	0.952745914459	-175.0	-155.0	-161	-150	1
2.7	2015_May_08_1151	s	s	3	4	SIC	113	ABS	0	2	02VD 02VO 02VC 02MD 02MO 02MC 10RD 02RO	1	0	2.07100605965	None	None	-310	27	0
2.7	2015_May_08_1151	s	s	3	4	SIC	114	RC	0	2	02VD 02VO 02VC 02MD 02MO 02MC 09RD 02RO	1	0	0.681967020035	137.0	135.0	146	138	1
2.7	2015_May_08_1151	s	s	3	4	SIC	115	ABS	2	0	02VD 02VO 10VC 02MD 02MO 02MC 02RD 02RO	0	1	1.37389707565	None	None	None	None	1
2.7	2015_May_08_1151	s	s	3	4	SIC	116	ABS	1	1	02VD 02VO 02VC 02MD 10MO 02MC 02RD 02RO	0	1	1.45386481285	None	None	None	None	1
2.7	2015_May_08_1151	s	s	3	4	SIC	117	RC	1	0	02VD 02VO 02VC 02MD 02MO 09MC 02RD 02RO	1	0	1.80715608597	-460.0	-382.0	-454	-376	1
2.7	2015_May_08_1151	s	s	3	4	SIC	118	ABS	1	2	02VD 02VO 02VC 10MD 02MO 02MC 02RD 02RO	0	1	1.44204211235	None	None	None	None	1
2.7	2015_May_08_1151	s	s	3	4	SIC	119	RC	2	1	02VD 09VO 02VC 02MD 02MO 02MC 02RD 02RO	1	0	0.646806955338	-358.0	273.0	-350	274	1
2.7	2015_May_08_1151	s	s	3	4	SIC	120	RC	1	2	02VD 02VO 02VC 09MD 02MO 02MC 02RD 02RO	1	0	1.02104711533	-54.0	-159.0	-45	-155	1
2.7	2015_May_08_1151	s	s	3	4	SIC	121	RC	0	1	02VD 02VO 02VC 02MD 02MO 02MC 02RD 09RO	1	0	0.635051012039	13.0	363.0	-132	82	0
2.7	2015_May_08_1151	s	s	3	4	SIC	122	ABS	1	0	02VD 02VO 02VC 02MD 02MO 10MC 02RD 02RO	1	0	2.43581295013	None	None	477	377	0
2.7	2015_May_08_1151	s	s	3	4	SIC	123	ABS	0	1	02VD 02VO 02VC 02MD 02MO 02MC 02RD 10RO	0	1	3.74256515503	None	None	None	None	1
2.7	2015_May_08_1151	s	s	3	4	SIC	124	ABS	2	2	10VD 02VO 02VC 02MD 02MO 02MC 02RD 02RO	0	1	1.48251605034	None	None	None	None	1
2.7	2015_May_08_1151	s	s	3	4	SIC	125	ABS	2	1	02VD 10VO 02VC 02MD 02MO 02MC 02RD 02RO	0	1	1.95735812187	None	None	None	None	1
2.7	2015_May_08_1151	s	s	3	4	SIC	126	RC	2	0	02VD 02VO 09VC 02MD 02MO 02MC 02RD 02RO	1	0	1.28240299225	528.0	47.0	531	50	1
2.7	2015_May_08_1151	s	s	3	4	SIC	127	RC	1	1	02VD 02VO 02VC 02MD 09MO 02MC 02RD 02RO	1	0	1.80637192726	-34.0	-19.0	-45	-15	1
2.7	2015_May_08_1151	s	s	3	4	SIC	128	RC	2	2	09VD 02VO 02VC 02MD 02MO 02MC 02RD 02RO	1	0	1.43199205399	-428.0	361.0	-437	363	1
2.7	2015_May_08_1151	s	s	3	4	SIC	129	RC	2	2	09VD 02VO 02VC 02MD 02MO 02MC 02RD 02RO	1	0	1.58385205269	49.0	-406.0	57	-412	1
2.7	2015_May_08_1151	s	s	3	4	SIC	130	ABS	2	2	10VD 02VO 02VC 02MD 02MO 02MC 02RD 02RO	0	1	1.48939013481	None	None	None	None	1
2.7	2015_May_08_1151	s	s	3	4	SIC	131	RC	0	1	02VD 02VO 02VC 02MD 02MO 02MC 02RD 09RO	1	0	1.38342189789	29.0	-221.0	37	-226	1
2.7	2015_May_08_1151	s	s	3	4	SIC	132	RC	2	0	02VD 02VO 09VC 02MD 02MO 02MC 02RD 02RO	1	0	1.21180200577	-459.0	-124.0	-456	-124	1
2.7	2015_May_08_1151	s	s	3	4	SIC	133	RC	1	2	02VD 02VO 02VC 09MD 02MO 02MC 02RD 02RO	1	0	0.993997097015	47.0	408.0	58	412	1
2.7	2015_May_08_1151	s	s	3	4	SIC	134	RC	1	0	02VD 02VO 02VC 02MD 02MO 09MC 02RD 02RO	1	0	1.07690787315	-425.0	-187.0	-423	-187	1
2.7	2015_May_08_1151	s	s	3	4	SIC	135	ABS	1	1	02VD 02VO 02VC 02MD 10MO 02MC 02RD 02RO	0	1	2.49461698532	None	None	None	None	1
2.7	2015_May_08_1151	s	s	3	4	SIC	136	ABS	0	2	02VD 02VO 02VC 02MD 02MO 02MC 10RD 02RO	0	1	2.16518902779	None	None	None	None	1
2.7	2015_May_08_1151	s	s	3	4	SIC	137	ABS	1	2	02VD 02VO 02VC 10MD 02MO 02MC 02RD 02RO	0	1	1.82130002975	None	None	None	None	1
2.7	2015_May_08_1151	s	s	3	4	SIC	138	ABS	1	0	02VD 02VO 02VC 02MD 02MO 10MC 02RD 02RO	0	1	2.10161399841	None	None	None	None	1
2.7	2015_May_08_1151	s	s	3	4	SIC	139	ABS	2	1	02VD 10VO 02VC 02MD 02MO 02MC 02RD 02RO	0	1	1.45457911491	None	None	None	None	1
2.7	2015_May_08_1151	s	s	3	4	SIC	140	RC	1	1	02VD 02VO 02VC 02MD 09MO 02MC 02RD 02RO	1	0	1.58265018463	393.0	-184.0	405	-183	1
2.7	2015_May_08_1151	s	s	3	4	SIC	141	RC	0	2	02VD 02VO 02VC 02MD 02MO 02MC 09RD 02RO	1	0	0.86444401741	180.0	-297.0	182	-288	1
2.7	2015_May_08_1151	s	s	3	4	SIC	142	RC	2	1	02VD 09VO 02VC 02MD 02MO 02MC 02RD 02RO	1	0	0.549741029739	-159.0	39.0	-151	44	1
2.7	2015_May_08_1151	s	s	3	4	SIC	143	ABS	0	1	02VD 02VO 02VC 02MD 02MO 02MC 02RD 10RO	0	1	2.73905801773	None	None	None	None	1
2.7	2015_May_08_1151	s	s	3	4	SIC	144	ABS	2	0	02VD 02VO 10VC 02MD 02MO 02MC 02RD 02RO	0	1	1.85400605202	None	None	None	None	1
2.7	2015_May_08_1151	s	s	3	4	SIC	145	ABS	2	1	02VD 10VO 02VC 02MD 02MO 02MC 02RD 02RO	0	1	1.57652306557	None	None	None	None	1
2.7	2015_May_08_1151	s	s	3	4	SIC	146	ABS	2	2	10VD 02VO 02VC 02MD 02MO 02MC 02RD 02RO	0	1	2.34875202179	None	None	None	None	1
2.7	2015_May_08_1151	s	s	3	4	SIC	147	ABS	0	2	02VD 02VO 02VC 02MD 02MO 02MC 10RD 02RO	1	0	2.77732181549	None	None	-8	7	0
2.7	2015_May_08_1151	s	s	3	4	SIC	148	ABS	1	2	02VD 02VO 02VC 10MD 02MO 02MC 02RD 02RO	0	1	1.57236909866	None	None	None	None	1
2.7	2015_May_08_1151	s	s	3	4	SIC	149	ABS	0	1	02VD 02VO 02VC 02MD 02MO 02MC 02RD 10RO	0	1	5.53157806396	None	None	None	None	1
2.7	2015_May_08_1151	s	s	3	4	SIC	150	RC	2	1	02VD 09VO 02VC 02MD 02MO 02MC 02RD 02RO	1	0	2.11451506615	447.0	15.0	456	13	1
2.7	2015_May_08_1151	s	s	3	4	SIC	151	RC	2	2	09VD 02VO 02VC 02MD 02MO 02MC 02RD 02RO	1	0	0.924106836319	409.0	42.0	412	36	1
2.7	2015_May_08_1151	s	s	3	4	SIC	152	RC	1	0	02VD 02VO 02VC 02MD 02MO 09MC 02RD 02RO	1	0	0.618300914764	-292.0	159.0	-298	157	1
2.7	2015_May_08_1151	s	s	3	4	SIC	153	RC	2	0	02VD 02VO 09VC 02MD 02MO 02MC 02RD 02RO	1	0	1.42001795769	451.0	91.0	462	94	1
2.7	2015_May_08_1151	s	s	3	4	SIC	154	RC	1	1	02VD 02VO 02VC 02MD 09MO 02MC 02RD 02RO	1	0	1.52512192726	504.0	1.0	498	6	1
2.7	2015_May_08_1151	s	s	3	4	SIC	155	ABS	1	1	02VD 02VO 02VC 02MD 10MO 02MC 02RD 02RO	0	1	2.79556202888	None	None	None	None	1
2.7	2015_May_08_1151	s	s	3	4	SIC	156	RC	0	2	02VD 02VO 02VC 02MD 02MO 02MC 09RD 02RO	1	0	0.952858924866	-482.0	150.0	-486	145	1
2.7	2015_May_08_1151	s	s	3	4	SIC	157	RC	0	1	02VD 02VO 02VC 02MD 02MO 02MC 02RD 09RO	1	0	2.98429608345	-8.0	327.0	-4	334	1
2.7	2015_May_08_1151	s	s	3	4	SIC	158	ABS	2	0	02VD 02VO 10VC 02MD 02MO 02MC 02RD 02RO	0	1	1.58589100838	None	None	None	None	1
2.7	2015_May_08_1151	s	s	3	4	SIC	159	ABS	1	0	02VD 02VO 02VC 02MD 02MO 10MC 02RD 02RO	0	1	3.88364505768	None	None	None	None	1
2.7	2015_May_08_1151	s	s	3	4	SIC	160	RC	1	2	02VD 02VO 02VC 09MD 02MO 02MC 02RD 02RO	1	0	0.606438875198	-390.0	134.0	-385	142	1
2.7	2015_May_08_1151	s	s	3	4	SIC	161	RC	0	2	02VD 02VO 02VC 02MD 02MO 02MC 09RD 02RO	1	0	0.658911943436	30.0	229.0	34	232	1
2.7	2015_May_08_1151	s	s	3	4	SIC	162	ABS	1	0	02VD 02VO 02VC 02MD 02MO 10MC 02RD 02RO	0	1	2.08987593651	None	None	None	None	1
2.7	2015_May_08_1151	s	s	3	4	SIC	163	ABS	0	2	02VD 02VO 02VC 02MD 02MO 02MC 10RD 02RO	0	1	1.6825799942	None	None	None	None	1
2.7	2015_May_08_1151	s	s	3	4	SIC	164	ABS	1	1	02VD 02VO 02VC 02MD 10MO 02MC 02RD 02RO	0	1	2.71332621574	None	None	None	None	1
2.7	2015_May_08_1151	s	s	3	4	SIC	165	ABS	1	2	02VD 02VO 02VC 10MD 02MO 02MC 02RD 02RO	0	1	1.91226291656	None	None	None	None	1
2.7	2015_May_08_1151	s	s	3	4	SIC	166	RC	0	1	02VD 02VO 02VC 02MD 02MO 02MC 02RD 09RO	1	0	1.95000505447	109.0	-242.0	111	-238	1
2.7	2015_May_08_1151	s	s	3	4	SIC	167	ABS	0	1	02VD 02VO 02VC 02MD 02MO 02MC 02RD 10RO	0	1	3.25670909882	None	None	None	None	1
2.7	2015_May_08_1151	s	s	3	4	SIC	168	RC	2	2	09VD 02VO 02VC 02MD 02MO 02MC 02RD 02RO	1	0	0.796519041061	-92.0	-135.0	-83	-137	1
2.7	2015_May_08_1151	s	s	3	4	SIC	169	RC	1	2	02VD 02VO 02VC 09MD 02MO 02MC 02RD 02RO	1	0	1.77123308182	243.0	294.0	249	300	1
2.7	2015_May_08_1151	s	s	3	4	SIC	170	RC	2	0	02VD 02VO 09VC 02MD 02MO 02MC 02RD 02RO	1	0	1.27425098419	-182.0	-247.0	-184	-248	1
2.7	2015_May_08_1151	s	s	3	4	SIC	171	RC	2	1	02VD 09VO 02VC 02MD 02MO 02MC 02RD 02RO	1	0	1.58342313766	298.0	-75.0	294	-71	1
2.7	2015_May_08_1151	s	s	3	4	SIC	172	RC	1	0	02VD 02VO 02VC 02MD 02MO 09MC 02RD 02RO	0	1	2.51282691956	-523.0	399.0	None	None	0
2.7	2015_May_08_1151	s	s	3	4	SIC	173	ABS	2	1	02VD 10VO 02VC 02MD 02MO 02MC 02RD 02RO	1	0	2.23604893684	None	None	-95	-35	0
2.7	2015_May_08_1151	s	s	3	4	SIC	174	ABS	2	2	10VD 02VO 02VC 02MD 02MO 02MC 02RD 02RO	0	1	2.00552821159	None	None	None	None	1
2.7	2015_May_08_1151	s	s	3	4	SIC	175	RC	1	1	02VD 02VO 02VC 02MD 09MO 02MC 02RD 02RO	1	0	0.664691925049	109.0	33.0	215	201	0
2.7	2015_May_08_1151	s	s	3	4	SIC	176	ABS	2	0	02VD 02VO 10VC 02MD 02MO 02MC 02RD 02RO	0	1	2.23068213463	None	None	None	None	1
2.7	2015_May_08_1151	s	s	3	4	SIC	177	ABS	2	2	10VD 02VO 02VC 02MD 02MO 02MC 02RD 02RO	0	1	2.33355593681	None	None	None	None	1
2.7	2015_May_08_1151	s	s	3	4	SIC	178	ABS	2	0	02VD 02VO 10VC 02MD 02MO 02MC 02RD 02RO	1	0	2.13893604279	None	None	-468	-39	0
2.7	2015_May_08_1151	s	s	3	4	SIC	179	RC	2	0	02VD 02VO 09VC 02MD 02MO 02MC 02RD 02RO	1	0	0.913203001022	-187.0	411.0	-179	406	1
2.7	2015_May_08_1151	s	s	3	4	SIC	180	ABS	1	1	02VD 02VO 02VC 02MD 10MO 02MC 02RD 02RO	0	1	2.93707895279	None	None	None	None	1
2.7	2015_May_08_1151	s	s	3	4	SIC	181	RC	1	2	02VD 02VO 02VC 09MD 02MO 02MC 02RD 02RO	1	0	1.48974490166	424.0	-286.0	423	-287	1
2.7	2015_May_08_1151	s	s	3	4	SIC	182	ABS	0	2	02VD 02VO 02VC 02MD 02MO 02MC 10RD 02RO	0	1	1.99242115021	None	None	None	None	1
2.7	2015_May_08_1151	s	s	3	4	SIC	183	ABS	2	1	02VD 10VO 02VC 02MD 02MO 02MC 02RD 02RO	0	1	1.6359372139	None	None	None	None	1
2.7	2015_May_08_1151	s	s	3	4	SIC	184	ABS	1	0	02VD 02VO 02VC 02MD 02MO 10MC 02RD 02RO	0	1	6.39787793159	None	None	None	None	1
2.7	2015_May_08_1151	s	s	3	4	SIC	185	ABS	0	1	02VD 02VO 02VC 02MD 02MO 02MC 02RD 10RO	0	1	3.05174803734	None	None	None	None	1
2.7	2015_May_08_1151	s	s	3	4	SIC	186	RC	0	2	02VD 02VO 02VC 02MD 02MO 02MC 09RD 02RO	1	0	1.43537211418	-461.0	194.0	-469	193	1
2.7	2015_May_08_1151	s	s	3	4	SIC	187	ABS	1	2	02VD 02VO 02VC 10MD 02MO 02MC 02RD 02RO	0	1	1.62388181686	None	None	None	None	1
2.7	2015_May_08_1151	s	s	3	4	SIC	188	RC	2	2	09VD 02VO 02VC 02MD 02MO 02MC 02RD 02RO	1	0	1.23561310768	-341.0	-316.0	-340	-314	1
2.7	2015_May_08_1151	s	s	3	4	SIC	189	RC	1	0	02VD 02VO 02VC 02MD 02MO 09MC 02RD 02RO	1	0	1.91542005539	466.0	-343.0	472	-340	1
2.7	2015_May_08_1151	s	s	3	4	SIC	190	RC	1	1	02VD 02VO 02VC 02MD 09MO 02MC 02RD 02RO	1	0	1.22335410118	162.0	-169.0	166	-175	1
2.7	2015_May_08_1151	s	s	3	4	SIC	191	RC	2	1	02VD 09VO 02VC 02MD 02MO 02MC 02RD 02RO	1	0	2.12729811668	292.0	357.0	301	359	1
2.7	2015_May_08_1151	s	s	3	4	SIC	192	RC	0	1	02VD 02VO 02VC 02MD 02MO 02MC 02RD 09RO	1	0	0.641497135162	-305.0	24.0	-304	23	1
2.7	2015_May_08_1151	s	s	3	4	SIC	193	RC	2	1	02VD 09VO 02VC 02MD 02MO 02MC 02RD 02RO	1	0	1.42076706886	528.0	379.0	537	382	1
2.7	2015_May_08_1151	s	s	3	4	SIC	194	ABS	1	1	02VD 02VO 02VC 02MD 10MO 02MC 02RD 02RO	0	1	2.85711312294	None	None	None	None	1
2.7	2015_May_08_1151	s	s	3	4	SIC	195	ABS	0	1	02VD 02VO 02VC 02MD 02MO 02MC 02RD 10RO	0	1	3.05972003937	None	None	None	None	1
2.7	2015_May_08_1151	s	s	3	4	SIC	196	RC	1	0	02VD 02VO 02VC 02MD 02MO 09MC 02RD 02RO	1	0	0.752697944641	-48.0	313.0	-50	313	1
2.7	2015_May_08_1151	s	s	3	4	SIC	197	ABS	2	2	10VD 02VO 02VC 02MD 02MO 02MC 02RD 02RO	0	1	2.14168715477	None	None	None	None	1
2.7	2015_May_08_1151	s	s	3	4	SIC	198	RC	0	2	02VD 02VO 02VC 02MD 02MO 02MC 09RD 02RO	1	0	1.33643698692	-474.0	-292.0	-478	-293	1
2.7	2015_May_08_1151	s	s	3	4	SIC	199	RC	2	0	02VD 02VO 09VC 02MD 02MO 02MC 02RD 02RO	1	0	0.729140996933	160.0	-29.0	167	-24	1
2.7	2015_May_08_1151	s	s	3	4	SIC	200	ABS	1	0	02VD 02VO 02VC 02MD 02MO 10MC 02RD 02RO	0	1	2.05924391747	None	None	None	None	1
2.7	2015_May_08_1151	s	s	3	4	SIC	201	RC	1	2	02VD 02VO 02VC 09MD 02MO 02MC 02RD 02RO	1	0	1.55290484428	388.0	-45.0	398	-47	1
2.7	2015_May_08_1151	s	s	3	4	SIC	202	RC	1	1	02VD 02VO 02VC 02MD 09MO 02MC 02RD 02RO	1	0	0.759577989578	153.0	271.0	155	271	1
2.7	2015_May_08_1151	s	s	3	4	SIC	203	ABS	0	2	02VD 02VO 02VC 02MD 02MO 02MC 10RD 02RO	0	1	2.30170106888	None	None	None	None	1
2.7	2015_May_08_1151	s	s	3	4	SIC	204	ABS	2	1	02VD 10VO 02VC 02MD 02MO 02MC 02RD 02RO	0	1	1.6424601078	None	None	None	None	1
2.7	2015_May_08_1151	s	s	3	4	SIC	205	ABS	1	2	02VD 02VO 02VC 10MD 02MO 02MC 02RD 02RO	0	1	1.67097115517	None	None	None	None	1
2.7	2015_May_08_1151	s	s	3	4	SIC	206	ABS	2	0	02VD 02VO 10VC 02MD 02MO 02MC 02RD 02RO	0	1	2.35333800316	None	None	None	None	1
2.7	2015_May_08_1151	s	s	3	4	SIC	207	RC	0	1	02VD 02VO 02VC 02MD 02MO 02MC 02RD 09RO	1	0	1.33618187904	52.0	-228.0	57	-231	1
2.7	2015_May_08_1151	s	s	3	4	SIC	208	RC	2	2	09VD 02VO 02VC 02MD 02MO 02MC 02RD 02RO	1	0	1.7260119915	307.0	165.0	314	166	1
2.7	2015_May_08_1151	s	s	3	4	SIC	209	RC	0	2	02VD 02VO 02VC 02MD 02MO 02MC 09RD 02RO	1	0	0.985465049744	-102.0	-301.0	-102	-305	1
2.7	2015_May_08_1151	s	s	3	4	SIC	210	ABS	2	0	02VD 02VO 10VC 02MD 02MO 02MC 02RD 02RO	0	1	1.73692798615	None	None	None	None	1
2.7	2015_May_08_1151	s	s	3	4	SIC	211	ABS	2	1	02VD 10VO 02VC 02MD 02MO 02MC 02RD 02RO	0	1	1.80648994446	None	None	None	None	1
2.7	2015_May_08_1151	s	s	3	4	SIC	212	RC	2	0	02VD 02VO 09VC 02MD 02MO 02MC 02RD 02RO	1	0	0.788105964661	-172.0	-211.0	-169	-211	1
2.7	2015_May_08_1151	s	s	3	4	SIC	213	ABS	2	2	10VD 02VO 02VC 02MD 02MO 02MC 02RD 02RO	0	1	1.31777310371	None	None	None	None	1
2.7	2015_May_08_1151	s	s	3	4	SIC	214	ABS	1	0	02VD 02VO 02VC 02MD 02MO 10MC 02RD 02RO	0	1	3.10131788254	None	None	None	None	1
2.7	2015_May_08_1151	s	s	3	4	SIC	215	RC	1	1	02VD 02VO 02VC 02MD 09MO 02MC 02RD 02RO	1	0	1.94200611115	303.0	-355.0	300	-358	1
2.7	2015_May_08_1151	s	s	3	4	SIC	216	RC	1	0	02VD 02VO 02VC 02MD 02MO 09MC 02RD 02RO	1	0	1.27061414719	-426.0	199.0	-433	196	1
2.7	2015_May_08_1151	s	s	3	4	SIC	217	RC	1	2	02VD 02VO 02VC 09MD 02MO 02MC 02RD 02RO	1	0	1.84255099297	516.0	388.0	525	385	1
2.7	2015_May_08_1151	s	s	3	4	SIC	218	ABS	0	2	02VD 02VO 02VC 02MD 02MO 02MC 10RD 02RO	0	1	1.78546500206	None	None	None	None	1
2.7	2015_May_08_1151	s	s	3	4	SIC	219	RC	2	2	09VD 02VO 02VC 02MD 02MO 02MC 02RD 02RO	1	0	1.10056710243	30.0	-282.0	33	-279	1
2.7	2015_May_08_1151	s	s	3	4	SIC	220	ABS	0	1	02VD 02VO 02VC 02MD 02MO 02MC 02RD 10RO	0	1	3.66001605988	None	None	None	None	1
2.7	2015_May_08_1151	s	s	3	4	SIC	221	ABS	1	2	02VD 02VO 02VC 10MD 02MO 02MC 02RD 02RO	0	1	2.11317801476	None	None	None	None	1
2.7	2015_May_08_1151	s	s	3	4	SIC	222	ABS	1	1	02VD 02VO 02VC 02MD 10MO 02MC 02RD 02RO	0	1	2.19519901276	None	None	None	None	1
2.7	2015_May_08_1151	s	s	3	4	SIC	223	RC	2	1	02VD 09VO 02VC 02MD 02MO 02MC 02RD 02RO	1	0	1.19689702988	464.0	-22.0	464	-24	1
2.7	2015_May_08_1151	s	s	3	4	SIC	224	RC	0	1	02VD 02VO 02VC 02MD 02MO 02MC 02RD 09RO	1	0	0.985624074936	-367.0	371.0	-364	369	1
2.7	2015_May_08_1151	s	s	3	4	SIC	225	ABS	1	1	02VD 02VO 02VC 02MD 10MO 02MC 02RD 02RO	0	1	2.67812299728	None	None	None	None	1
2.7	2015_May_08_1151	s	s	3	4	SIC	226	RC	2	0	02VD 02VO 09VC 02MD 02MO 02MC 02RD 02RO	1	0	0.665928840637	-264.0	-36.0	-261	-47	1
2.7	2015_May_08_1151	s	s	3	4	SIC	227	RC	0	2	02VD 02VO 02VC 02MD 02MO 02MC 09RD 02RO	1	0	0.941072940826	-283.0	-381.0	-277	-374	1
2.7	2015_May_08_1151	s	s	3	4	SIC	228	ABS	0	1	02VD 02VO 02VC 02MD 02MO 02MC 02RD 10RO	0	1	2.73761701584	None	None	None	None	1
2.7	2015_May_08_1151	s	s	3	4	SIC	229	ABS	2	0	02VD 02VO 10VC 02MD 02MO 02MC 02RD 02RO	0	1	1.44719910622	None	None	None	None	1
2.7	2015_May_08_1151	s	s	3	4	SIC	230	RC	0	1	02VD 02VO 02VC 02MD 02MO 02MC 02RD 09RO	1	0	1.90299105644	-406.0	353.0	-405	346	1
2.7	2015_May_08_1151	s	s	3	4	SIC	231	RC	2	1	02VD 09VO 02VC 02MD 02MO 02MC 02RD 02RO	1	0	0.544505834579	-360.0	182.0	-360	178	1
2.7	2015_May_08_1151	s	s	3	4	SIC	232	RC	2	2	09VD 02VO 02VC 02MD 02MO 02MC 02RD 02RO	1	0	1.58574104309	455.0	377.0	450	386	1
2.7	2015_May_08_1151	s	s	3	4	SIC	233	RC	1	0	02VD 02VO 02VC 02MD 02MO 09MC 02RD 02RO	1	0	0.58295416832	-105.0	50.0	-101	52	1
2.7	2015_May_08_1151	s	s	3	4	SIC	234	ABS	1	0	02VD 02VO 02VC 02MD 02MO 10MC 02RD 02RO	0	1	2.0945930481	None	None	None	None	1
2.7	2015_May_08_1151	s	s	3	4	SIC	235	RC	1	2	02VD 02VO 02VC 09MD 02MO 02MC 02RD 02RO	1	0	1.31772708893	390.0	-116.0	396	-124	1
2.7	2015_May_08_1151	s	s	3	4	SIC	236	ABS	2	1	02VD 10VO 02VC 02MD 02MO 02MC 02RD 02RO	0	1	1.82388806343	None	None	None	None	1
2.7	2015_May_08_1151	s	s	3	4	SIC	237	ABS	1	2	02VD 02VO 02VC 10MD 02MO 02MC 02RD 02RO	0	1	1.74800419807	None	None	None	None	1
2.7	2015_May_08_1151	s	s	3	4	SIC	238	ABS	0	2	02VD 02VO 02VC 02MD 02MO 02MC 10RD 02RO	0	1	1.52696490288	None	None	None	None	1
2.7	2015_May_08_1151	s	s	3	4	SIC	239	ABS	2	2	10VD 02VO 02VC 02MD 02MO 02MC 02RD 02RO	0	1	1.75021791458	None	None	None	None	1
2.7	2015_May_08_1151	s	s	3	4	SIC	240	RC	1	1	02VD 02VO 02VC 02MD 09MO 02MC 02RD 02RO	1	0	0.819645166397	-61.0	337.0	-58	336	1
2.7	2015_May_08_1151	s	s	3	4	SIC	241	ABS	2	0	02VD 02VO 10VC 02MD 02MO 02MC 02RD 02RO	0	1	1.87104797363	None	None	None	None	1
2.7	2015_May_08_1151	s	s	3	4	SIC	242	RC	0	1	02VD 02VO 02VC 02MD 02MO 02MC 02RD 09RO	1	0	1.54122686386	-337.0	120.0	-331	115	1
2.7	2015_May_08_1151	s	s	3	4	SIC	243	RC	2	1	02VD 09VO 02VC 02MD 02MO 02MC 02RD 02RO	1	0	0.564359903336	-335.0	63.0	-328	59	1
2.7	2015_May_08_1151	s	s	3	4	SIC	244	RC	1	0	02VD 02VO 02VC 02MD 02MO 09MC 02RD 02RO	1	0	0.91259598732	89.0	384.0	93	386	1
2.7	2015_May_08_1151	s	s	3	4	SIC	245	RC	0	2	02VD 02VO 02VC 02MD 02MO 02MC 09RD 02RO	1	0	0.665235042572	-165.0	297.0	-162	293	1
2.7	2015_May_08_1151	s	s	3	4	SIC	246	RC	1	2	02VD 02VO 02VC 09MD 02MO 02MC 02RD 02RO	1	0	0.829445123672	67.0	144.0	66	144	1
2.7	2015_May_08_1151	s	s	3	4	SIC	247	RC	2	2	09VD 02VO 02VC 02MD 02MO 02MC 02RD 02RO	1	0	1.78254795074	329.0	-381.0	318	-379	1
2.7	2015_May_08_1151	s	s	3	4	SIC	248	ABS	2	1	02VD 10VO 02VC 02MD 02MO 02MC 02RD 02RO	0	1	1.74143505096	None	None	None	None	1
2.7	2015_May_08_1151	s	s	3	4	SIC	249	ABS	1	0	02VD 02VO 02VC 02MD 02MO 10MC 02RD 02RO	0	1	2.70665884018	None	None	None	None	1
2.7	2015_May_08_1151	s	s	3	4	SIC	250	ABS	1	2	02VD 02VO 02VC 10MD 02MO 02MC 02RD 02RO	0	1	1.74142599106	None	None	None	None	1
2.7	2015_May_08_1151	s	s	3	4	SIC	251	ABS	0	1	02VD 02VO 02VC 02MD 02MO 02MC 02RD 10RO	0	1	2.48944807053	None	None	None	None	1
2.7	2015_May_08_1151	s	s	3	4	SIC	252	ABS	0	2	02VD 02VO 02VC 02MD 02MO 02MC 10RD 02RO	0	1	1.44718599319	None	None	None	None	1
2.7	2015_May_08_1151	s	s	3	4	SIC	253	ABS	2	2	10VD 02VO 02VC 02MD 02MO 02MC 02RD 02RO	0	1	2.2193980217	None	None	None	None	1
2.7	2015_May_08_1151	s	s	3	4	SIC	254	ABS	1	1	02VD 02VO 02VC 02MD 10MO 02MC 02RD 02RO	0	1	2.05488705635	None	None	None	None	1
2.7	2015_May_08_1151	s	s	3	4	SIC	255	RC	2	0	02VD 02VO 09VC 02MD 02MO 02MC 02RD 02RO	1	0	0.864650964737	-8.0	372.0	-9	373	1
2.7	2015_May_08_1151	s	s	3	4	SIC	256	RC	1	1	02VD 02VO 02VC 02MD 09MO 02MC 02RD 02RO	1	0	1.69441008568	459.0	298.0	464	297	1
2.7	2015_May_08_1151	s	s	3	4	SIC	257	ABS	2	1	02VD 10VO 02VC 02MD 02MO 02MC 02RD 02RO	0	1	1.42360401154	None	None	None	None	1
2.7	2015_May_08_1151	s	s	3	4	SIC	258	ABS	0	2	02VD 02VO 02VC 02MD 02MO 02MC 10RD 02RO	0	1	1.85401010513	None	None	None	None	1
2.7	2015_May_08_1151	s	s	3	4	SIC	259	RC	2	1	02VD 09VO 02VC 02MD 02MO 02MC 02RD 02RO	1	0	1.35307097435	267.0	56.0	270	59	1
2.7	2015_May_08_1151	s	s	3	4	SIC	260	RC	1	2	02VD 02VO 02VC 09MD 02MO 02MC 02RD 02RO	1	0	0.870428085327	-342.0	342.0	-348	343	1
2.7	2015_May_08_1151	s	s	3	4	SIC	261	RC	2	0	02VD 02VO 09VC 02MD 02MO 02MC 02RD 02RO	1	0	0.524173974991	-29.0	-18.0	-24	-18	1
2.7	2015_May_08_1151	s	s	3	4	SIC	262	RC	1	0	02VD 02VO 02VC 02MD 02MO 09MC 02RD 02RO	1	0	0.923308134079	-81.0	-107.0	-89	-107	1
2.7	2015_May_08_1151	s	s	3	4	SIC	263	ABS	2	2	10VD 02VO 02VC 02MD 02MO 02MC 02RD 02RO	0	1	2.3534989357	None	None	None	None	1
2.7	2015_May_08_1151	s	s	3	4	SIC	264	ABS	1	2	02VD 02VO 02VC 10MD 02MO 02MC 02RD 02RO	0	1	1.82074093819	None	None	None	None	1
2.7	2015_May_08_1151	s	s	3	4	SIC	265	RC	2	2	09VD 02VO 02VC 02MD 02MO 02MC 02RD 02RO	1	0	1.05505990982	348.0	-180.0	341	-179	1
2.7	2015_May_08_1151	s	s	3	4	SIC	266	RC	1	1	02VD 02VO 02VC 02MD 09MO 02MC 02RD 02RO	1	0	0.782582998276	4.0	324.0	7	328	1
2.7	2015_May_08_1151	s	s	3	4	SIC	267	ABS	2	0	02VD 02VO 10VC 02MD 02MO 02MC 02RD 02RO	0	1	1.67764878273	None	None	None	None	1
2.7	2015_May_08_1151	s	s	3	4	SIC	268	RC	0	2	02VD 02VO 02VC 02MD 02MO 02MC 09RD 02RO	1	0	2.19822001457	-322.0	-367.0	-329	-370	1
2.7	2015_May_08_1151	s	s	3	4	SIC	269	ABS	1	1	02VD 02VO 02VC 02MD 10MO 02MC 02RD 02RO	0	1	2.61247897148	None	None	None	None	1
2.7	2015_May_08_1151	s	s	3	4	SIC	270	ABS	0	1	02VD 02VO 02VC 02MD 02MO 02MC 02RD 10RO	0	1	4.23180508614	None	None	None	None	1
2.7	2015_May_08_1151	s	s	3	4	SIC	271	RC	0	1	02VD 02VO 02VC 02MD 02MO 02MC 02RD 09RO	1	0	1.80026292801	329.0	-129.0	325	-130	1
2.7	2015_May_08_1151	s	s	3	4	SIC	272	ABS	1	0	02VD 02VO 02VC 02MD 02MO 10MC 02RD 02RO	0	1	3.70712280273	None	None	None	None	1
2.7	2015_May_08_1151	s	s	3	4	SIC	273	ABS	1	0	02VD 02VO 02VC 02MD 02MO 10MC 02RD 02RO	0	1	2.72721600533	None	None	None	None	1
2.7	2015_May_08_1151	s	s	3	4	SIC	274	RC	2	1	02VD 09VO 02VC 02MD 02MO 02MC 02RD 02RO	1	0	1.2993581295	344.0	-125.0	344	-125	1
2.7	2015_May_08_1151	s	s	3	4	SIC	275	ABS	2	1	02VD 10VO 02VC 02MD 02MO 02MC 02RD 02RO	0	1	1.94988703728	None	None	None	None	1
2.7	2015_May_08_1151	s	s	3	4	SIC	276	RC	0	2	02VD 02VO 02VC 02MD 02MO 02MC 09RD 02RO	1	0	0.525944948196	-322.0	120.0	-317	120	1
2.7	2015_May_08_1151	s	s	3	4	SIC	277	RC	2	0	02VD 02VO 09VC 02MD 02MO 02MC 02RD 02RO	1	0	0.611433029175	-152.0	269.0	-154	262	1
2.7	2015_May_08_1151	s	s	3	4	SIC	278	ABS	0	2	02VD 02VO 02VC 02MD 02MO 02MC 10RD 02RO	0	1	1.92473387718	None	None	None	None	1
2.7	2015_May_08_1151	s	s	3	4	SIC	279	ABS	1	2	02VD 02VO 02VC 10MD 02MO 02MC 02RD 02RO	0	1	2.70657300949	None	None	None	None	1
2.7	2015_May_08_1151	s	s	3	4	SIC	280	RC	1	2	02VD 02VO 02VC 09MD 02MO 02MC 02RD 02RO	1	0	1.208507061	147.0	-223.0	146	-222	1
2.7	2015_May_08_1151	s	s	3	4	SIC	281	RC	2	2	09VD 02VO 02VC 02MD 02MO 02MC 02RD 02RO	1	0	1.03034901619	60.0	-384.0	58	-376	1
2.7	2015_May_08_1151	s	s	3	4	SIC	282	RC	1	1	02VD 02VO 02VC 02MD 09MO 02MC 02RD 02RO	1	0	0.960474014282	187.0	236.0	182	243	1
2.7	2015_May_08_1151	s	s	3	4	SIC	283	RC	1	0	02VD 02VO 02VC 02MD 02MO 09MC 02RD 02RO	1	0	1.21176099777	-80.0	232.0	-79	228	1
2.7	2015_May_08_1151	s	s	3	4	SIC	284	ABS	1	1	02VD 02VO 02VC 02MD 10MO 02MC 02RD 02RO	0	1	2.12485218048	None	None	None	None	1
2.7	2015_May_08_1151	s	s	3	4	SIC	285	ABS	2	0	02VD 02VO 10VC 02MD 02MO 02MC 02RD 02RO	0	1	2.28288006783	None	None	None	None	1
2.7	2015_May_08_1151	s	s	3	4	SIC	286	ABS	2	2	10VD 02VO 02VC 02MD 02MO 02MC 02RD 02RO	0	1	2.3297162056	None	None	None	None	1
2.7	2015_May_08_1151	s	s	3	4	SIC	287	ABS	0	1	02VD 02VO 02VC 02MD 02MO 02MC 02RD 10RO	0	1	3.16308999062	None	None	None	None	1
2.7	2015_May_08_1151	s	s	3	4	SIC	288	RC	0	1	02VD 02VO 02VC 02MD 02MO 02MC 02RD 09RO	1	0	1.57336902618	251.0	178.0	257	176	1
2.7	2015_May_08_1151	s	s	3	4	SIC	289	RC	2	2	09VD 02VO 02VC 02MD 02MO 02MC 02RD 02RO	1	0	0.808136940002	-69.0	-83.0	-74	-87	1
2.7	2015_May_08_1151	s	s	3	4	SIC	290	ABS	2	0	02VD 02VO 10VC 02MD 02MO 02MC 02RD 02RO	0	1	1.89884710312	None	None	None	None	1
2.7	2015_May_08_1151	s	s	3	4	SIC	291	RC	2	1	02VD 09VO 02VC 02MD 02MO 02MC 02RD 02RO	1	0	0.689413070679	-383.0	155.0	-370	159	1
2.7	2015_May_08_1151	s	s	3	4	SIC	292	RC	1	0	02VD 02VO 02VC 02MD 02MO 09MC 02RD 02RO	1	0	1.71527290344	465.0	-222.0	468	-220	1
2.7	2015_May_08_1151	s	s	3	4	SIC	293	ABS	0	2	02VD 02VO 02VC 02MD 02MO 02MC 10RD 02RO	0	1	2.80053806305	None	None	None	None	1
2.7	2015_May_08_1151	s	s	3	4	SIC	294	ABS	2	1	02VD 10VO 02VC 02MD 02MO 02MC 02RD 02RO	0	1	2.28287005424	None	None	None	None	1
2.7	2015_May_08_1151	s	s	3	4	SIC	295	RC	1	2	02VD 02VO 02VC 09MD 02MO 02MC 02RD 02RO	1	0	1.74904203415	-30.0	-401.0	-34	-400	1
2.7	2015_May_08_1151	s	s	3	4	SIC	296	RC	0	1	02VD 02VO 02VC 02MD 02MO 02MC 02RD 09RO	1	0	2.84280610085	-516.0	-386.0	-512	-378	1
2.7	2015_May_08_1151	s	s	3	4	SIC	297	ABS	1	2	02VD 02VO 02VC 10MD 02MO 02MC 02RD 02RO	1	0	1.98423814774	None	None	-356	-209	0
2.7	2015_May_08_1151	s	s	3	4	SIC	298	ABS	1	0	02VD 02VO 02VC 02MD 02MO 10MC 02RD 02RO	0	1	2.33458614349	None	None	None	None	1
2.7	2015_May_08_1151	s	s	3	4	SIC	299	RC	1	1	02VD 02VO 02VC 02MD 09MO 02MC 02RD 02RO	1	0	1.15278983116	458.0	256.0	456	256	1
2.7	2015_May_08_1151	s	s	3	4	SIC	300	RC	2	0	02VD 02VO 09VC 02MD 02MO 02MC 02RD 02RO	1	0	1.32947087288	91.0	-322.0	91	-318	1
2.7	2015_May_08_1151	s	s	3	4	SIC	301	ABS	2	2	10VD 02VO 02VC 02MD 02MO 02MC 02RD 02RO	0	1	2.31537890434	None	None	None	None	1
2.7	2015_May_08_1151	s	s	3	4	SIC	302	ABS	0	1	02VD 02VO 02VC 02MD 02MO 02MC 02RD 10RO	0	1	4.78691411018	None	None	None	None	1
2.7	2015_May_08_1151	s	s	3	4	SIC	303	ABS	1	1	02VD 02VO 02VC 02MD 10MO 02MC 02RD 02RO	0	1	2.97257113457	None	None	None	None	1
2.7	2015_May_08_1151	s	s	3	4	SIC	304	RC	0	2	02VD 02VO 02VC 02MD 02MO 02MC 09RD 02RO	1	0	0.964605808258	-524.0	273.0	-526	271	1
2.7	2015_May_08_1151	s	s	3	4	SIC	305	RC	0	1	02VD 02VO 02VC 02MD 02MO 02MC 02RD 09RO	1	0	1.61908721924	-284.0	-214.0	-276	-212	1
2.7	2015_May_08_1151	s	s	3	4	SIC	306	ABS	1	2	02VD 02VO 02VC 10MD 02MO 02MC 02RD 02RO	0	1	1.98865389824	None	None	None	None	1
2.7	2015_May_08_1151	s	s	3	4	SIC	307	RC	1	0	02VD 02VO 02VC 02MD 02MO 09MC 02RD 02RO	1	0	0.725541830063	-54.0	128.0	-50	125	1
2.7	2015_May_08_1151	s	s	3	4	SIC	308	ABS	2	1	02VD 10VO 02VC 02MD 02MO 02MC 02RD 02RO	0	1	1.90098690987	None	None	None	None	1
2.7	2015_May_08_1151	s	s	3	4	SIC	309	RC	2	1	02VD 09VO 02VC 02MD 02MO 02MC 02RD 02RO	1	0	1.27062487602	-317.0	367.0	-321	371	1
2.7	2015_May_08_1151	s	s	3	4	SIC	310	ABS	1	0	02VD 02VO 02VC 02MD 02MO 10MC 02RD 02RO	0	1	2.43596887589	None	None	None	None	1
2.7	2015_May_08_1151	s	s	3	4	SIC	311	RC	2	2	09VD 02VO 02VC 02MD 02MO 02MC 02RD 02RO	1	0	0.69384098053	-206.0	-16.0	-203	-13	1
2.7	2015_May_08_1151	s	s	3	4	SIC	312	ABS	1	1	02VD 02VO 02VC 02MD 10MO 02MC 02RD 02RO	0	1	3.48331689835	None	None	None	None	1
2.7	2015_May_08_1151	s	s	3	4	SIC	313	RC	2	0	02VD 02VO 09VC 02MD 02MO 02MC 02RD 02RO	1	0	2.04183697701	-24.0	-290.0	-28	-300	1
2.7	2015_May_08_1151	s	s	3	4	SIC	314	ABS	2	2	10VD 02VO 02VC 02MD 02MO 02MC 02RD 02RO	0	1	1.98351287842	None	None	None	None	1
2.7	2015_May_08_1151	s	s	3	4	SIC	315	RC	1	1	02VD 02VO 02VC 02MD 09MO 02MC 02RD 02RO	1	0	3.68358922005	-160.0	33.0	-155	34	1
2.7	2015_May_08_1151	s	s	3	4	SIC	316	ABS	2	0	02VD 02VO 10VC 02MD 02MO 02MC 02RD 02RO	0	1	3.48348999023	None	None	None	None	1
2.7	2015_May_08_1151	s	s	3	4	SIC	317	ABS	0	1	02VD 02VO 02VC 02MD 02MO 02MC 02RD 10RO	0	1	4.09103989601	None	None	None	None	1
2.7	2015_May_08_1151	s	s	3	4	SIC	318	ABS	0	2	02VD 02VO 02VC 02MD 02MO 02MC 10RD 02RO	0	1	2.79555892944	None	None	None	None	1
2.7	2015_May_08_1151	s	s	3	4	SIC	319	RC	0	2	02VD 02VO 02VC 02MD 02MO 02MC 09RD 02RO	1	0	0.665387868881	-90.0	36.0	-88	27	1
2.7	2015_May_08_1151	s	s	3	4	SIC	320	RC	1	2	02VD 02VO 02VC 09MD 02MO 02MC 02RD 02RO	0	1	2.32417201996	473.0	-373.0	None	None	0
2.7	2015_May_08_1151	s	s	3	4	SIC	321	RC	0	1	02VD 02VO 02VC 02MD 02MO 02MC 02RD 09RO	1	0	2.68306589127	368.0	-263.0	367	-264	1
2.7	2015_May_08_1151	s	s	3	4	SIC	322	RC	2	0	02VD 02VO 09VC 02MD 02MO 02MC 02RD 02RO	1	0	1.35303211212	-491.0	-215.0	-480	-214	1
2.7	2015_May_08_1151	s	s	3	4	SIC	323	ABS	0	2	02VD 02VO 02VC 02MD 02MO 02MC 10RD 02RO	0	1	2.33824396133	None	None	None	None	1
2.7	2015_May_08_1151	s	s	3	4	SIC	324	RC	0	2	02VD 02VO 02VC 02MD 02MO 02MC 09RD 02RO	0	1	2.19675111771	368.0	182.0	None	None	0
2.7	2015_May_08_1151	s	s	3	4	SIC	325	ABS	1	2	02VD 02VO 02VC 10MD 02MO 02MC 02RD 02RO	0	1	2.0827858448	None	None	None	None	1
2.7	2015_May_08_1151	s	s	3	4	SIC	326	RC	1	0	02VD 02VO 02VC 02MD 02MO 09MC 02RD 02RO	1	0	2.04746389389	391.0	-20.0	400	-19	1
2.7	2015_May_08_1151	s	s	3	4	SIC	327	RC	2	2	09VD 02VO 02VC 02MD 02MO 02MC 02RD 02RO	1	0	0.732762098312	-199.0	131.0	-206	125	1
2.7	2015_May_08_1151	s	s	3	4	SIC	328	RC	1	2	02VD 02VO 02VC 09MD 02MO 02MC 02RD 02RO	1	0	1.50335884094	251.0	-26.0	251	-25	1
2.7	2015_May_08_1151	s	s	3	4	SIC	329	RC	2	1	02VD 09VO 02VC 02MD 02MO 02MC 02RD 02RO	1	0	0.888818979263	-375.0	214.0	-368	214	1
2.7	2015_May_08_1151	s	s	3	4	SIC	330	ABS	2	0	02VD 02VO 10VC 02MD 02MO 02MC 02RD 02RO	0	1	3.52413606644	None	None	None	None	1
2.7	2015_May_08_1151	s	s	3	4	SIC	331	ABS	2	2	10VD 02VO 02VC 02MD 02MO 02MC 02RD 02RO	0	1	1.68262887001	None	None	None	None	1
2.7	2015_May_08_1151	s	s	3	4	SIC	332	ABS	1	1	02VD 02VO 02VC 02MD 10MO 02MC 02RD 02RO	0	1	2.79651808739	None	None	None	None	1
2.7	2015_May_08_1151	s	s	3	4	SIC	333	ABS	0	1	02VD 02VO 02VC 02MD 02MO 02MC 02RD 10RO	0	1	4.06030511856	None	None	None	None	1
2.7	2015_May_08_1151	s	s	3	4	SIC	334	RC	1	1	02VD 02VO 02VC 02MD 09MO 02MC 02RD 02RO	1	0	0.866805076599	-192.0	-117.0	-195	-114	1
2.7	2015_May_08_1151	s	s	3	4	SIC	335	ABS	1	0	02VD 02VO 02VC 02MD 02MO 10MC 02RD 02RO	0	1	3.49050593376	None	None	None	None	1
2.7	2015_May_08_1151	s	s	3	4	SIC	336	ABS	2	1	02VD 10VO 02VC 02MD 02MO 02MC 02RD 02RO	0	1	2.15334582329	None	None	None	None	1
2.7	2015_May_08_1151	s	s	3	4	SIC	337	ABS	1	1	02VD 02VO 02VC 02MD 10MO 02MC 02RD 02RO	0	1	2.97181081772	None	None	None	None	1
2.7	2015_May_08_1151	s	s	3	4	SIC	338	RC	2	0	02VD 02VO 09VC 02MD 02MO 02MC 02RD 02RO	1	0	1.11771392822	-138.0	322.0	-132	320	1
2.7	2015_May_08_1151	s	s	3	4	SIC	339	RC	2	2	09VD 02VO 02VC 02MD 02MO 02MC 02RD 02RO	1	0	1.01162910461	372.0	-23.0	379	-20	1
2.7	2015_May_08_1151	s	s	3	4	SIC	340	ABS	0	1	02VD 02VO 02VC 02MD 02MO 02MC 02RD 10RO	0	1	3.18911480904	None	None	None	None	1
2.7	2015_May_08_1151	s	s	3	4	SIC	341	RC	2	1	02VD 09VO 02VC 02MD 02MO 02MC 02RD 02RO	1	0	0.936046123505	-113.0	-20.0	-120	-23	1
2.7	2015_May_08_1151	s	s	3	4	SIC	342	ABS	1	0	02VD 02VO 02VC 02MD 02MO 10MC 02RD 02RO	0	1	2.60669994354	None	None	None	None	1
2.7	2015_May_08_1151	s	s	3	4	SIC	343	ABS	2	0	02VD 02VO 10VC 02MD 02MO 02MC 02RD 02RO	0	1	1.77364301682	None	None	None	None	1
2.7	2015_May_08_1151	s	s	3	4	SIC	344	RC	0	2	02VD 02VO 02VC 02MD 02MO 02MC 09RD 02RO	1	0	2.00089597702	-287.0	-313.0	-286	-312	1
2.7	2015_May_08_1151	s	s	3	4	SIC	345	RC	1	1	02VD 02VO 02VC 02MD 09MO 02MC 02RD 02RO	1	0	1.28925895691	-491.0	30.0	-487	37	1
2.7	2015_May_08_1151	s	s	3	4	SIC	346	RC	1	2	02VD 02VO 02VC 09MD 02MO 02MC 02RD 02RO	1	0	0.89047908783	96.0	158.0	103	165	1
2.7	2015_May_08_1151	s	s	3	4	SIC	347	ABS	2	2	10VD 02VO 02VC 02MD 02MO 02MC 02RD 02RO	0	1	1.63011097908	None	None	None	None	1
2.7	2015_May_08_1151	s	s	3	4	SIC	348	RC	1	0	02VD 02VO 02VC 02MD 02MO 09MC 02RD 02RO	1	0	2.18516397476	492.0	65.0	500	60	1
2.7	2015_May_08_1151	s	s	3	4	SIC	349	ABS	0	2	02VD 02VO 02VC 02MD 02MO 02MC 10RD 02RO	0	1	2.40070414543	None	None	None	None	1
2.7	2015_May_08_1151	s	s	3	4	SIC	350	ABS	2	1	02VD 10VO 02VC 02MD 02MO 02MC 02RD 02RO	0	1	1.97172212601	None	None	None	None	1
2.7	2015_May_08_1151	s	s	3	4	SIC	351	ABS	1	2	02VD 02VO 02VC 10MD 02MO 02MC 02RD 02RO	0	1	1.86385607719	None	None	None	None	1
2.7	2015_May_08_1151	s	s	3	4	SIC	352	RC	0	1	02VD 02VO 02VC 02MD 02MO 02MC 02RD 09RO	1	0	3.44369697571	473.0	63.0	480	66	1
2.7	2015_May_08_1151	s	s	3	4	SIC	353	ABS	2	2	10VD 02VO 02VC 02MD 02MO 02MC 02RD 02RO	0	1	1.80025696754	None	None	None	None	1
2.7	2015_May_08_1151	s	s	3	4	SIC	354	RC	1	2	02VD 02VO 02VC 09MD 02MO 02MC 02RD 02RO	1	0	0.623193979263	-470.0	113.0	-463	106	1
2.7	2015_May_08_1151	s	s	3	4	SIC	355	RC	1	1	02VD 02VO 02VC 02MD 09MO 02MC 02RD 02RO	1	0	2.91042304039	-500.0	-223.0	-511	-222	1
2.7	2015_May_08_1151	s	s	3	4	SIC	356	RC	0	1	02VD 02VO 02VC 02MD 02MO 02MC 02RD 09RO	1	0	1.34955811501	-51.0	-120.0	-61	-120	1
2.7	2015_May_08_1151	s	s	3	4	SIC	357	ABS	1	0	02VD 02VO 02VC 02MD 02MO 10MC 02RD 02RO	0	1	3.29516100883	None	None	None	None	1
2.7	2015_May_08_1151	s	s	3	4	SIC	358	RC	0	2	02VD 02VO 02VC 02MD 02MO 02MC 09RD 02RO	1	0	1.29162693024	-131.0	51.0	-129	48	1
2.7	2015_May_08_1151	s	s	3	4	SIC	359	RC	1	0	02VD 02VO 02VC 02MD 02MO 09MC 02RD 02RO	1	0	2.11192798615	201.0	-307.0	205	-303	1
2.7	2015_May_08_1151	s	s	3	4	SIC	360	ABS	0	2	02VD 02VO 02VC 02MD 02MO 02MC 10RD 02RO	0	1	2.53679585457	None	None	None	None	1
2.7	2015_May_08_1151	s	s	3	4	SIC	361	ABS	2	1	02VD 10VO 02VC 02MD 02MO 02MC 02RD 02RO	0	1	4.24858212471	None	None	None	None	1
2.7	2015_May_08_1151	s	s	3	4	SIC	362	ABS	1	1	02VD 02VO 02VC 02MD 10MO 02MC 02RD 02RO	0	1	2.34543085098	None	None	None	None	1
2.7	2015_May_08_1151	s	s	3	4	SIC	363	RC	2	1	02VD 09VO 02VC 02MD 02MO 02MC 02RD 02RO	1	0	1.07036590576	306.0	-378.0	306	-384	1
2.7	2015_May_08_1151	s	s	3	4	SIC	364	RC	2	2	09VD 02VO 02VC 02MD 02MO 02MC 02RD 02RO	1	0	0.971535205841	349.0	237.0	356	239	1
2.7	2015_May_08_1151	s	s	3	4	SIC	365	RC	2	0	02VD 02VO 09VC 02MD 02MO 02MC 02RD 02RO	1	0	1.28914213181	492.0	48.0	498	51	1
2.7	2015_May_08_1151	s	s	3	4	SIC	366	ABS	0	1	02VD 02VO 02VC 02MD 02MO 02MC 02RD 10RO	0	1	4.13084697723	None	None	None	None	1
2.7	2015_May_08_1151	s	s	3	4	SIC	367	ABS	2	0	02VD 02VO 10VC 02MD 02MO 02MC 02RD 02RO	0	1	3.04822278023	None	None	None	None	1
2.7	2015_May_08_1151	s	s	3	4	SIC	368	ABS	1	2	02VD 02VO 02VC 10MD 02MO 02MC 02RD 02RO	0	1	1.97224593163	None	None	None	None	1
2.7	2015_May_08_1151	s	s	3	4	SIC	369	RC	0	1	02VD 02VO 02VC 02MD 02MO 02MC 02RD 09RO	1	0	1.17410802841	-93.0	-4.0	-92	-10	1
2.7	2015_May_08_1151	s	s	3	4	SIC	370	RC	2	2	09VD 02VO 02VC 02MD 02MO 02MC 02RD 02RO	1	0	0.523586988449	-207.0	63.0	-204	73	1
2.7	2015_May_08_1151	s	s	3	4	SIC	371	ABS	0	1	02VD 02VO 02VC 02MD 02MO 02MC 02RD 10RO	0	1	3.00709891319	None	None	None	None	1
2.7	2015_May_08_1151	s	s	3	4	SIC	372	ABS	2	1	02VD 10VO 02VC 02MD 02MO 02MC 02RD 02RO	0	1	1.5232219696	None	None	None	None	1
2.7	2015_May_08_1151	s	s	3	4	SIC	373	ABS	1	2	02VD 02VO 02VC 10MD 02MO 02MC 02RD 02RO	0	1	1.51428198814	None	None	None	None	1
2.7	2015_May_08_1151	s	s	3	4	SIC	374	RC	1	2	02VD 02VO 02VC 09MD 02MO 02MC 02RD 02RO	1	0	0.693731069565	-181.0	274.0	-182	274	1
2.7	2015_May_08_1151	s	s	3	4	SIC	375	RC	2	0	02VD 02VO 09VC 02MD 02MO 02MC 02RD 02RO	0	1	1.93671607971	480.0	-310.0	None	None	0
2.7	2015_May_08_1151	s	s	3	4	SIC	376	ABS	1	1	02VD 02VO 02VC 02MD 10MO 02MC 02RD 02RO	0	1	1.67798709869	None	None	None	None	1
2.7	2015_May_08_1151	s	s	3	4	SIC	377	RC	0	2	02VD 02VO 02VC 02MD 02MO 02MC 09RD 02RO	1	0	1.40700602531	-448.0	-348.0	-452	-354	1
2.7	2015_May_08_1151	s	s	3	4	SIC	378	ABS	2	2	10VD 02VO 02VC 02MD 02MO 02MC 02RD 02RO	0	1	1.6537630558	None	None	None	None	1
2.7	2015_May_08_1151	s	s	3	4	SIC	379	RC	1	0	02VD 02VO 02VC 02MD 02MO 09MC 02RD 02RO	1	0	0.709336996078	-5.0	229.0	-1	233	1
2.7	2015_May_08_1151	s	s	3	4	SIC	380	ABS	1	0	02VD 02VO 02VC 02MD 02MO 10MC 02RD 02RO	0	1	3.58938384056	None	None	None	None	1
2.7	2015_May_08_1151	s	s	3	4	SIC	381	ABS	0	2	02VD 02VO 02VC 02MD 02MO 02MC 10RD 02RO	0	1	2.05626893044	None	None	None	None	1
2.7	2015_May_08_1151	s	s	3	4	SIC	382	RC	1	1	02VD 02VO 02VC 02MD 09MO 02MC 02RD 02RO	1	0	2.07764601707	-437.0	-241.0	-434	-253	1
2.7	2015_May_08_1151	s	s	3	4	SIC	383	ABS	2	0	02VD 02VO 10VC 02MD 02MO 02MC 02RD 02RO	0	1	1.82400393486	None	None	None	None	1
2.7	2015_May_08_1151	s	s	3	4	SIC	384	RC	2	1	02VD 09VO 02VC 02MD 02MO 02MC 02RD 02RO	1	0	0.670235157013	-97.0	82.0	-95	86	1
2.7	2015_May_08_1151	s	s	3	4	SIC	385	ABS	1	2	02VD 02VO 02VC 10MD 02MO 02MC 02RD 02RO	0	1	2.44253802299	None	None	None	None	1
2.7	2015_May_08_1151	s	s	3	4	SIC	386	RC	2	2	09VD 02VO 02VC 02MD 02MO 02MC 02RD 02RO	1	0	1.24206495285	27.0	-315.0	27	-323	1
2.7	2015_May_08_1151	s	s	3	4	SIC	387	RC	0	2	02VD 02VO 02VC 02MD 02MO 02MC 09RD 02RO	1	0	1.51770591736	422.0	-277.0	428	-278	1
2.7	2015_May_08_1151	s	s	3	4	SIC	388	ABS	2	1	02VD 10VO 02VC 02MD 02MO 02MC 02RD 02RO	0	1	1.95102095604	None	None	None	None	1
2.7	2015_May_08_1151	s	s	3	4	SIC	389	RC	0	1	02VD 02VO 02VC 02MD 02MO 02MC 02RD 09RO	1	0	2.20747900009	434.0	-231.0	432	-229	1
2.7	2015_May_08_1151	s	s	3	4	SIC	390	ABS	1	0	02VD 02VO 02VC 02MD 02MO 10MC 02RD 02RO	0	1	2.76043796539	None	None	None	None	1
2.7	2015_May_08_1151	s	s	3	4	SIC	391	ABS	2	0	02VD 02VO 10VC 02MD 02MO 02MC 02RD 02RO	0	1	1.63277697563	None	None	None	None	1
2.7	2015_May_08_1151	s	s	3	4	SIC	392	ABS	1	1	02VD 02VO 02VC 02MD 10MO 02MC 02RD 02RO	0	1	2.77466416359	None	None	None	None	1
2.7	2015_May_08_1151	s	s	3	4	SIC	393	RC	2	1	02VD 09VO 02VC 02MD 02MO 02MC 02RD 02RO	1	0	1.0326218605	20.0	-368.0	19	-372	1
2.7	2015_May_08_1151	s	s	3	4	SIC	394	RC	2	0	02VD 02VO 09VC 02MD 02MO 02MC 02RD 02RO	1	0	1.15881109238	443.0	200.0	441	200	1
2.7	2015_May_08_1151	s	s	3	4	SIC	395	RC	1	1	02VD 02VO 02VC 02MD 09MO 02MC 02RD 02RO	1	0	2.78904104233	370.0	129.0	377	125	1
2.7	2015_May_08_1151	s	s	3	4	SIC	396	ABS	0	2	02VD 02VO 02VC 02MD 02MO 02MC 10RD 02RO	0	1	1.52940487862	None	None	None	None	1
2.7	2015_May_08_1151	s	s	3	4	SIC	397	ABS	2	2	10VD 02VO 02VC 02MD 02MO 02MC 02RD 02RO	0	1	2.37716507912	None	None	None	None	1
2.7	2015_May_08_1151	s	s	3	4	SIC	398	RC	1	0	02VD 02VO 02VC 02MD 02MO 09MC 02RD 02RO	1	0	2.8439950943	307.0	49.0	298	46	1
2.7	2015_May_08_1151	s	s	3	4	SIC	399	RC	1	2	02VD 02VO 02VC 09MD 02MO 02MC 02RD 02RO	1	0	1.23525285721	-140.0	-302.0	-148	-307	1
2.7	2015_May_08_1151	s	s	3	4	SIC	400	ABS	0	1	02VD 02VO 02VC 02MD 02MO 02MC 02RD 10RO	1	0	5.03138494492	None	None	-30	-111	0
2.7	2015_May_08_1151	s	s	3	4	SIC	401	RC	0	1	02VD 02VO 02VC 02MD 02MO 02MC 02RD 09RO	1	0	1.85576987267	357.0	404.0	359	402	1
2.7	2015_May_08_1151	s	s	3	4	SIC	402	ABS	2	0	02VD 02VO 10VC 02MD 02MO 02MC 02RD 02RO	0	1	1.69443106651	None	None	None	None	1
2.7	2015_May_08_1151	s	s	3	4	SIC	403	ABS	0	1	02VD 02VO 02VC 02MD 02MO 02MC 02RD 10RO	0	1	4.91577291489	None	None	None	None	1
2.7	2015_May_08_1151	s	s	3	4	SIC	404	RC	0	2	02VD 02VO 02VC 02MD 02MO 02MC 09RD 02RO	1	0	2.31544804573	-14.0	-337.0	-18	-337	1
2.7	2015_May_08_1151	s	s	3	4	SIC	405	RC	2	1	02VD 09VO 02VC 02MD 02MO 02MC 02RD 02RO	1	0	1.03181409836	144.0	-220.0	147	-212	1
2.7	2015_May_08_1151	s	s	3	4	SIC	406	RC	1	2	02VD 02VO 02VC 09MD 02MO 02MC 02RD 02RO	1	0	1.19730114937	-103.0	-352.0	-95	-358	1
2.7	2015_May_08_1151	s	s	3	4	SIC	407	ABS	1	1	02VD 02VO 02VC 02MD 10MO 02MC 02RD 02RO	0	1	2.59260988235	None	None	None	None	1
2.7	2015_May_08_1151	s	s	3	4	SIC	408	ABS	2	2	10VD 02VO 02VC 02MD 02MO 02MC 02RD 02RO	0	1	6.42035508156	None	None	None	None	1
2.7	2015_May_08_1151	s	s	3	4	SIC	409	ABS	1	2	02VD 02VO 02VC 10MD 02MO 02MC 02RD 02RO	0	1	2.0653219223	None	None	None	None	1
2.7	2015_May_08_1151	s	s	3	4	SIC	410	RC	2	2	09VD 02VO 02VC 02MD 02MO 02MC 02RD 02RO	1	0	2.45930814743	-350.0	-412.0	-362	-411	1
2.7	2015_May_08_1151	s	s	3	4	SIC	411	RC	2	0	02VD 02VO 09VC 02MD 02MO 02MC 02RD 02RO	1	0	0.893837928772	-138.0	-323.0	-139	-323	1
2.7	2015_May_08_1151	s	s	3	4	SIC	412	RC	1	1	02VD 02VO 02VC 02MD 09MO 02MC 02RD 02RO	1	0	1.65909290314	232.0	-37.0	230	-34	1
2.7	2015_May_08_1151	s	s	3	4	SIC	413	ABS	1	0	02VD 02VO 02VC 02MD 02MO 10MC 02RD 02RO	0	1	2.10633206367	None	None	None	None	1
2.7	2015_May_08_1151	s	s	3	4	SIC	414	ABS	0	2	02VD 02VO 02VC 02MD 02MO 02MC 10RD 02RO	0	1	2.35352396965	None	None	None	None	1
2.7	2015_May_08_1151	s	s	3	4	SIC	415	RC	1	0	02VD 02VO 02VC 02MD 02MO 09MC 02RD 02RO	1	0	0.900027036667	-477.0	134.0	-483	126	1
2.7	2015_May_08_1151	s	s	3	4	SIC	416	ABS	2	1	02VD 10VO 02VC 02MD 02MO 02MC 02RD 02RO	0	1	1.58442807198	None	None	None	None	1
2.7	2015_May_08_1151	s	s	3	4	SIC	417	RC	1	0	02VD 02VO 02VC 02MD 02MO 09MC 02RD 02RO	1	0	2.15061187744	-448.0	-378.0	-441	-374	1
2.7	2015_May_08_1151	s	s	3	4	SIC	418	RC	0	2	02VD 02VO 02VC 02MD 02MO 02MC 09RD 02RO	1	0	0.805757045746	234.0	-386.0	230	-388	1
2.7	2015_May_08_1151	s	s	3	4	SIC	419	RC	2	0	02VD 02VO 09VC 02MD 02MO 02MC 02RD 02RO	1	0	0.576125860214	-446.0	174.0	-438	179	1
2.7	2015_May_08_1151	s	s	3	4	SIC	420	RC	2	1	02VD 09VO 02VC 02MD 02MO 02MC 02RD 02RO	1	0	0.797006845474	71.0	313.0	67	317	1
2.7	2015_May_08_1151	s	s	3	4	SIC	421	RC	1	2	02VD 02VO 02VC 09MD 02MO 02MC 02RD 02RO	1	0	0.92437005043	-466.0	204.0	-471	204	1
2.7	2015_May_08_1151	s	s	3	4	SIC	422	ABS	1	2	02VD 02VO 02VC 10MD 02MO 02MC 02RD 02RO	0	1	1.83153486252	None	None	None	None	1
2.7	2015_May_08_1151	s	s	3	4	SIC	423	ABS	2	2	10VD 02VO 02VC 02MD 02MO 02MC 02RD 02RO	0	1	2.51827788353	None	None	None	None	1
2.7	2015_May_08_1151	s	s	3	4	SIC	424	ABS	0	1	02VD 02VO 02VC 02MD 02MO 02MC 02RD 10RO	0	1	3.96280097961	None	None	None	None	1
2.7	2015_May_08_1151	s	s	3	4	SIC	425	ABS	0	2	02VD 02VO 02VC 02MD 02MO 02MC 10RD 02RO	0	1	2.24240398407	None	None	None	None	1
2.7	2015_May_08_1151	s	s	3	4	SIC	426	ABS	1	1	02VD 02VO 02VC 02MD 10MO 02MC 02RD 02RO	0	1	2.0945019722	None	None	None	None	1
2.7	2015_May_08_1151	s	s	3	4	SIC	427	ABS	1	0	02VD 02VO 02VC 02MD 02MO 10MC 02RD 02RO	0	1	2.45399808884	None	None	None	None	1
2.7	2015_May_08_1151	s	s	3	4	SIC	428	RC	0	1	02VD 02VO 02VC 02MD 02MO 02MC 02RD 09RO	1	0	1.36460494995	504.0	246.0	503	249	1
2.7	2015_May_08_1151	s	s	3	4	SIC	429	ABS	2	0	02VD 02VO 10VC 02MD 02MO 02MC 02RD 02RO	0	1	1.95329785347	None	None	None	None	1
2.7	2015_May_08_1151	s	s	3	4	SIC	430	RC	2	2	09VD 02VO 02VC 02MD 02MO 02MC 02RD 02RO	1	0	1.70597696304	-524.0	-48.0	-523	-47	1
2.7	2015_May_08_1151	s	s	3	4	SIC	431	ABS	2	1	02VD 10VO 02VC 02MD 02MO 02MC 02RD 02RO	1	0	2.97702908516	None	None	-340	64	0
2.7	2015_May_08_1151	s	s	3	4	SIC	432	RC	1	1	02VD 02VO 02VC 02MD 09MO 02MC 02RD 02RO	1	0	1.09081888199	160.0	48.0	153	53	1
2.7	2015_May_08_1151	s	s	3	4	SIC	433	RC	0	2	02VD 02VO 02VC 02MD 02MO 02MC 09RD 02RO	1	0	0.808269023895	-235.0	-59.0	279	-191	0
2.7	2015_May_08_1151	s	s	3	4	SIC	434	ABS	1	0	02VD 02VO 02VC 02MD 02MO 10MC 02RD 02RO	0	1	3.90027308464	None	None	None	None	1
2.7	2015_May_08_1151	s	s	3	4	SIC	435	ABS	1	2	02VD 02VO 02VC 10MD 02MO 02MC 02RD 02RO	0	1	2.17692399025	None	None	None	None	1
2.7	2015_May_08_1151	s	s	3	4	SIC	436	ABS	1	1	02VD 02VO 02VC 02MD 10MO 02MC 02RD 02RO	0	1	2.71591305733	None	None	None	None	1
2.7	2015_May_08_1151	s	s	3	4	SIC	437	RC	1	2	02VD 02VO 02VC 09MD 02MO 02MC 02RD 02RO	1	0	0.713669061661	75.0	-120.0	74	-119	1
2.7	2015_May_08_1151	s	s	3	4	SIC	438	RC	1	1	02VD 02VO 02VC 02MD 09MO 02MC 02RD 02RO	1	0	1.4424071312	-64.0	325.0	-61	327	1
2.7	2015_May_08_1151	s	s	3	4	SIC	439	ABS	0	1	02VD 02VO 02VC 02MD 02MO 02MC 02RD 10RO	0	1	3.86534905434	None	None	None	None	1
2.7	2015_May_08_1151	s	s	3	4	SIC	440	ABS	2	1	02VD 10VO 02VC 02MD 02MO 02MC 02RD 02RO	0	1	2.47797203064	None	None	None	None	1
2.7	2015_May_08_1151	s	s	3	4	SIC	441	RC	1	0	02VD 02VO 02VC 02MD 02MO 09MC 02RD 02RO	1	0	1.05870389938	-247.0	-310.0	-243	-307	1
2.7	2015_May_08_1151	s	s	3	4	SIC	442	RC	2	0	02VD 02VO 09VC 02MD 02MO 02MC 02RD 02RO	1	0	1.23512196541	-533.0	-363.0	-534	-357	1
2.7	2015_May_08_1151	s	s	3	4	SIC	443	ABS	2	2	10VD 02VO 02VC 02MD 02MO 02MC 02RD 02RO	0	1	2.38377189636	None	None	None	None	1
2.7	2015_May_08_1151	s	s	3	4	SIC	444	RC	0	1	02VD 02VO 02VC 02MD 02MO 02MC 02RD 09RO	1	0	3.56048607826	185.0	256.0	188	254	1
2.7	2015_May_08_1151	s	s	3	4	SIC	445	RC	2	1	02VD 09VO 02VC 02MD 02MO 02MC 02RD 02RO	1	0	1.31278800964	229.0	-86.0	232	-91	1
2.7	2015_May_08_1151	s	s	3	4	SIC	446	ABS	2	0	02VD 02VO 10VC 02MD 02MO 02MC 02RD 02RO	0	1	2.57741308212	None	None	None	None	1
2.7	2015_May_08_1151	s	s	3	4	SIC	447	ABS	0	2	02VD 02VO 02VC 02MD 02MO 02MC 10RD 02RO	0	1	2.08911108971	None	None	None	None	1
2.7	2015_May_08_1151	s	s	3	4	SIC	448	RC	2	2	09VD 02VO 02VC 02MD 02MO 02MC 02RD 02RO	1	0	0.9348051548	119.0	399.0	113	398	1
2.7	2015_May_08_1151	s	s	3	4	SIC	449	ABS	0	1	02VD 02VO 02VC 02MD 02MO 02MC 02RD 10RO	0	1	2.72631001472	None	None	None	None	1
2.7	2015_May_08_1151	s	s	3	4	SIC	450	ABS	0	2	02VD 02VO 02VC 02MD 02MO 02MC 10RD 02RO	0	1	1.74975800514	None	None	None	None	1
2.7	2015_May_08_1151	s	s	3	4	SIC	451	RC	2	2	09VD 02VO 02VC 02MD 02MO 02MC 02RD 02RO	0	1	1.73577618599	421.0	-180.0	None	None	0
2.7	2015_May_08_1151	s	s	3	4	SIC	452	RC	0	2	02VD 02VO 02VC 02MD 02MO 02MC 09RD 02RO	1	0	1.06787085533	-154.0	-183.0	-148	-187	1
2.7	2015_May_08_1151	s	s	3	4	SIC	453	ABS	2	2	10VD 02VO 02VC 02MD 02MO 02MC 02RD 02RO	0	1	1.67084503174	None	None	None	None	1
2.7	2015_May_08_1151	s	s	3	4	SIC	454	RC	0	1	02VD 02VO 02VC 02MD 02MO 02MC 02RD 09RO	1	0	1.44220304489	-371.0	183.0	-370	182	1
2.7	2015_May_08_1151	s	s	3	4	SIC	455	ABS	2	1	02VD 10VO 02VC 02MD 02MO 02MC 02RD 02RO	0	1	1.72348713875	None	None	None	None	1
2.7	2015_May_08_1151	s	s	3	4	SIC	456	RC	1	2	02VD 02VO 02VC 09MD 02MO 02MC 02RD 02RO	1	0	0.870283126831	-258.0	362.0	-257	365	1
2.7	2015_May_08_1151	s	s	3	4	SIC	457	ABS	1	2	02VD 02VO 02VC 10MD 02MO 02MC 02RD 02RO	0	1	1.48250007629	None	None	None	None	1
2.7	2015_May_08_1151	s	s	3	4	SIC	458	RC	1	0	02VD 02VO 02VC 02MD 02MO 09MC 02RD 02RO	1	0	1.06624794006	-430.0	-189.0	-429	-186	1
2.7	2015_May_08_1151	s	s	3	4	SIC	459	RC	2	0	02VD 02VO 09VC 02MD 02MO 02MC 02RD 02RO	1	0	1.01161885262	79.0	-8.0	82	-15	1
2.7	2015_May_08_1151	s	s	3	4	SIC	460	RC	1	1	02VD 02VO 02VC 02MD 09MO 02MC 02RD 02RO	1	0	0.841251850128	-539.0	-20.0	-536	-24	1
2.7	2015_May_08_1151	s	s	3	4	SIC	461	ABS	1	1	02VD 02VO 02VC 02MD 10MO 02MC 02RD 02RO	0	1	2.53009104729	None	None	None	None	1
2.7	2015_May_08_1151	s	s	3	4	SIC	462	ABS	2	0	02VD 02VO 10VC 02MD 02MO 02MC 02RD 02RO	0	1	1.5766620636	None	None	None	None	1
2.7	2015_May_08_1151	s	s	3	4	SIC	463	RC	2	1	02VD 09VO 02VC 02MD 02MO 02MC 02RD 02RO	1	0	1.8768389225	-109.0	-184.0	-114	-183	1
2.7	2015_May_08_1151	s	s	3	4	SIC	464	ABS	1	0	02VD 02VO 02VC 02MD 02MO 10MC 02RD 02RO	0	1	2.74198913574	None	None	None	None	1
2.7	2015_May_08_1151	s	s	3	4	SIC	465	RC	1	0	02VD 02VO 02VC 02MD 02MO 09MC 02RD 02RO	1	0	0.964667081833	133.0	-167.0	138	-160	1
2.7	2015_May_08_1151	s	s	3	4	SIC	466	RC	1	1	02VD 02VO 02VC 02MD 09MO 02MC 02RD 02RO	1	0	1.05400490761	-161.0	-225.0	-156	-223	1
2.7	2015_May_08_1151	s	s	3	4	SIC	467	RC	2	1	02VD 09VO 02VC 02MD 02MO 02MC 02RD 02RO	1	0	1.49425315857	375.0	60.0	365	66	1
2.7	2015_May_08_1151	s	s	3	4	SIC	468	ABS	0	1	02VD 02VO 02VC 02MD 02MO 02MC 02RD 10RO	0	1	2.72508382797	None	None	None	None	1
2.7	2015_May_08_1151	s	s	3	4	SIC	469	ABS	2	2	10VD 02VO 02VC 02MD 02MO 02MC 02RD 02RO	1	0	0.76121878624	None	None	428	-81	0
2.7	2015_May_08_1151	s	s	3	4	SIC	470	RC	2	0	02VD 02VO 09VC 02MD 02MO 02MC 02RD 02RO	1	0	0.823299884796	-296.0	344.0	-296	353	1
2.7	2015_May_08_1151	s	s	3	4	SIC	471	RC	2	2	09VD 02VO 02VC 02MD 02MO 02MC 02RD 02RO	1	0	1.38834404945	253.0	-83.0	252	-76	1
2.7	2015_May_08_1151	s	s	3	4	SIC	472	ABS	1	0	02VD 02VO 02VC 02MD 02MO 10MC 02RD 02RO	0	1	2.28930783272	None	None	None	None	1
2.7	2015_May_08_1151	s	s	3	4	SIC	473	RC	0	1	02VD 02VO 02VC 02MD 02MO 02MC 02RD 09RO	1	0	0.740774154663	-411.0	164.0	-407	161	1
2.7	2015_May_08_1151	s	s	3	4	SIC	474	RC	1	2	02VD 02VO 02VC 09MD 02MO 02MC 02RD 02RO	1	0	0.882176876068	383.0	399.0	385	397	1
2.7	2015_May_08_1151	s	s	3	4	SIC	475	ABS	1	1	02VD 02VO 02VC 02MD 10MO 02MC 02RD 02RO	0	1	2.15077400208	None	None	None	None	1
2.7	2015_May_08_1151	s	s	3	4	SIC	476	ABS	2	1	02VD 10VO 02VC 02MD 02MO 02MC 02RD 02RO	0	1	1.52951312065	None	None	None	None	1
2.7	2015_May_08_1151	s	s	3	4	SIC	477	ABS	2	0	02VD 02VO 10VC 02MD 02MO 02MC 02RD 02RO	0	1	1.47726893425	None	None	None	None	1
2.7	2015_May_08_1151	s	s	3	4	SIC	478	ABS	0	2	02VD 02VO 02VC 02MD 02MO 02MC 10RD 02RO	0	1	1.6472299099	None	None	None	None	1
2.7	2015_May_08_1151	s	s	3	4	SIC	479	ABS	1	2	02VD 02VO 02VC 10MD 02MO 02MC 02RD 02RO	0	1	1.34497499466	None	None	None	None	1
2.7	2015_May_08_1151	s	s	3	4	SIC	480	RC	0	2	02VD 02VO 02VC 02MD 02MO 02MC 09RD 02RO	1	0	1.72168111801	184.0	-3.0	181	-4	1
