Version	Date	Stimuli	Method	Subject	Session	Condition	Trial	Target	Channel1	Channel2	Distractors	LMouseButton	RMouseButton	RT	TargetX	TargetY	ResponseX	ResponseY	Correct
2.7	2015_May_06_1728	s	s	3	2	Capacity	1	RC	0	2	15RD 08RO	1	0	2.17691397667	22.0	-408.0	35	-405	1
2.7	2015_May_06_1728	s	s	3	2	Capacity	2	ABS	0	1	08RD 16RO	0	1	3.64832806587	None	None	None	None	1
2.7	2015_May_06_1728	s	s	3	2	Capacity	3	RC	0	1	08RD 15RO	1	0	2.34822392464	305.0	-382.0	304	-386	1
2.7	2015_May_06_1728	s	s	3	2	Capacity	4	ABS	0	2	16RD 08RO	0	1	2.76546502113	None	None	None	None	1
2.7	2015_May_06_1728	s	s	3	2	Capacity	5	ABS	0	2	16RD 08RO	0	1	2.49853897095	None	None	None	None	1
2.7	2015_May_06_1728	s	s	3	2	Capacity	6	ABS	0	1	08RD 16RO	0	1	3.47889304161	None	None	None	None	1
2.7	2015_May_06_1728	s	s	3	2	Capacity	7	RC	0	1	08RD 15RO	1	0	1.37416696548	193.0	-196.0	200	-191	1
2.7	2015_May_06_1728	s	s	3	2	Capacity	8	RC	0	2	15RD 08RO	1	0	1.71230983734	487.0	171.0	482	166	1
2.7	2015_May_06_1728	s	s	3	2	Capacity	9	ABS	0	2	16RD 08RO	0	1	2.14164304733	None	None	None	None	1
2.7	2015_May_06_1728	s	s	3	2	Capacity	10	RC	0	1	08RD 15RO	1	0	1.60012316704	414.0	-209.0	419	-204	1
2.7	2015_May_06_1728	s	s	3	2	Capacity	11	RC	0	2	15RD 08RO	1	0	1.13610076904	-66.0	-128.0	-55	-123	1
2.7	2015_May_06_1728	s	s	3	2	Capacity	12	ABS	0	1	08RD 16RO	0	1	4.1142308712	None	None	None	None	1
2.7	2015_May_06_1728	s	s	3	2	Capacity	13	RC	0	1	08RD 15RO	1	0	3.27167701721	-435.0	65.0	-438	69	1
2.7	2015_May_06_1728	s	s	3	2	Capacity	14	ABS	0	2	16RD 08RO	0	1	2.55359196663	None	None	None	None	1
2.7	2015_May_06_1728	s	s	3	2	Capacity	15	RC	0	2	15RD 08RO	1	0	0.994832992554	-236.0	3.0	-232	10	1
2.7	2015_May_06_1728	s	s	3	2	Capacity	16	ABS	0	1	08RD 16RO	0	1	7.38819813728	None	None	None	None	1
2.7	2015_May_06_1728	s	s	3	2	Capacity	17	ABS	0	2	16RD 08RO	0	1	3.29028201103	None	None	None	None	1
2.7	2015_May_06_1728	s	s	3	2	Capacity	18	RC	0	1	08RD 15RO	1	0	1.95089411736	-436.0	-411.0	-433	-410	1
2.7	2015_May_06_1728	s	s	3	2	Capacity	19	RC	0	2	15RD 08RO	1	0	2.20839881897	-446.0	-7.0	-441	-8	1
2.7	2015_May_06_1728	s	s	3	2	Capacity	20	ABS	0	1	08RD 16RO	0	1	6.80906200409	None	None	None	None	1
2.7	2015_May_06_1728	s	s	3	2	Capacity	21	RC	0	1	08RD 15RO	1	0	2.07778096199	-449.0	70.0	-452	67	1
2.7	2015_May_06_1728	s	s	3	2	Capacity	22	RC	0	2	15RD 08RO	1	0	1.22089791298	-137.0	284.0	-139	280	1
2.7	2015_May_06_1728	s	s	3	2	Capacity	23	ABS	0	2	16RD 08RO	0	1	2.25680398941	None	None	None	None	1
2.7	2015_May_06_1728	s	s	3	2	Capacity	24	ABS	0	1	08RD 16RO	0	1	5.6726770401	None	None	None	None	1
2.7	2015_May_06_1728	s	s	3	2	Capacity	25	ABS	0	1	08RD 16RO	0	1	3.97799396515	None	None	None	None	1
2.7	2015_May_06_1728	s	s	3	2	Capacity	26	RC	0	2	15RD 08RO	0	1	2.90079498291	-432.0	380.0	None	None	0
2.7	2015_May_06_1728	s	s	3	2	Capacity	27	ABS	0	2	16RD 08RO	0	1	2.38383507729	None	None	None	None	1
2.7	2015_May_06_1728	s	s	3	2	Capacity	28	RC	0	1	08RD 15RO	0	1	2.29468297958	444.0	368.0	None	None	0
2.7	2015_May_06_1728	s	s	3	2	Capacity	29	RC	0	2	15RD 08RO	1	0	3.5965180397	-360.0	-107.0	-355	-114	1
2.7	2015_May_06_1728	s	s	3	2	Capacity	30	RC	0	1	08RD 15RO	1	0	3.84848999977	-43.0	-215.0	-35	-209	1
2.7	2015_May_06_1728	s	s	3	2	Capacity	31	ABS	0	2	16RD 08RO	0	1	4.21693396568	None	None	None	None	1
2.7	2015_May_06_1728	s	s	3	2	Capacity	32	ABS	0	1	08RD 16RO	0	1	7.41489505768	None	None	None	None	1
2.7	2015_May_06_1728	s	s	3	2	Capacity	33	RC	0	2	15RD 08RO	1	0	3.925522089	305.0	263.0	302	261	1
2.7	2015_May_06_1728	s	s	3	2	Capacity	34	RC	0	1	08RD 15RO	1	0	6.29197216034	107.0	-113.0	120	-110	1
2.7	2015_May_06_1728	s	s	3	2	Capacity	35	ABS	0	1	08RD 16RO	0	1	4.71933794022	None	None	None	None	1
2.7	2015_May_06_1728	s	s	3	2	Capacity	36	ABS	0	2	16RD 08RO	0	1	2.94208288193	None	None	None	None	1
2.7	2015_May_06_1728	s	s	3	2	Capacity	37	ABS	0	1	08RD 16RO	0	1	3.98628306389	None	None	None	None	1
2.7	2015_May_06_1728	s	s	3	2	Capacity	38	RC	0	2	15RD 08RO	1	0	0.88896894455	-309.0	66.0	-309	67	1
2.7	2015_May_06_1728	s	s	3	2	Capacity	39	RC	0	1	08RD 15RO	1	0	3.49528694153	-437.0	-301.0	-442	-303	1
2.7	2015_May_06_1728	s	s	3	2	Capacity	40	ABS	0	2	16RD 08RO	0	1	2.87997698784	None	None	None	None	1
2.7	2015_May_06_1728	s	s	3	2	Capacity	41	RC	0	1	08RD 15RO	1	0	3.57762289047	335.0	-250.0	343	-245	1
2.7	2015_May_06_1728	s	s	3	2	Capacity	42	ABS	0	2	16RD 08RO	0	1	2.50221419334	None	None	None	None	1
2.7	2015_May_06_1728	s	s	3	2	Capacity	43	ABS	0	1	08RD 16RO	0	1	4.13600182533	None	None	None	None	1
2.7	2015_May_06_1728	s	s	3	2	Capacity	44	RC	0	2	15RD 08RO	1	0	1.14113402367	254.0	-211.0	251	-208	1
2.7	2015_May_06_1728	s	s	3	2	Capacity	45	RC	0	1	08RD 15RO	1	0	1.27708292007	149.0	-350.0	143	-355	1
2.7	2015_May_06_1728	s	s	3	2	Capacity	46	RC	0	2	15RD 08RO	1	0	2.18333101273	453.0	-241.0	454	-246	1
2.7	2015_May_06_1728	s	s	3	2	Capacity	47	ABS	0	2	16RD 08RO	0	1	3.09067893028	None	None	None	None	1
2.7	2015_May_06_1728	s	s	3	2	Capacity	48	ABS	0	1	08RD 16RO	0	1	3.29514694214	None	None	None	None	1
2.7	2015_May_06_1728	s	s	3	2	Capacity	49	RC	0	1	08RD 15RO	1	0	2.04773306847	437.0	166.0	429	170	1
2.7	2015_May_06_1728	s	s	3	2	Capacity	50	RC	0	2	15RD 08RO	1	0	1.32680511475	236.0	-103.0	233	-100	1
2.7	2015_May_06_1728	s	s	3	2	Capacity	51	ABS	0	2	16RD 08RO	0	1	2.23106718063	None	None	None	None	1
2.7	2015_May_06_1728	s	s	3	2	Capacity	52	ABS	0	1	08RD 16RO	0	1	3.96609401703	None	None	None	None	1
2.7	2015_May_06_1728	s	s	3	2	Capacity	53	RC	0	2	15RD 08RO	0	0	-1	0.0	408.0	None	None	-1
2.7	2015_May_06_1728	s	s	3	2	Capacity	54	ABS	0	1	08RD 16RO	0	1	6.77961397171	None	None	None	None	1
2.7	2015_May_06_1728	s	s	3	2	Capacity	55	RC	0	1	08RD 15RO	1	0	3.25726509094	72.0	405.0	76	405	1
2.7	2015_May_06_1728	s	s	3	2	Capacity	56	ABS	0	2	16RD 08RO	0	1	4.88113808632	None	None	None	None	1
2.7	2015_May_06_1728	s	s	3	2	Capacity	57	ABS	0	1	08RD 16RO	0	1	3.8129901886	None	None	None	None	1
2.7	2015_May_06_1728	s	s	3	2	Capacity	58	RC	0	2	15RD 08RO	1	0	2.43045091629	307.0	-411.0	301	-406	1
2.7	2015_May_06_1728	s	s	3	2	Capacity	59	ABS	0	2	16RD 08RO	0	1	2.64765405655	None	None	None	None	1
2.7	2015_May_06_1728	s	s	3	2	Capacity	60	RC	0	1	08RD 15RO	1	0	1.73615789413	352.0	101.0	346	104	1
2.7	2015_May_06_1728	s	s	3	2	Capacity	61	RC	0	1	08RD 15RO	1	0	0.912677049637	-103.0	-85.0	-96	-86	1
2.7	2015_May_06_1728	s	s	3	2	Capacity	62	RC	0	2	15RD 08RO	1	0	1.60588717461	410.0	152.0	417	153	1
2.7	2015_May_06_1728	s	s	3	2	Capacity	63	ABS	0	2	16RD 08RO	0	1	2.0071439743	None	None	None	None	1
2.7	2015_May_06_1728	s	s	3	2	Capacity	64	ABS	0	1	08RD 16RO	0	1	4.50739717484	None	None	None	None	1
2.7	2015_May_06_1728	s	s	3	2	Capacity	1	RC	2	0	15VC 08MC	1	0	1.09407711029	117.0	-62.0	117	-63	1
2.7	2015_May_06_1728	s	s	3	2	Capacity	2	ABS	2	0	16VC 08MC	0	1	1.38345384598	None	None	None	None	1
2.7	2015_May_06_1728	s	s	3	2	Capacity	3	RC	1	0	08VC 15MC	1	0	0.806775093079	-213.0	211.0	-218	212	1
2.7	2015_May_06_1728	s	s	3	2	Capacity	4	ABS	1	0	08VC 16MC	0	1	1.53838992119	None	None	None	None	1
2.7	2015_May_06_1728	s	s	3	2	Capacity	5	ABS	2	0	16VC 08MC	0	1	1.78466415405	None	None	None	None	1
2.7	2015_May_06_1728	s	s	3	2	Capacity	6	RC	1	0	08VC 15MC	1	0	0.618175029755	-474.0	153.0	-473	156	1
2.7	2015_May_06_1728	s	s	3	2	Capacity	7	ABS	1	0	08VC 16MC	0	1	1.72501206398	None	None	None	None	1
2.7	2015_May_06_1728	s	s	3	2	Capacity	8	RC	2	0	15VC 08MC	1	0	1.45406603813	117.0	169.0	117	169	1
2.7	2015_May_06_1728	s	s	3	2	Capacity	9	RC	2	0	15VC 08MC	1	0	0.929280042648	437.0	211.0	437	209	1
2.7	2015_May_06_1728	s	s	3	2	Capacity	10	ABS	1	0	08VC 16MC	0	1	2.5183699131	None	None	None	None	1
2.7	2015_May_06_1728	s	s	3	2	Capacity	11	RC	1	0	08VC 15MC	1	0	2.2595641613	469.0	149.0	462	149	1
2.7	2015_May_06_1728	s	s	3	2	Capacity	12	ABS	2	0	16VC 08MC	0	1	2.1888821125	None	None	None	None	1
2.7	2015_May_06_1728	s	s	3	2	Capacity	13	ABS	2	0	16VC 08MC	0	1	2.20950293541	None	None	None	None	1
2.7	2015_May_06_1728	s	s	3	2	Capacity	14	RC	2	0	15VC 08MC	1	0	1.10084295273	240.0	197.0	240	200	1
2.7	2015_May_06_1728	s	s	3	2	Capacity	15	ABS	1	0	08VC 16MC	0	1	2.27782607079	None	None	None	None	1
2.7	2015_May_06_1728	s	s	3	2	Capacity	16	RC	1	0	08VC 15MC	1	0	0.852934837341	216.0	-38.0	207	-33	1
2.7	2015_May_06_1728	s	s	3	2	Capacity	17	RC	2	0	15VC 08MC	1	0	0.682052135468	-381.0	-316.0	-389	-317	1
2.7	2015_May_06_1728	s	s	3	2	Capacity	18	ABS	2	0	16VC 08MC	0	1	1.90136098862	None	None	None	None	1
2.7	2015_May_06_1728	s	s	3	2	Capacity	19	ABS	1	0	08VC 16MC	0	1	2.14987015724	None	None	None	None	1
2.7	2015_May_06_1728	s	s	3	2	Capacity	20	RC	1	0	08VC 15MC	1	0	1.03505086899	-1.0	-259.0	2	-273	1
2.7	2015_May_06_1728	s	s	3	2	Capacity	21	RC	2	0	15VC 08MC	1	0	1.65900278091	-48.0	333.0	-53	339	1
2.7	2015_May_06_1728	s	s	3	2	Capacity	22	ABS	2	0	16VC 08MC	0	1	1.43035101891	None	None	None	None	1
2.7	2015_May_06_1728	s	s	3	2	Capacity	23	RC	1	0	08VC 15MC	1	0	0.623231887817	-448.0	0.0	-440	-5	1
2.7	2015_May_06_1728	s	s	3	2	Capacity	24	ABS	1	0	08VC 16MC	0	1	1.68243503571	None	None	None	None	1
2.7	2015_May_06_1728	s	s	3	2	Capacity	25	RC	1	0	08VC 15MC	1	0	1.86527609825	497.0	164.0	487	164	1
2.7	2015_May_06_1728	s	s	3	2	Capacity	26	RC	2	0	15VC 08MC	1	0	1.02329897881	512.0	199.0	518	202	1
2.7	2015_May_06_1728	s	s	3	2	Capacity	27	ABS	1	0	08VC 16MC	0	1	2.66733908653	None	None	None	None	1
2.7	2015_May_06_1728	s	s	3	2	Capacity	28	ABS	2	0	16VC 08MC	0	1	1.43536901474	None	None	None	None	1
2.7	2015_May_06_1728	s	s	3	2	Capacity	29	ABS	2	0	16VC 08MC	0	1	1.32937002182	None	None	None	None	1
2.7	2015_May_06_1728	s	s	3	2	Capacity	30	RC	2	0	15VC 08MC	1	0	0.700505018234	-120.0	-21.0	-123	-16	1
2.7	2015_May_06_1728	s	s	3	2	Capacity	31	RC	1	0	08VC 15MC	1	0	1.36020898819	72.0	283.0	70	283	1
2.7	2015_May_06_1728	s	s	3	2	Capacity	32	ABS	1	0	08VC 16MC	0	1	2.06543397903	None	None	None	None	1
2.7	2015_May_06_1728	s	s	3	2	Capacity	33	ABS	2	0	16VC 08MC	0	1	1.84735012054	None	None	None	None	1
2.7	2015_May_06_1728	s	s	3	2	Capacity	34	RC	2	0	15VC 08MC	1	0	0.75021314621	120.0	104.0	130	107	1
2.7	2015_May_06_1728	s	s	3	2	Capacity	35	ABS	1	0	08VC 16MC	0	1	1.25363492966	None	None	None	None	1
2.7	2015_May_06_1728	s	s	3	2	Capacity	36	RC	1	0	08VC 15MC	1	0	1.40738487244	351.0	307.0	350	303	1
2.7	2015_May_06_1728	s	s	3	2	Capacity	37	RC	1	0	08VC 15MC	1	0	1.7178850174	-266.0	-83.0	-270	-89	1
2.7	2015_May_06_1728	s	s	3	2	Capacity	38	RC	2	0	15VC 08MC	1	0	1.78847718239	225.0	70.0	223	76	1
2.7	2015_May_06_1728	s	s	3	2	Capacity	39	ABS	1	0	08VC 16MC	0	1	5.20185685158	None	None	None	None	1
2.7	2015_May_06_1728	s	s	3	2	Capacity	40	ABS	2	0	16VC 08MC	0	1	1.87899708748	None	None	None	None	1
2.7	2015_May_06_1728	s	s	3	2	Capacity	41	ABS	1	0	08VC 16MC	0	1	1.49004483223	None	None	None	None	1
2.7	2015_May_06_1728	s	s	3	2	Capacity	42	RC	2	0	15VC 08MC	1	0	0.882236003876	-441.0	348.0	-446	350	1
2.7	2015_May_06_1728	s	s	3	2	Capacity	43	ABS	2	0	16VC 08MC	0	1	2.64446020126	None	None	None	None	1
2.7	2015_May_06_1728	s	s	3	2	Capacity	44	RC	1	0	08VC 15MC	1	0	0.917505979538	-202.0	-301.0	-207	-299	1
2.7	2015_May_06_1728	s	s	3	2	Capacity	45	ABS	2	0	16VC 08MC	0	1	2.15339589119	None	None	None	None	1
2.7	2015_May_06_1728	s	s	3	2	Capacity	46	RC	2	0	15VC 08MC	1	0	1.36249089241	-353.0	-406.0	-363	-404	1
2.7	2015_May_06_1728	s	s	3	2	Capacity	47	RC	1	0	08VC 15MC	1	0	0.820889949799	127.0	-143.0	119	-149	1
2.7	2015_May_06_1728	s	s	3	2	Capacity	48	ABS	1	0	08VC 16MC	0	1	1.53815221786	None	None	None	None	1
2.7	2015_May_06_1728	s	s	3	2	Capacity	49	RC	1	0	08VC 15MC	1	0	0.693848133087	241.0	221.0	237	216	1
2.7	2015_May_06_1728	s	s	3	2	Capacity	50	ABS	2	0	16VC 08MC	0	1	1.60009503365	None	None	None	None	1
2.7	2015_May_06_1728	s	s	3	2	Capacity	51	ABS	1	0	08VC 16MC	0	1	1.64732480049	None	None	None	None	1
2.7	2015_May_06_1728	s	s	3	2	Capacity	52	RC	2	0	15VC 08MC	0	1	1.48889398575	-89.0	373.0	None	None	0
2.7	2015_May_06_1728	s	s	3	2	Capacity	53	ABS	2	0	16VC 08MC	0	1	1.28235197067	None	None	None	None	1
2.7	2015_May_06_1728	s	s	3	2	Capacity	54	RC	1	0	08VC 15MC	1	0	1.60674405098	466.0	-326.0	472	-324	1
2.7	2015_May_06_1728	s	s	3	2	Capacity	55	RC	2	0	15VC 08MC	1	0	0.912263154984	321.0	142.0	325	141	1
2.7	2015_May_06_1728	s	s	3	2	Capacity	56	ABS	1	0	08VC 16MC	0	1	2.46633195877	None	None	None	None	1
2.7	2015_May_06_1728	s	s	3	2	Capacity	57	RC	2	0	15VC 08MC	1	0	1.23107814789	454.0	369.0	465	373	1
2.7	2015_May_06_1728	s	s	3	2	Capacity	58	RC	1	0	08VC 15MC	1	0	0.740869998932	-484.0	-111.0	-490	-104	1
2.7	2015_May_06_1728	s	s	3	2	Capacity	59	ABS	2	0	16VC 08MC	0	1	2.1296710968	None	None	None	None	1
2.7	2015_May_06_1728	s	s	3	2	Capacity	60	ABS	1	0	08VC 16MC	0	1	2.22408485413	None	None	None	None	1
2.7	2015_May_06_1728	s	s	3	2	Capacity	61	RC	1	0	08VC 15MC	1	0	0.823251008987	-393.0	114.0	-386	107	1
2.7	2015_May_06_1728	s	s	3	2	Capacity	62	ABS	1	0	08VC 16MC	0	1	1.51163387299	None	None	None	None	1
2.7	2015_May_06_1728	s	s	3	2	Capacity	63	ABS	2	0	16VC 08MC	0	1	2.00891494751	None	None	None	None	1
2.7	2015_May_06_1728	s	s	3	2	Capacity	64	RC	2	0	15VC 08MC	1	0	3.07699799538	-36.0	352.0	-38	348	1
2.7	2015_May_06_1728	s	s	3	2	SIC	1	ABS	2	2	10VD 02VO 02VC 02MD 02MO 02MC 02RD 02RO	0	1	2.26587200165	None	None	None	None	1
2.7	2015_May_06_1728	s	s	3	2	SIC	2	ABS	1	2	02VD 02VO 02VC 10MD 02MO 02MC 02RD 02RO	0	1	1.91832518578	None	None	None	None	1
2.7	2015_May_06_1728	s	s	3	2	SIC	3	RC	1	2	02VD 02VO 02VC 09MD 02MO 02MC 02RD 02RO	1	0	1.51220703125	-66.0	-290.0	-65	-295	1
2.7	2015_May_06_1728	s	s	3	2	SIC	4	ABS	0	2	02VD 02VO 02VC 02MD 02MO 02MC 10RD 02RO	0	1	2.53938484192	None	None	None	None	1
2.7	2015_May_06_1728	s	s	3	2	SIC	5	RC	2	1	02VD 09VO 02VC 02MD 02MO 02MC 02RD 02RO	1	0	2.16271710396	-205.0	94.0	-201	91	1
2.7	2015_May_06_1728	s	s	3	2	SIC	6	ABS	1	0	02VD 02VO 02VC 02MD 02MO 10MC 02RD 02RO	0	1	3.01281309128	None	None	None	None	1
2.7	2015_May_06_1728	s	s	3	2	SIC	7	RC	0	1	02VD 02VO 02VC 02MD 02MO 02MC 02RD 09RO	1	0	0.75733089447	-147.0	30.0	-148	31	1
2.7	2015_May_06_1728	s	s	3	2	SIC	8	RC	2	0	02VD 02VO 09VC 02MD 02MO 02MC 02RD 02RO	1	0	1.31359195709	-523.0	316.0	-517	311	1
2.7	2015_May_06_1728	s	s	3	2	SIC	9	RC	1	1	02VD 02VO 02VC 02MD 09MO 02MC 02RD 02RO	1	0	0.929198980331	-41.0	-18.0	-49	-13	1
2.7	2015_May_06_1728	s	s	3	2	SIC	10	ABS	0	1	02VD 02VO 02VC 02MD 02MO 02MC 02RD 10RO	0	1	3.14707899094	None	None	None	None	1
2.7	2015_May_06_1728	s	s	3	2	SIC	11	ABS	1	1	02VD 02VO 02VC 02MD 10MO 02MC 02RD 02RO	0	1	2.72453689575	None	None	None	None	1
2.7	2015_May_06_1728	s	s	3	2	SIC	12	ABS	2	0	02VD 02VO 10VC 02MD 02MO 02MC 02RD 02RO	0	1	1.89448404312	None	None	None	None	1
2.7	2015_May_06_1728	s	s	3	2	SIC	13	RC	2	2	09VD 02VO 02VC 02MD 02MO 02MC 02RD 02RO	1	0	1.26560282707	532.0	-253.0	539	-249	1
2.7	2015_May_06_1728	s	s	3	2	SIC	14	ABS	2	1	02VD 10VO 02VC 02MD 02MO 02MC 02RD 02RO	0	1	1.61192202568	None	None	None	None	1
2.7	2015_May_06_1728	s	s	3	2	SIC	15	RC	1	0	02VD 02VO 02VC 02MD 02MO 09MC 02RD 02RO	1	0	0.900003910065	-220.0	-25.0	-219	-18	1
2.7	2015_May_06_1728	s	s	3	2	SIC	16	RC	0	2	02VD 02VO 02VC 02MD 02MO 02MC 09RD 02RO	1	0	2.59487891197	-284.0	187.0	-286	185	1
2.7	2015_May_06_1728	s	s	3	2	SIC	17	ABS	1	2	02VD 02VO 02VC 10MD 02MO 02MC 02RD 02RO	0	1	1.40698599815	None	None	None	None	1
2.7	2015_May_06_1728	s	s	3	2	SIC	18	RC	1	2	02VD 02VO 02VC 09MD 02MO 02MC 02RD 02RO	1	0	3.03065609932	200.0	-272.0	199	-280	1
2.7	2015_May_06_1728	s	s	3	2	SIC	19	RC	1	1	02VD 02VO 02VC 02MD 09MO 02MC 02RD 02RO	1	0	2.17685294151	376.0	154.0	379	160	1
2.7	2015_May_06_1728	s	s	3	2	SIC	20	ABS	2	1	02VD 10VO 02VC 02MD 02MO 02MC 02RD 02RO	0	1	2.01209187508	None	None	None	None	1
2.7	2015_May_06_1728	s	s	3	2	SIC	21	ABS	0	1	02VD 02VO 02VC 02MD 02MO 02MC 02RD 10RO	0	1	3.84030294418	None	None	None	None	1
2.7	2015_May_06_1728	s	s	3	2	SIC	22	RC	0	1	02VD 02VO 02VC 02MD 02MO 02MC 02RD 09RO	1	0	1.11762714386	-211.0	-219.0	-213	-224	1
2.7	2015_May_06_1728	s	s	3	2	SIC	23	ABS	0	2	02VD 02VO 02VC 02MD 02MO 02MC 10RD 02RO	0	1	1.92976093292	None	None	None	None	1
2.7	2015_May_06_1728	s	s	3	2	SIC	24	ABS	2	2	10VD 02VO 02VC 02MD 02MO 02MC 02RD 02RO	1	0	1.73665499687	None	None	-281	-398	0
2.7	2015_May_06_1728	s	s	3	2	SIC	25	RC	0	2	02VD 02VO 02VC 02MD 02MO 02MC 09RD 02RO	1	0	1.80696988106	159.0	353.0	167	355	1
2.7	2015_May_06_1728	s	s	3	2	SIC	26	RC	2	1	02VD 09VO 02VC 02MD 02MO 02MC 02RD 02RO	1	0	0.752644062042	-341.0	-238.0	-343	-249	1
2.7	2015_May_06_1728	s	s	3	2	SIC	27	ABS	1	1	02VD 02VO 02VC 02MD 10MO 02MC 02RD 02RO	0	1	2.12531685829	None	None	None	None	1
2.7	2015_May_06_1728	s	s	3	2	SIC	28	ABS	2	0	02VD 02VO 10VC 02MD 02MO 02MC 02RD 02RO	0	1	2.19475603104	None	None	None	None	1
2.7	2015_May_06_1728	s	s	3	2	SIC	29	ABS	1	0	02VD 02VO 02VC 02MD 02MO 10MC 02RD 02RO	0	1	2.1887512207	None	None	None	None	1
2.7	2015_May_06_1728	s	s	3	2	SIC	30	RC	2	0	02VD 02VO 09VC 02MD 02MO 02MC 02RD 02RO	1	0	1.74138784409	492.0	-280.0	498	-273	1
2.7	2015_May_06_1728	s	s	3	2	SIC	31	RC	1	0	02VD 02VO 02VC 02MD 02MO 09MC 02RD 02RO	1	0	2.11800813675	470.0	205.0	463	204	1
2.7	2015_May_06_1728	s	s	3	2	SIC	32	RC	2	2	09VD 02VO 02VC 02MD 02MO 02MC 02RD 02RO	1	0	1.12929105759	-190.0	-204.0	-195	-197	1
2.7	2015_May_06_1728	s	s	3	2	SIC	33	RC	0	1	02VD 02VO 02VC 02MD 02MO 02MC 02RD 09RO	1	0	1.70604801178	-481.0	-352.0	-489	-354	1
2.7	2015_May_06_1728	s	s	3	2	SIC	34	RC	1	1	02VD 02VO 02VC 02MD 09MO 02MC 02RD 02RO	1	0	0.576107978821	-156.0	29.0	-160	30	1
2.7	2015_May_06_1728	s	s	3	2	SIC	35	ABS	0	1	02VD 02VO 02VC 02MD 02MO 02MC 02RD 10RO	0	1	5.7172100544	None	None	None	None	1
2.7	2015_May_06_1728	s	s	3	2	SIC	36	ABS	1	0	02VD 02VO 02VC 02MD 02MO 10MC 02RD 02RO	0	1	3.8224170208	None	None	None	None	1
2.7	2015_May_06_1728	s	s	3	2	SIC	37	RC	2	1	02VD 09VO 02VC 02MD 02MO 02MC 02RD 02RO	1	0	1.36140990257	131.0	-291.0	133	-292	1
2.7	2015_May_06_1728	s	s	3	2	SIC	38	RC	0	2	02VD 02VO 02VC 02MD 02MO 02MC 09RD 02RO	1	0	1.25886297226	354.0	-409.0	363	-407	1
2.7	2015_May_06_1728	s	s	3	2	SIC	39	ABS	2	2	10VD 02VO 02VC 02MD 02MO 02MC 02RD 02RO	0	1	2.05415010452	None	None	None	None	1
2.7	2015_May_06_1728	s	s	3	2	SIC	40	ABS	2	1	02VD 10VO 02VC 02MD 02MO 02MC 02RD 02RO	0	1	2.00693392754	None	None	None	None	1
2.7	2015_May_06_1728	s	s	3	2	SIC	41	ABS	0	2	02VD 02VO 02VC 02MD 02MO 02MC 10RD 02RO	0	1	1.3836388588	None	None	None	None	1
2.7	2015_May_06_1728	s	s	3	2	SIC	42	ABS	1	1	02VD 02VO 02VC 02MD 10MO 02MC 02RD 02RO	0	1	2.17180514336	None	None	None	None	1
2.7	2015_May_06_1728	s	s	3	2	SIC	43	RC	1	0	02VD 02VO 02VC 02MD 02MO 09MC 02RD 02RO	1	0	0.855720996857	-310.0	-328.0	-306	-334	1
2.7	2015_May_06_1728	s	s	3	2	SIC	44	ABS	1	2	02VD 02VO 02VC 10MD 02MO 02MC 02RD 02RO	0	1	2.19596099854	None	None	None	None	1
2.7	2015_May_06_1728	s	s	3	2	SIC	45	RC	2	2	09VD 02VO 02VC 02MD 02MO 02MC 02RD 02RO	1	0	1.38831710815	327.0	-383.0	332	-386	1
2.7	2015_May_06_1728	s	s	3	2	SIC	46	RC	2	0	02VD 02VO 09VC 02MD 02MO 02MC 02RD 02RO	1	0	0.752543926239	-49.0	166.0	-42	165	1
2.7	2015_May_06_1728	s	s	3	2	SIC	47	RC	1	2	02VD 02VO 02VC 09MD 02MO 02MC 02RD 02RO	1	0	1.02336883545	253.0	-174.0	265	-170	1
2.7	2015_May_06_1728	s	s	3	2	SIC	48	ABS	2	0	02VD 02VO 10VC 02MD 02MO 02MC 02RD 02RO	0	1	1.75322985649	None	None	None	None	1
2.7	2015_May_06_1728	s	s	3	2	SIC	49	ABS	1	2	02VD 02VO 02VC 10MD 02MO 02MC 02RD 02RO	0	1	1.68249392509	None	None	None	None	1
2.7	2015_May_06_1728	s	s	3	2	SIC	50	RC	1	2	02VD 02VO 02VC 09MD 02MO 02MC 02RD 02RO	1	0	1.08277392387	163.0	-297.0	157	-303	1
2.7	2015_May_06_1728	s	s	3	2	SIC	51	ABS	1	0	02VD 02VO 02VC 02MD 02MO 10MC 02RD 02RO	0	1	2.0827858448	None	None	None	None	1
2.7	2015_May_06_1728	s	s	3	2	SIC	52	ABS	0	2	02VD 02VO 02VC 02MD 02MO 02MC 10RD 02RO	0	1	2.14161705971	None	None	None	None	1
2.7	2015_May_06_1728	s	s	3	2	SIC	53	RC	2	1	02VD 09VO 02VC 02MD 02MO 02MC 02RD 02RO	1	0	1.05514812469	-507.0	75.0	-507	75	1
2.7	2015_May_06_1728	s	s	3	2	SIC	54	ABS	2	2	10VD 02VO 02VC 02MD 02MO 02MC 02RD 02RO	0	1	2.07781791687	None	None	None	None	1
2.7	2015_May_06_1728	s	s	3	2	SIC	55	ABS	2	0	02VD 02VO 10VC 02MD 02MO 02MC 02RD 02RO	0	1	2.12365603447	None	None	None	None	1
2.7	2015_May_06_1728	s	s	3	2	SIC	56	RC	1	1	02VD 02VO 02VC 02MD 09MO 02MC 02RD 02RO	1	0	1.05910301208	214.0	-96.0	220	-99	1
2.7	2015_May_06_1728	s	s	3	2	SIC	57	ABS	2	1	02VD 10VO 02VC 02MD 02MO 02MC 02RD 02RO	0	1	2.1242890358	None	None	None	None	1
2.7	2015_May_06_1728	s	s	3	2	SIC	58	ABS	1	1	02VD 02VO 02VC 02MD 10MO 02MC 02RD 02RO	0	1	2.3126142025	None	None	None	None	1
2.7	2015_May_06_1728	s	s	3	2	SIC	59	RC	1	0	02VD 02VO 02VC 02MD 02MO 09MC 02RD 02RO	1	0	1.18445706367	-288.0	-291.0	-295	-290	1
2.7	2015_May_06_1728	s	s	3	2	SIC	60	RC	0	1	02VD 02VO 02VC 02MD 02MO 02MC 02RD 09RO	0	1	3.25991296768	49.0	168.0	None	None	0
2.7	2015_May_06_1728	s	s	3	2	SIC	61	ABS	0	1	02VD 02VO 02VC 02MD 02MO 02MC 02RD 10RO	0	1	4.6132850647	None	None	None	None	1
2.7	2015_May_06_1728	s	s	3	2	SIC	62	RC	0	2	02VD 02VO 02VC 02MD 02MO 02MC 09RD 02RO	1	0	1.23233604431	387.0	362.0	399	366	1
2.7	2015_May_06_1728	s	s	3	2	SIC	63	RC	2	0	02VD 02VO 09VC 02MD 02MO 02MC 02RD 02RO	1	0	0.926734924316	-49.0	40.0	-48	34	1
2.7	2015_May_06_1728	s	s	3	2	SIC	64	RC	2	2	09VD 02VO 02VC 02MD 02MO 02MC 02RD 02RO	1	0	2.01210093498	323.0	133.0	320	135	1
2.7	2015_May_06_1728	s	s	3	2	SIC	65	RC	2	1	02VD 09VO 02VC 02MD 02MO 02MC 02RD 02RO	1	0	1.5413749218	-239.0	-345.0	-239	-353	1
2.7	2015_May_06_1728	s	s	3	2	SIC	66	RC	1	2	02VD 02VO 02VC 09MD 02MO 02MC 02RD 02RO	1	0	2.38882517815	-84.0	-241.0	-74	-240	1
2.7	2015_May_06_1728	s	s	3	2	SIC	67	RC	2	0	02VD 02VO 09VC 02MD 02MO 02MC 02RD 02RO	1	0	1.92959213257	473.0	67.0	478	68	1
2.7	2015_May_06_1728	s	s	3	2	SIC	68	ABS	2	2	10VD 02VO 02VC 02MD 02MO 02MC 02RD 02RO	0	1	2.45425009727	None	None	None	None	1
2.7	2015_May_06_1728	s	s	3	2	SIC	69	ABS	2	0	02VD 02VO 10VC 02MD 02MO 02MC 02RD 02RO	0	1	2.31270384789	None	None	None	None	1
2.7	2015_May_06_1728	s	s	3	2	SIC	70	ABS	1	2	02VD 02VO 02VC 10MD 02MO 02MC 02RD 02RO	0	1	1.59524106979	None	None	None	None	1
2.7	2015_May_06_1728	s	s	3	2	SIC	71	ABS	0	2	02VD 02VO 02VC 02MD 02MO 02MC 10RD 02RO	0	1	2.61709690094	None	None	None	None	1
2.7	2015_May_06_1728	s	s	3	2	SIC	72	ABS	2	1	02VD 10VO 02VC 02MD 02MO 02MC 02RD 02RO	0	1	2.38879394531	None	None	None	None	1
2.7	2015_May_06_1728	s	s	3	2	SIC	73	ABS	0	1	02VD 02VO 02VC 02MD 02MO 02MC 02RD 10RO	0	1	3.63111209869	None	None	None	None	1
2.7	2015_May_06_1728	s	s	3	2	SIC	74	RC	0	2	02VD 02VO 02VC 02MD 02MO 02MC 09RD 02RO	1	0	0.820153951645	-282.0	7.0	-279	6	1
2.7	2015_May_06_1728	s	s	3	2	SIC	75	ABS	1	1	02VD 02VO 02VC 02MD 10MO 02MC 02RD 02RO	0	1	2.37703299522	None	None	None	None	1
2.7	2015_May_06_1728	s	s	3	2	SIC	76	RC	1	1	02VD 02VO 02VC 02MD 09MO 02MC 02RD 02RO	1	0	1.25076198578	265.0	73.0	268	73	1
2.7	2015_May_06_1728	s	s	3	2	SIC	77	RC	1	0	02VD 02VO 02VC 02MD 02MO 09MC 02RD 02RO	1	0	0.870265007019	-332.0	-76.0	-336	-75	1
2.7	2015_May_06_1728	s	s	3	2	SIC	78	RC	2	2	09VD 02VO 02VC 02MD 02MO 02MC 02RD 02RO	1	0	2.39499092102	441.0	-156.0	448	-160	1
2.7	2015_May_06_1728	s	s	3	2	SIC	79	RC	0	1	02VD 02VO 02VC 02MD 02MO 02MC 02RD 09RO	1	0	1.63044095039	111.0	215.0	107	216	1
2.7	2015_May_06_1728	s	s	3	2	SIC	80	ABS	1	0	02VD 02VO 02VC 02MD 02MO 10MC 02RD 02RO	0	1	3.63299822807	None	None	None	None	1
2.7	2015_May_06_1728	s	s	3	2	SIC	81	ABS	0	1	02VD 02VO 02VC 02MD 02MO 02MC 02RD 10RO	0	1	3.43128180504	None	None	None	None	1
2.7	2015_May_06_1728	s	s	3	2	SIC	82	RC	1	1	02VD 02VO 02VC 02MD 09MO 02MC 02RD 02RO	1	0	2.28040909767	-179.0	-340.0	-182	-345	1
2.7	2015_May_06_1728	s	s	3	2	SIC	83	ABS	1	1	02VD 02VO 02VC 02MD 10MO 02MC 02RD 02RO	0	1	3.10336399078	None	None	None	None	1
2.7	2015_May_06_1728	s	s	3	2	SIC	84	RC	0	1	02VD 02VO 02VC 02MD 02MO 02MC 02RD 09RO	1	0	2.30634713173	-383.0	235.0	-367	243	1
2.7	2015_May_06_1728	s	s	3	2	SIC	85	RC	1	2	02VD 02VO 02VC 09MD 02MO 02MC 02RD 02RO	1	0	1.36479902267	-269.0	-330.0	-278	-334	1
2.7	2015_May_06_1728	s	s	3	2	SIC	86	ABS	2	0	02VD 02VO 10VC 02MD 02MO 02MC 02RD 02RO	0	1	1.93623018265	None	None	None	None	1
2.7	2015_May_06_1728	s	s	3	2	SIC	87	ABS	2	1	02VD 10VO 02VC 02MD 02MO 02MC 02RD 02RO	0	1	2.08305287361	None	None	None	None	1
2.7	2015_May_06_1728	s	s	3	2	SIC	88	ABS	2	2	10VD 02VO 02VC 02MD 02MO 02MC 02RD 02RO	0	1	1.74868988991	None	None	None	None	1
2.7	2015_May_06_1728	s	s	3	2	SIC	89	RC	2	2	09VD 02VO 02VC 02MD 02MO 02MC 02RD 02RO	1	0	0.643932819366	-438.0	-62.0	-443	-60	1
2.7	2015_May_06_1728	s	s	3	2	SIC	90	ABS	1	2	02VD 02VO 02VC 10MD 02MO 02MC 02RD 02RO	0	1	1.54983186722	None	None	None	None	1
2.7	2015_May_06_1728	s	s	3	2	SIC	91	RC	1	0	02VD 02VO 02VC 02MD 02MO 09MC 02RD 02RO	1	0	0.676898956299	-349.0	-167.0	-345	-167	1
2.7	2015_May_06_1728	s	s	3	2	SIC	92	RC	2	0	02VD 02VO 09VC 02MD 02MO 02MC 02RD 02RO	1	0	1.99505400658	462.0	-162.0	465	-162	1
2.7	2015_May_06_1728	s	s	3	2	SIC	93	ABS	0	2	02VD 02VO 02VC 02MD 02MO 02MC 10RD 02RO	0	1	2.25691795349	None	None	None	None	1
2.7	2015_May_06_1728	s	s	3	2	SIC	94	ABS	1	0	02VD 02VO 02VC 02MD 02MO 10MC 02RD 02RO	0	1	3.37487387657	None	None	None	None	1
2.7	2015_May_06_1728	s	s	3	2	SIC	95	RC	2	1	02VD 09VO 02VC 02MD 02MO 02MC 02RD 02RO	1	0	0.893929004669	-279.0	189.0	-282	192	1
2.7	2015_May_06_1728	s	s	3	2	SIC	96	RC	0	2	02VD 02VO 02VC 02MD 02MO 02MC 09RD 02RO	1	0	1.2324359417	-265.0	326.0	-266	329	1
2.7	2015_May_06_1728	s	s	3	2	SIC	97	ABS	2	0	02VD 02VO 10VC 02MD 02MO 02MC 02RD 02RO	0	1	1.83556604385	None	None	None	None	1
2.7	2015_May_06_1728	s	s	3	2	SIC	98	ABS	0	2	02VD 02VO 02VC 02MD 02MO 02MC 10RD 02RO	0	1	2.38396501541	None	None	None	None	1
2.7	2015_May_06_1728	s	s	3	2	SIC	99	ABS	0	1	02VD 02VO 02VC 02MD 02MO 02MC 02RD 10RO	0	1	4.73791885376	None	None	None	None	1
2.7	2015_May_06_1728	s	s	3	2	SIC	100	ABS	1	2	02VD 02VO 02VC 10MD 02MO 02MC 02RD 02RO	0	1	1.85323691368	None	None	None	None	1
2.7	2015_May_06_1728	s	s	3	2	SIC	101	RC	1	1	02VD 02VO 02VC 02MD 09MO 02MC 02RD 02RO	1	0	1.15286684036	-152.0	-300.0	-147	-299	1
2.7	2015_May_06_1728	s	s	3	2	SIC	102	RC	2	2	09VD 02VO 02VC 02MD 02MO 02MC 02RD 02RO	1	0	0.893810987473	-252.0	248.0	-248	257	1
2.7	2015_May_06_1728	s	s	3	2	SIC	103	ABS	2	2	10VD 02VO 02VC 02MD 02MO 02MC 02RD 02RO	0	1	2.45582318306	None	None	None	None	1
2.7	2015_May_06_1728	s	s	3	2	SIC	104	RC	1	2	02VD 02VO 02VC 09MD 02MO 02MC 02RD 02RO	1	0	1.14110589027	-135.0	405.0	-133	402	1
2.7	2015_May_06_1728	s	s	3	2	SIC	105	RC	1	0	02VD 02VO 02VC 02MD 02MO 09MC 02RD 02RO	1	0	0.842128992081	117.0	81.0	122	79	1
2.7	2015_May_06_1728	s	s	3	2	SIC	106	RC	0	2	02VD 02VO 02VC 02MD 02MO 02MC 09RD 02RO	1	0	0.980048894882	92.0	-226.0	93	-233	1
2.7	2015_May_06_1728	s	s	3	2	SIC	107	RC	0	1	02VD 02VO 02VC 02MD 02MO 02MC 02RD 09RO	1	0	1.04148411751	-440.0	-269.0	-434	-265	1
2.7	2015_May_06_1728	s	s	3	2	SIC	108	ABS	1	1	02VD 02VO 02VC 02MD 10MO 02MC 02RD 02RO	0	1	2.81873703003	None	None	None	None	1
2.7	2015_May_06_1728	s	s	3	2	SIC	109	RC	2	1	02VD 09VO 02VC 02MD 02MO 02MC 02RD 02RO	1	0	1.13304305077	380.0	375.0	388	379	1
2.7	2015_May_06_1728	s	s	3	2	SIC	110	ABS	1	0	02VD 02VO 02VC 02MD 02MO 10MC 02RD 02RO	0	1	2.18600320816	None	None	None	None	1
2.7	2015_May_06_1728	s	s	3	2	SIC	111	RC	2	0	02VD 02VO 09VC 02MD 02MO 02MC 02RD 02RO	1	0	2.25930309296	-243.0	47.0	-243	51	1
2.7	2015_May_06_1728	s	s	3	2	SIC	112	ABS	2	1	02VD 10VO 02VC 02MD 02MO 02MC 02RD 02RO	0	1	1.86785197258	None	None	None	None	1
2.7	2015_May_06_1728	s	s	3	2	SIC	113	RC	2	0	02VD 02VO 09VC 02MD 02MO 02MC 02RD 02RO	1	0	1.32141590118	169.0	-66.0	158	-66	1
2.7	2015_May_06_1728	s	s	3	2	SIC	114	ABS	0	2	02VD 02VO 02VC 02MD 02MO 02MC 10RD 02RO	0	1	1.88270401955	None	None	None	None	1
2.7	2015_May_06_1728	s	s	3	2	SIC	115	ABS	0	1	02VD 02VO 02VC 02MD 02MO 02MC 02RD 10RO	0	1	4.60190582275	None	None	None	None	1
2.7	2015_May_06_1728	s	s	3	2	SIC	116	ABS	2	1	02VD 10VO 02VC 02MD 02MO 02MC 02RD 02RO	0	1	2.58327579498	None	None	None	None	1
2.7	2015_May_06_1728	s	s	3	2	SIC	117	RC	0	2	02VD 02VO 02VC 02MD 02MO 02MC 09RD 02RO	1	0	0.893894910812	-533.0	329.0	-535	314	1
2.7	2015_May_06_1728	s	s	3	2	SIC	118	RC	2	1	02VD 09VO 02VC 02MD 02MO 02MC 02RD 02RO	1	0	0.784593820572	-79.0	368.0	-75	367	1
2.7	2015_May_06_1728	s	s	3	2	SIC	119	RC	1	0	02VD 02VO 02VC 02MD 02MO 09MC 02RD 02RO	1	0	0.736887931824	-420.0	61.0	-414	70	1
2.7	2015_May_06_1728	s	s	3	2	SIC	120	ABS	1	2	02VD 02VO 02VC 10MD 02MO 02MC 02RD 02RO	0	1	1.70609402657	None	None	None	None	1
2.7	2015_May_06_1728	s	s	3	2	SIC	121	ABS	2	2	10VD 02VO 02VC 02MD 02MO 02MC 02RD 02RO	0	1	3.70720911026	None	None	None	None	1
2.7	2015_May_06_1728	s	s	3	2	SIC	122	RC	1	1	02VD 02VO 02VC 02MD 09MO 02MC 02RD 02RO	1	0	1.95324802399	468.0	306.0	468	311	1
2.7	2015_May_06_1728	s	s	3	2	SIC	123	RC	0	1	02VD 02VO 02VC 02MD 02MO 02MC 02RD 09RO	1	0	0.665246009827	36.0	78.0	31	76	1
2.7	2015_May_06_1728	s	s	3	2	SIC	124	ABS	1	1	02VD 02VO 02VC 02MD 10MO 02MC 02RD 02RO	0	1	2.54826617241	None	None	None	None	1
2.7	2015_May_06_1728	s	s	3	2	SIC	125	ABS	1	0	02VD 02VO 02VC 02MD 02MO 10MC 02RD 02RO	0	1	4.86733293533	None	None	None	None	1
2.7	2015_May_06_1728	s	s	3	2	SIC	126	ABS	2	0	02VD 02VO 10VC 02MD 02MO 02MC 02RD 02RO	0	1	2.18619799614	None	None	None	None	1
2.7	2015_May_06_1728	s	s	3	2	SIC	127	RC	1	2	02VD 02VO 02VC 09MD 02MO 02MC 02RD 02RO	1	0	0.717362880707	-248.0	137.0	-240	140	1
2.7	2015_May_06_1728	s	s	3	2	SIC	128	RC	2	2	09VD 02VO 02VC 02MD 02MO 02MC 02RD 02RO	1	0	1.66585087776	459.0	-228.0	457	-222	1
2.7	2015_May_06_1728	s	s	3	2	SIC	129	RC	1	1	02VD 02VO 02VC 02MD 09MO 02MC 02RD 02RO	1	0	1.31762385368	-462.0	-339.0	-460	-346	1
2.7	2015_May_06_1728	s	s	3	2	SIC	130	ABS	1	1	02VD 02VO 02VC 02MD 10MO 02MC 02RD 02RO	0	1	2.29462814331	None	None	None	None	1
2.7	2015_May_06_1728	s	s	3	2	SIC	131	RC	2	2	09VD 02VO 02VC 02MD 02MO 02MC 02RD 02RO	1	0	0.823375940323	46.0	122.0	43	118	1
2.7	2015_May_06_1728	s	s	3	2	SIC	132	RC	0	2	02VD 02VO 02VC 02MD 02MO 02MC 09RD 02RO	1	0	1.84735703468	-421.0	311.0	-412	311	1
2.7	2015_May_06_1728	s	s	3	2	SIC	133	RC	1	0	02VD 02VO 02VC 02MD 02MO 09MC 02RD 02RO	1	0	0.811553001404	-210.0	364.0	-205	358	1
2.7	2015_May_06_1728	s	s	3	2	SIC	134	ABS	2	2	10VD 02VO 02VC 02MD 02MO 02MC 02RD 02RO	0	1	2.09441804886	None	None	None	None	1
2.7	2015_May_06_1728	s	s	3	2	SIC	135	ABS	2	0	02VD 02VO 10VC 02MD 02MO 02MC 02RD 02RO	0	1	2.44482898712	None	None	None	None	1
2.7	2015_May_06_1728	s	s	3	2	SIC	136	ABS	1	0	02VD 02VO 02VC 02MD 02MO 10MC 02RD 02RO	0	1	2.65550804138	None	None	None	None	1
2.7	2015_May_06_1728	s	s	3	2	SIC	137	RC	2	0	02VD 02VO 09VC 02MD 02MO 02MC 02RD 02RO	1	0	0.870241165161	-282.0	-134.0	-273	-131	1
2.7	2015_May_06_1728	s	s	3	2	SIC	138	ABS	0	1	02VD 02VO 02VC 02MD 02MO 02MC 02RD 10RO	0	1	3.67183685303	None	None	None	None	1
2.7	2015_May_06_1728	s	s	3	2	SIC	139	ABS	2	1	02VD 10VO 02VC 02MD 02MO 02MC 02RD 02RO	0	1	2.00705909729	None	None	None	None	1
2.7	2015_May_06_1728	s	s	3	2	SIC	140	ABS	1	2	02VD 02VO 02VC 10MD 02MO 02MC 02RD 02RO	0	1	2.0769200325	None	None	None	None	1
2.7	2015_May_06_1728	s	s	3	2	SIC	141	RC	2	1	02VD 09VO 02VC 02MD 02MO 02MC 02RD 02RO	1	0	0.678244829178	-190.0	241.0	-187	241	1
2.7	2015_May_06_1728	s	s	3	2	SIC	142	RC	0	1	02VD 02VO 02VC 02MD 02MO 02MC 02RD 09RO	1	0	0.889128923416	162.0	-14.0	168	-19	1
2.7	2015_May_06_1728	s	s	3	2	SIC	143	ABS	0	2	02VD 02VO 02VC 02MD 02MO 02MC 10RD 02RO	0	1	2.17100906372	None	None	None	None	1
2.7	2015_May_06_1728	s	s	3	2	SIC	144	RC	1	2	02VD 02VO 02VC 09MD 02MO 02MC 02RD 02RO	1	0	0.573440074921	99.0	123.0	89	130	1
2.7	2015_May_06_1728	s	s	3	2	SIC	145	RC	2	1	02VD 09VO 02VC 02MD 02MO 02MC 02RD 02RO	1	0	1.03029203415	-149.0	-332.0	-147	-332	1
2.7	2015_May_06_1728	s	s	3	2	SIC	146	ABS	2	0	02VD 02VO 10VC 02MD 02MO 02MC 02RD 02RO	0	1	1.59672379494	None	None	None	None	1
2.7	2015_May_06_1728	s	s	3	2	SIC	147	ABS	2	1	02VD 10VO 02VC 02MD 02MO 02MC 02RD 02RO	0	1	2.0944108963	None	None	None	None	1
2.7	2015_May_06_1728	s	s	3	2	SIC	148	RC	2	2	09VD 02VO 02VC 02MD 02MO 02MC 02RD 02RO	1	0	0.60835313797	-103.0	156.0	-93	164	1
2.7	2015_May_06_1728	s	s	3	2	SIC	149	RC	1	0	02VD 02VO 02VC 02MD 02MO 09MC 02RD 02RO	1	0	1.4679350853	-12.0	-365.0	-1	-364	1
2.7	2015_May_06_1728	s	s	3	2	SIC	150	ABS	2	2	10VD 02VO 02VC 02MD 02MO 02MC 02RD 02RO	0	1	2.12762117386	None	None	None	None	1
2.7	2015_May_06_1728	s	s	3	2	SIC	151	RC	2	0	02VD 02VO 09VC 02MD 02MO 02MC 02RD 02RO	1	0	0.880091905594	-302.0	140.0	-292	139	1
2.7	2015_May_06_1728	s	s	3	2	SIC	152	RC	1	1	02VD 02VO 02VC 02MD 09MO 02MC 02RD 02RO	1	0	1.07048678398	524.0	-74.0	519	-69	1
2.7	2015_May_06_1728	s	s	3	2	SIC	153	RC	0	1	02VD 02VO 02VC 02MD 02MO 02MC 02RD 09RO	1	0	0.666816949844	-352.0	9.0	-343	12	1
2.7	2015_May_06_1728	s	s	3	2	SIC	154	ABS	1	1	02VD 02VO 02VC 02MD 10MO 02MC 02RD 02RO	0	1	2.91846108437	None	None	None	None	1
2.7	2015_May_06_1728	s	s	3	2	SIC	155	ABS	0	1	02VD 02VO 02VC 02MD 02MO 02MC 02RD 10RO	0	1	3.11606884003	None	None	None	None	1
2.7	2015_May_06_1728	s	s	3	2	SIC	156	RC	1	2	02VD 02VO 02VC 09MD 02MO 02MC 02RD 02RO	1	0	2.07458281517	278.0	124.0	283	127	1
2.7	2015_May_06_1728	s	s	3	2	SIC	157	ABS	1	2	02VD 02VO 02VC 10MD 02MO 02MC 02RD 02RO	0	1	2.82427310944	None	None	None	None	1
2.7	2015_May_06_1728	s	s	3	2	SIC	158	ABS	1	0	02VD 02VO 02VC 02MD 02MO 10MC 02RD 02RO	0	1	3.08333206177	None	None	None	None	1
2.7	2015_May_06_1728	s	s	3	2	SIC	159	RC	0	2	02VD 02VO 02VC 02MD 02MO 02MC 09RD 02RO	1	0	1.29102396965	-485.0	-228.0	-487	-230	1
2.7	2015_May_06_1728	s	s	3	2	SIC	160	ABS	0	2	02VD 02VO 02VC 02MD 02MO 02MC 10RD 02RO	0	1	2.20041799545	None	None	None	None	1
2.7	2015_May_06_1728	s	s	3	2	SIC	161	RC	1	2	02VD 02VO 02VC 09MD 02MO 02MC 02RD 02RO	1	0	1.10132813454	115.0	-271.0	121	-268	1
2.7	2015_May_06_1728	s	s	3	2	SIC	162	RC	2	2	09VD 02VO 02VC 02MD 02MO 02MC 02RD 02RO	1	0	1.01946616173	210.0	-246.0	218	-245	1
2.7	2015_May_06_1728	s	s	3	2	SIC	163	ABS	1	2	02VD 02VO 02VC 10MD 02MO 02MC 02RD 02RO	0	1	1.85423016548	None	None	None	None	1
2.7	2015_May_06_1728	s	s	3	2	SIC	164	RC	0	1	02VD 02VO 02VC 02MD 02MO 02MC 02RD 09RO	1	0	1.02097010612	26.0	-130.0	29	-121	1
2.7	2015_May_06_1728	s	s	3	2	SIC	165	ABS	0	1	02VD 02VO 02VC 02MD 02MO 02MC 02RD 10RO	0	1	3.16542577744	None	None	None	None	1
2.7	2015_May_06_1728	s	s	3	2	SIC	166	RC	2	0	02VD 02VO 09VC 02MD 02MO 02MC 02RD 02RO	1	0	1.24189996719	419.0	-158.0	420	-168	1
2.7	2015_May_06_1728	s	s	3	2	SIC	167	ABS	2	0	02VD 02VO 10VC 02MD 02MO 02MC 02RD 02RO	0	1	2.12992095947	None	None	None	None	1
2.7	2015_May_06_1728	s	s	3	2	SIC	168	RC	2	1	02VD 09VO 02VC 02MD 02MO 02MC 02RD 02RO	1	0	1.12661886215	1.0	-271.0	10	-268	1
2.7	2015_May_06_1728	s	s	3	2	SIC	169	ABS	1	0	02VD 02VO 02VC 02MD 02MO 10MC 02RD 02RO	0	1	2.94211506844	None	None	None	None	1
2.7	2015_May_06_1728	s	s	3	2	SIC	170	RC	1	1	02VD 02VO 02VC 02MD 09MO 02MC 02RD 02RO	1	0	1.41976094246	306.0	-393.0	310	-393	1
2.7	2015_May_06_1728	s	s	3	2	SIC	171	RC	1	0	02VD 02VO 02VC 02MD 02MO 09MC 02RD 02RO	1	0	0.905907869339	205.0	-76.0	205	-80	1
2.7	2015_May_06_1728	s	s	3	2	SIC	172	ABS	2	2	10VD 02VO 02VC 02MD 02MO 02MC 02RD 02RO	0	1	1.93628311157	None	None	None	None	1
2.7	2015_May_06_1728	s	s	3	2	SIC	173	ABS	1	1	02VD 02VO 02VC 02MD 10MO 02MC 02RD 02RO	0	1	2.3154759407	None	None	None	None	1
2.7	2015_May_06_1728	s	s	3	2	SIC	174	ABS	2	1	02VD 10VO 02VC 02MD 02MO 02MC 02RD 02RO	0	1	1.85434508324	None	None	None	None	1
2.7	2015_May_06_1728	s	s	3	2	SIC	175	ABS	0	2	02VD 02VO 02VC 02MD 02MO 02MC 10RD 02RO	0	1	2.36526107788	None	None	None	None	1
2.7	2015_May_06_1728	s	s	3	2	SIC	176	RC	0	2	02VD 02VO 02VC 02MD 02MO 02MC 09RD 02RO	1	0	2.00921201706	-181.0	-317.0	-167	-312	1
2.7	2015_May_06_1728	s	s	3	2	SIC	177	ABS	2	0	02VD 02VO 10VC 02MD 02MO 02MC 02RD 02RO	0	1	1.98431801796	None	None	None	None	1
2.7	2015_May_06_1728	s	s	3	2	SIC	178	RC	2	0	02VD 02VO 09VC 02MD 02MO 02MC 02RD 02RO	1	0	1.3598048687	-454.0	13.0	-459	9	1
2.7	2015_May_06_1728	s	s	3	2	SIC	179	ABS	1	2	02VD 02VO 02VC 10MD 02MO 02MC 02RD 02RO	0	1	1.94901299477	None	None	None	None	1
2.7	2015_May_06_1728	s	s	3	2	SIC	180	ABS	0	1	02VD 02VO 02VC 02MD 02MO 02MC 02RD 10RO	0	1	4.008040905	None	None	None	None	1
2.7	2015_May_06_1728	s	s	3	2	SIC	181	RC	0	1	02VD 02VO 02VC 02MD 02MO 02MC 02RD 09RO	1	0	2.18373012543	137.0	269.0	129	265	1
2.7	2015_May_06_1728	s	s	3	2	SIC	182	RC	2	1	02VD 09VO 02VC 02MD 02MO 02MC 02RD 02RO	1	0	0.841200113297	-438.0	-145.0	-442	-144	1
2.7	2015_May_06_1728	s	s	3	2	SIC	183	RC	1	2	02VD 02VO 02VC 09MD 02MO 02MC 02RD 02RO	1	0	0.901026964188	193.0	-294.0	194	-291	1
2.7	2015_May_06_1728	s	s	3	2	SIC	184	ABS	2	2	10VD 02VO 02VC 02MD 02MO 02MC 02RD 02RO	0	1	2.37705898285	None	None	None	None	1
2.7	2015_May_06_1728	s	s	3	2	SIC	185	ABS	1	1	02VD 02VO 02VC 02MD 10MO 02MC 02RD 02RO	0	1	2.90656518936	None	None	None	None	1
2.7	2015_May_06_1728	s	s	3	2	SIC	186	RC	2	2	09VD 02VO 02VC 02MD 02MO 02MC 02RD 02RO	1	0	1.04256296158	-347.0	103.0	-338	106	1
2.7	2015_May_06_1728	s	s	3	2	SIC	187	RC	0	2	02VD 02VO 02VC 02MD 02MO 02MC 09RD 02RO	1	0	2.15347695351	442.0	163.0	440	160	1
2.7	2015_May_06_1728	s	s	3	2	SIC	188	ABS	0	2	02VD 02VO 02VC 02MD 02MO 02MC 10RD 02RO	0	1	2.0944070816	None	None	None	None	1
2.7	2015_May_06_1728	s	s	3	2	SIC	189	ABS	2	1	02VD 10VO 02VC 02MD 02MO 02MC 02RD 02RO	0	1	2.07737517357	None	None	None	None	1
2.7	2015_May_06_1728	s	s	3	2	SIC	190	RC	1	0	02VD 02VO 02VC 02MD 02MO 09MC 02RD 02RO	1	0	0.962103128433	-495.0	-107.0	-499	-103	1
2.7	2015_May_06_1728	s	s	3	2	SIC	191	RC	1	1	02VD 02VO 02VC 02MD 09MO 02MC 02RD 02RO	1	0	0.776250839233	-253.0	152.0	-255	148	1
2.7	2015_May_06_1728	s	s	3	2	SIC	192	ABS	1	0	02VD 02VO 02VC 02MD 02MO 10MC 02RD 02RO	0	1	2.47117900848	None	None	None	None	1
2.7	2015_May_06_1728	s	s	3	2	SIC	193	RC	1	2	02VD 02VO 02VC 09MD 02MO 02MC 02RD 02RO	1	0	1.23289704323	246.0	312.0	247	317	1
2.7	2015_May_06_1728	s	s	3	2	SIC	194	RC	0	1	02VD 02VO 02VC 02MD 02MO 02MC 02RD 09RO	1	0	3.70449280739	161.0	-378.0	168	-375	1
2.7	2015_May_06_1728	s	s	3	2	SIC	195	ABS	1	1	02VD 02VO 02VC 02MD 10MO 02MC 02RD 02RO	0	1	2.73007178307	None	None	None	None	1
2.7	2015_May_06_1728	s	s	3	2	SIC	196	RC	2	0	02VD 02VO 09VC 02MD 02MO 02MC 02RD 02RO	1	0	0.964637041092	-219.0	318.0	-216	325	1
2.7	2015_May_06_1728	s	s	3	2	SIC	197	RC	2	1	02VD 09VO 02VC 02MD 02MO 02MC 02RD 02RO	1	0	1.35973906517	-476.0	-13.0	-478	-19	1
2.7	2015_May_06_1728	s	s	3	2	SIC	198	ABS	1	0	02VD 02VO 02VC 02MD 02MO 10MC 02RD 02RO	0	1	2.52577209473	None	None	None	None	1
2.7	2015_May_06_1728	s	s	3	2	SIC	199	RC	1	1	02VD 02VO 02VC 02MD 09MO 02MC 02RD 02RO	1	0	1.59513282776	363.0	379.0	357	384	1
2.7	2015_May_06_1728	s	s	3	2	SIC	200	ABS	0	1	02VD 02VO 02VC 02MD 02MO 02MC 02RD 10RO	0	1	4.95480203629	None	None	None	None	1
2.7	2015_May_06_1728	s	s	3	2	SIC	201	RC	1	0	02VD 02VO 02VC 02MD 02MO 09MC 02RD 02RO	1	0	1.85921216011	399.0	-336.0	400	-328	1
2.7	2015_May_06_1728	s	s	3	2	SIC	202	ABS	2	0	02VD 02VO 10VC 02MD 02MO 02MC 02RD 02RO	0	1	1.47735404968	None	None	None	None	1
2.7	2015_May_06_1728	s	s	3	2	SIC	203	ABS	0	2	02VD 02VO 02VC 02MD 02MO 02MC 10RD 02RO	0	1	1.72158813477	None	None	None	None	1
2.7	2015_May_06_1728	s	s	3	2	SIC	204	RC	2	2	09VD 02VO 02VC 02MD 02MO 02MC 02RD 02RO	1	0	2.31818008423	264.0	168.0	270	168	1
2.7	2015_May_06_1728	s	s	3	2	SIC	205	ABS	2	2	10VD 02VO 02VC 02MD 02MO 02MC 02RD 02RO	0	1	2.81917190552	None	None	None	None	1
2.7	2015_May_06_1728	s	s	3	2	SIC	206	ABS	1	2	02VD 02VO 02VC 10MD 02MO 02MC 02RD 02RO	0	1	2.05600380898	None	None	None	None	1
2.7	2015_May_06_1728	s	s	3	2	SIC	207	ABS	2	1	02VD 10VO 02VC 02MD 02MO 02MC 02RD 02RO	0	1	1.60386490822	None	None	None	None	1
2.7	2015_May_06_1728	s	s	3	2	SIC	208	RC	0	2	02VD 02VO 02VC 02MD 02MO 02MC 09RD 02RO	1	0	2.64434194565	296.0	-383.0	294	-374	1
2.7	2015_May_06_1728	s	s	3	2	SIC	209	ABS	0	1	02VD 02VO 02VC 02MD 02MO 02MC 02RD 10RO	0	1	2.62394499779	None	None	None	None	1
2.7	2015_May_06_1728	s	s	3	2	SIC	210	RC	1	2	02VD 02VO 02VC 09MD 02MO 02MC 02RD 02RO	1	0	0.952644109726	-485.0	-133.0	-475	-132	1
2.7	2015_May_06_1728	s	s	3	2	SIC	211	RC	2	0	02VD 02VO 09VC 02MD 02MO 02MC 02RD 02RO	1	0	0.581997871399	-288.0	255.0	-298	258	1
2.7	2015_May_06_1728	s	s	3	2	SIC	212	RC	2	1	02VD 09VO 02VC 02MD 02MO 02MC 02RD 02RO	1	0	0.823297023773	-75.0	-19.0	-67	-14	1
2.7	2015_May_06_1728	s	s	3	2	SIC	213	RC	0	2	02VD 02VO 02VC 02MD 02MO 02MC 09RD 02RO	1	0	1.37647008896	246.0	183.0	258	190	1
2.7	2015_May_06_1728	s	s	3	2	SIC	214	ABS	1	2	02VD 02VO 02VC 10MD 02MO 02MC 02RD 02RO	0	1	1.66639590263	None	None	None	None	1
2.7	2015_May_06_1728	s	s	3	2	SIC	215	ABS	2	0	02VD 02VO 10VC 02MD 02MO 02MC 02RD 02RO	0	1	2.06865811348	None	None	None	None	1
2.7	2015_May_06_1728	s	s	3	2	SIC	216	RC	0	1	02VD 02VO 02VC 02MD 02MO 02MC 02RD 09RO	1	0	1.09407782555	-248.0	-46.0	-242	-42	1
2.7	2015_May_06_1728	s	s	3	2	SIC	217	ABS	1	0	02VD 02VO 02VC 02MD 02MO 10MC 02RD 02RO	0	1	4.34075117111	None	None	None	None	1
2.7	2015_May_06_1728	s	s	3	2	SIC	218	ABS	0	2	02VD 02VO 02VC 02MD 02MO 02MC 10RD 02RO	0	1	1.98452806473	None	None	None	None	1
2.7	2015_May_06_1728	s	s	3	2	SIC	219	RC	1	0	02VD 02VO 02VC 02MD 02MO 09MC 02RD 02RO	1	0	1.05870199203	38.0	-192.0	37	-195	1
2.7	2015_May_06_1728	s	s	3	2	SIC	220	ABS	1	1	02VD 02VO 02VC 02MD 10MO 02MC 02RD 02RO	0	1	2.45389890671	None	None	None	None	1
2.7	2015_May_06_1728	s	s	3	2	SIC	221	ABS	2	2	10VD 02VO 02VC 02MD 02MO 02MC 02RD 02RO	0	1	3.84845280647	None	None	None	None	1
2.7	2015_May_06_1728	s	s	3	2	SIC	222	RC	2	2	09VD 02VO 02VC 02MD 02MO 02MC 02RD 02RO	1	0	1.01155090332	140.0	-73.0	147	-73	1
2.7	2015_May_06_1728	s	s	3	2	SIC	223	ABS	2	1	02VD 10VO 02VC 02MD 02MO 02MC 02RD 02RO	0	1	2.49120402336	None	None	None	None	1
2.7	2015_May_06_1728	s	s	3	2	SIC	224	RC	1	1	02VD 02VO 02VC 02MD 09MO 02MC 02RD 02RO	0	1	2.56534194946	-512.0	318.0	None	None	0
2.7	2015_May_06_1728	s	s	3	2	SIC	225	RC	0	2	02VD 02VO 02VC 02MD 02MO 02MC 09RD 02RO	1	0	2.05926012993	-280.0	-379.0	-279	-383	1
2.7	2015_May_06_1728	s	s	3	2	SIC	226	ABS	1	1	02VD 02VO 02VC 02MD 10MO 02MC 02RD 02RO	0	1	2.48312592506	None	None	None	None	1
2.7	2015_May_06_1728	s	s	3	2	SIC	227	ABS	1	0	02VD 02VO 02VC 02MD 02MO 10MC 02RD 02RO	0	1	3.01270079613	None	None	None	None	1
2.7	2015_May_06_1728	s	s	3	2	SIC	228	ABS	2	0	02VD 02VO 10VC 02MD 02MO 02MC 02RD 02RO	0	1	2.36026191711	None	None	None	None	1
2.7	2015_May_06_1728	s	s	3	2	SIC	229	ABS	1	2	02VD 02VO 02VC 10MD 02MO 02MC 02RD 02RO	0	1	2.01930403709	None	None	None	None	1
2.7	2015_May_06_1728	s	s	3	2	SIC	230	ABS	0	1	02VD 02VO 02VC 02MD 02MO 02MC 02RD 10RO	0	1	2.57213401794	None	None	None	None	1
2.7	2015_May_06_1728	s	s	3	2	SIC	231	RC	2	0	02VD 02VO 09VC 02MD 02MO 02MC 02RD 02RO	1	0	1.31241393089	194.0	-245.0	193	-238	1
2.7	2015_May_06_1728	s	s	3	2	SIC	232	RC	1	0	02VD 02VO 02VC 02MD 02MO 09MC 02RD 02RO	1	0	4.27210497856	-15.0	261.0	-12	261	1
2.7	2015_May_06_1728	s	s	3	2	SIC	233	ABS	2	2	10VD 02VO 02VC 02MD 02MO 02MC 02RD 02RO	0	1	3.01635694504	None	None	None	None	1
2.7	2015_May_06_1728	s	s	3	2	SIC	234	ABS	2	1	02VD 10VO 02VC 02MD 02MO 02MC 02RD 02RO	0	1	4.66057085991	None	None	None	None	1
2.7	2015_May_06_1728	s	s	3	2	SIC	235	RC	1	2	02VD 02VO 02VC 09MD 02MO 02MC 02RD 02RO	1	0	1.77690601349	213.0	-371.0	215	-371	1
2.7	2015_May_06_1728	s	s	3	2	SIC	236	ABS	0	2	02VD 02VO 02VC 02MD 02MO 02MC 10RD 02RO	0	1	1.85108685493	None	None	None	None	1
2.7	2015_May_06_1728	s	s	3	2	SIC	237	RC	2	1	02VD 09VO 02VC 02MD 02MO 02MC 02RD 02RO	1	0	2.97732710838	-430.0	350.0	-435	351	1
2.7	2015_May_06_1728	s	s	3	2	SIC	238	RC	1	1	02VD 02VO 02VC 02MD 09MO 02MC 02RD 02RO	1	0	1.02342891693	230.0	126.0	237	121	1
2.7	2015_May_06_1728	s	s	3	2	SIC	239	RC	0	1	02VD 02VO 02VC 02MD 02MO 02MC 02RD 09RO	1	0	2.27829813957	-357.0	-288.0	-349	-291	1
2.7	2015_May_06_1728	s	s	3	2	SIC	240	RC	2	2	09VD 02VO 02VC 02MD 02MO 02MC 02RD 02RO	1	0	0.644430875778	-196.0	-24.0	-205	-23	1
2.7	2015_May_06_1728	s	s	3	2	SIC	241	ABS	1	1	02VD 02VO 02VC 02MD 10MO 02MC 02RD 02RO	0	1	2.77729678154	None	None	None	None	1
2.7	2015_May_06_1728	s	s	3	2	SIC	242	ABS	2	1	02VD 10VO 02VC 02MD 02MO 02MC 02RD 02RO	0	1	1.71539711952	None	None	None	None	1
2.7	2015_May_06_1728	s	s	3	2	SIC	243	RC	2	2	09VD 02VO 02VC 02MD 02MO 02MC 02RD 02RO	1	0	1.19985985756	-483.0	279.0	-478	284	1
2.7	2015_May_06_1728	s	s	3	2	SIC	244	RC	1	0	02VD 02VO 02VC 02MD 02MO 09MC 02RD 02RO	1	0	2.22398900986	415.0	205.0	421	212	1
2.7	2015_May_06_1728	s	s	3	2	SIC	245	ABS	0	1	02VD 02VO 02VC 02MD 02MO 02MC 02RD 10RO	0	1	3.24800181389	None	None	None	None	1
2.7	2015_May_06_1728	s	s	3	2	SIC	246	ABS	0	2	02VD 02VO 02VC 02MD 02MO 02MC 10RD 02RO	0	1	2.86579418182	None	None	None	None	1
2.7	2015_May_06_1728	s	s	3	2	SIC	247	RC	0	1	02VD 02VO 02VC 02MD 02MO 02MC 02RD 09RO	1	0	2.78099894524	445.0	157.0	452	158	1
2.7	2015_May_06_1728	s	s	3	2	SIC	248	RC	2	0	02VD 02VO 09VC 02MD 02MO 02MC 02RD 02RO	1	0	0.799865007401	-532.0	244.0	-533	246	1
2.7	2015_May_06_1728	s	s	3	2	SIC	249	ABS	2	2	10VD 02VO 02VC 02MD 02MO 02MC 02RD 02RO	0	1	1.81800198555	None	None	None	None	1
2.7	2015_May_06_1728	s	s	3	2	SIC	250	RC	0	2	02VD 02VO 02VC 02MD 02MO 02MC 09RD 02RO	1	0	2.98329281807	-97.0	-198.0	-94	-203	1
2.7	2015_May_06_1728	s	s	3	2	SIC	251	RC	2	1	02VD 09VO 02VC 02MD 02MO 02MC 02RD 02RO	1	0	1.4824450016	406.0	152.0	413	161	1
2.7	2015_May_06_1728	s	s	3	2	SIC	252	ABS	2	0	02VD 02VO 10VC 02MD 02MO 02MC 02RD 02RO	0	1	1.60012197495	None	None	None	None	1
2.7	2015_May_06_1728	s	s	3	2	SIC	253	RC	1	1	02VD 02VO 02VC 02MD 09MO 02MC 02RD 02RO	1	0	0.961147069931	-502.0	377.0	-505	378	1
2.7	2015_May_06_1728	s	s	3	2	SIC	254	ABS	1	2	02VD 02VO 02VC 10MD 02MO 02MC 02RD 02RO	0	1	1.93540406227	None	None	None	None	1
2.7	2015_May_06_1728	s	s	3	2	SIC	255	ABS	1	0	02VD 02VO 02VC 02MD 02MO 10MC 02RD 02RO	0	1	2.56030106544	None	None	None	None	1
2.7	2015_May_06_1728	s	s	3	2	SIC	256	RC	1	2	02VD 02VO 02VC 09MD 02MO 02MC 02RD 02RO	1	0	1.90271306038	160.0	409.0	158	418	1
2.7	2015_May_06_1728	s	s	3	2	SIC	257	ABS	1	2	02VD 02VO 02VC 10MD 02MO 02MC 02RD 02RO	0	1	2.05930495262	None	None	None	None	1
2.7	2015_May_06_1728	s	s	3	2	SIC	258	RC	2	1	02VD 09VO 02VC 02MD 02MO 02MC 02RD 02RO	1	0	2.23073410988	517.0	-280.0	519	-278	1
2.7	2015_May_06_1728	s	s	3	2	SIC	259	RC	1	0	02VD 02VO 02VC 02MD 02MO 09MC 02RD 02RO	1	0	1.02341794968	-234.0	-134.0	-228	-140	1
2.7	2015_May_06_1728	s	s	3	2	SIC	260	ABS	2	2	10VD 02VO 02VC 02MD 02MO 02MC 02RD 02RO	0	1	1.82381820679	None	None	None	None	1
2.7	2015_May_06_1728	s	s	3	2	SIC	261	RC	1	2	02VD 02VO 02VC 09MD 02MO 02MC 02RD 02RO	1	0	1.28232717514	-467.0	-181.0	-472	-182	1
2.7	2015_May_06_1728	s	s	3	2	SIC	262	RC	1	1	02VD 02VO 02VC 02MD 09MO 02MC 02RD 02RO	1	0	0.905694007874	-360.0	-391.0	-357	-392	1
2.7	2015_May_06_1728	s	s	3	2	SIC	263	ABS	1	1	02VD 02VO 02VC 02MD 10MO 02MC 02RD 02RO	0	1	2.7418949604	None	None	None	None	1
2.7	2015_May_06_1728	s	s	3	2	SIC	264	RC	0	1	02VD 02VO 02VC 02MD 02MO 02MC 02RD 09RO	1	0	2.92706108093	-35.0	-355.0	-32	-356	1
2.7	2015_May_06_1728	s	s	3	2	SIC	265	ABS	2	0	02VD 02VO 10VC 02MD 02MO 02MC 02RD 02RO	1	0	1.64191699028	None	None	-2	19	0
2.7	2015_May_06_1728	s	s	3	2	SIC	266	ABS	2	1	02VD 10VO 02VC 02MD 02MO 02MC 02RD 02RO	0	1	1.87093901634	None	None	None	None	1
2.7	2015_May_06_1728	s	s	3	2	SIC	267	ABS	0	2	02VD 02VO 02VC 02MD 02MO 02MC 10RD 02RO	0	1	2.70695281029	None	None	None	None	1
2.7	2015_May_06_1728	s	s	3	2	SIC	268	ABS	1	0	02VD 02VO 02VC 02MD 02MO 10MC 02RD 02RO	0	1	2.14159393311	None	None	None	None	1
2.7	2015_May_06_1728	s	s	3	2	SIC	269	RC	2	2	09VD 02VO 02VC 02MD 02MO 02MC 02RD 02RO	1	0	3.57280611992	242.0	383.0	239	387	1
2.7	2015_May_06_1728	s	s	3	2	SIC	270	RC	0	2	02VD 02VO 02VC 02MD 02MO 02MC 09RD 02RO	1	0	0.924827098846	271.0	265.0	280	264	1
2.7	2015_May_06_1728	s	s	3	2	SIC	271	ABS	0	1	02VD 02VO 02VC 02MD 02MO 02MC 02RD 10RO	0	1	3.61971998215	None	None	None	None	1
2.7	2015_May_06_1728	s	s	3	2	SIC	272	RC	2	0	02VD 02VO 09VC 02MD 02MO 02MC 02RD 02RO	1	0	1.76133799553	499.0	225.0	496	231	1
2.7	2015_May_06_1728	s	s	3	2	SIC	273	ABS	2	1	02VD 10VO 02VC 02MD 02MO 02MC 02RD 02RO	0	1	1.57647395134	None	None	None	None	1
2.7	2015_May_06_1728	s	s	3	2	SIC	274	ABS	2	0	02VD 02VO 10VC 02MD 02MO 02MC 02RD 02RO	1	0	2.08271408081	None	None	-519	-194	0
2.7	2015_May_06_1728	s	s	3	2	SIC	275	RC	0	1	02VD 02VO 02VC 02MD 02MO 02MC 02RD 09RO	1	0	2.54187202454	-81.0	-270.0	-86	-277	1
2.7	2015_May_06_1728	s	s	3	2	SIC	276	ABS	0	1	02VD 02VO 02VC 02MD 02MO 02MC 02RD 10RO	0	1	2.86780691147	None	None	None	None	1
2.7	2015_May_06_1728	s	s	3	2	SIC	277	RC	1	0	02VD 02VO 02VC 02MD 02MO 09MC 02RD 02RO	1	0	1.77456402779	148.0	374.0	142	375	1
2.7	2015_May_06_1728	s	s	3	2	SIC	278	ABS	1	1	02VD 02VO 02VC 02MD 10MO 02MC 02RD 02RO	0	1	2.15324187279	None	None	None	None	1
2.7	2015_May_06_1728	s	s	3	2	SIC	279	RC	2	1	02VD 09VO 02VC 02MD 02MO 02MC 02RD 02RO	1	0	1.81208491325	401.0	-324.0	397	-327	1
2.7	2015_May_06_1728	s	s	3	2	SIC	280	RC	2	0	02VD 02VO 09VC 02MD 02MO 02MC 02RD 02RO	1	0	0.643589019775	112.0	-13.0	114	-15	1
2.7	2015_May_06_1728	s	s	3	2	SIC	281	RC	2	2	09VD 02VO 02VC 02MD 02MO 02MC 02RD 02RO	1	0	0.903241157532	65.0	-172.0	71	-181	1
2.7	2015_May_06_1728	s	s	3	2	SIC	282	ABS	0	2	02VD 02VO 02VC 02MD 02MO 02MC 10RD 02RO	0	1	2.50331687927	None	None	None	None	1
2.7	2015_May_06_1728	s	s	3	2	SIC	283	RC	1	2	02VD 02VO 02VC 09MD 02MO 02MC 02RD 02RO	1	0	1.80704522133	-491.0	-254.0	-490	-251	1
2.7	2015_May_06_1728	s	s	3	2	SIC	284	RC	0	2	02VD 02VO 02VC 02MD 02MO 02MC 09RD 02RO	1	0	1.65647912025	-8.0	411.0	-4	413	1
2.7	2015_May_06_1728	s	s	3	2	SIC	285	RC	1	1	02VD 02VO 02VC 02MD 09MO 02MC 02RD 02RO	1	0	1.42345809937	373.0	315.0	374	318	1
2.7	2015_May_06_1728	s	s	3	2	SIC	286	ABS	1	0	02VD 02VO 02VC 02MD 02MO 10MC 02RD 02RO	0	1	3.23140692711	None	None	None	None	1
2.7	2015_May_06_1728	s	s	3	2	SIC	287	ABS	1	2	02VD 02VO 02VC 10MD 02MO 02MC 02RD 02RO	0	1	2.00869297981	None	None	None	None	1
2.7	2015_May_06_1728	s	s	3	2	SIC	288	ABS	2	2	10VD 02VO 02VC 02MD 02MO 02MC 02RD 02RO	0	1	2.1967151165	None	None	None	None	1
2.7	2015_May_06_1728	s	s	3	2	SIC	289	RC	0	1	02VD 02VO 02VC 02MD 02MO 02MC 02RD 09RO	1	0	1.79477190971	33.0	347.0	31	341	1
2.7	2015_May_06_1728	s	s	3	2	SIC	290	ABS	1	1	02VD 02VO 02VC 02MD 10MO 02MC 02RD 02RO	0	1	2.8478372097	None	None	None	None	1
2.7	2015_May_06_1728	s	s	3	2	SIC	291	ABS	1	2	02VD 02VO 02VC 10MD 02MO 02MC 02RD 02RO	0	1	1.35074687004	None	None	None	None	1
2.7	2015_May_06_1728	s	s	3	2	SIC	292	RC	1	2	02VD 02VO 02VC 09MD 02MO 02MC 02RD 02RO	1	0	1.41586709023	307.0	363.0	308	366	1
2.7	2015_May_06_1728	s	s	3	2	SIC	293	RC	0	2	02VD 02VO 02VC 02MD 02MO 02MC 09RD 02RO	1	0	0.670289039612	-470.0	68.0	-474	68	1
2.7	2015_May_06_1728	s	s	3	2	SIC	294	ABS	2	2	10VD 02VO 02VC 02MD 02MO 02MC 02RD 02RO	0	1	1.77673697472	None	None	None	None	1
2.7	2015_May_06_1728	s	s	3	2	SIC	295	RC	2	1	02VD 09VO 02VC 02MD 02MO 02MC 02RD 02RO	1	0	0.882220983505	60.0	308.0	67	302	1
2.7	2015_May_06_1728	s	s	3	2	SIC	296	ABS	2	0	02VD 02VO 10VC 02MD 02MO 02MC 02RD 02RO	0	1	2.22391486168	None	None	None	None	1
2.7	2015_May_06_1728	s	s	3	2	SIC	297	RC	1	1	02VD 02VO 02VC 02MD 09MO 02MC 02RD 02RO	1	0	2.58401703835	-420.0	-243.0	-416	-239	1
2.7	2015_May_06_1728	s	s	3	2	SIC	298	RC	2	0	02VD 02VO 09VC 02MD 02MO 02MC 02RD 02RO	1	0	1.40911006927	363.0	73.0	365	74	1
2.7	2015_May_06_1728	s	s	3	2	SIC	299	ABS	0	1	02VD 02VO 02VC 02MD 02MO 02MC 02RD 10RO	0	1	2.58886122704	None	None	None	None	1
2.7	2015_May_06_1728	s	s	3	2	SIC	300	ABS	2	1	02VD 10VO 02VC 02MD 02MO 02MC 02RD 02RO	0	1	2.5155749321	None	None	None	None	1
2.7	2015_May_06_1728	s	s	3	2	SIC	301	RC	1	0	02VD 02VO 02VC 02MD 02MO 09MC 02RD 02RO	1	0	1.86832594872	-246.0	352.0	-252	358	1
2.7	2015_May_06_1728	s	s	3	2	SIC	302	ABS	0	2	02VD 02VO 02VC 02MD 02MO 02MC 10RD 02RO	0	1	1.86616110802	None	None	None	None	1
2.7	2015_May_06_1728	s	s	3	2	SIC	303	ABS	1	0	02VD 02VO 02VC 02MD 02MO 10MC 02RD 02RO	0	1	3.05440807343	None	None	None	None	1
2.7	2015_May_06_1728	s	s	3	2	SIC	304	RC	2	2	09VD 02VO 02VC 02MD 02MO 02MC 02RD 02RO	1	0	1.6794719696	-139.0	360.0	-144	356	1
2.7	2015_May_06_1728	s	s	3	2	SIC	305	RC	1	1	02VD 02VO 02VC 02MD 09MO 02MC 02RD 02RO	0	1	2.87143301964	-469.0	-223.0	None	None	0
2.7	2015_May_06_1728	s	s	3	2	SIC	306	RC	1	0	02VD 02VO 02VC 02MD 02MO 09MC 02RD 02RO	1	0	2.05924510956	-420.0	-412.0	-411	-411	1
2.7	2015_May_06_1728	s	s	3	2	SIC	307	RC	2	0	02VD 02VO 09VC 02MD 02MO 02MC 02RD 02RO	1	0	2.01969504356	502.0	-167.0	505	-166	1
2.7	2015_May_06_1728	s	s	3	2	SIC	308	RC	2	2	09VD 02VO 02VC 02MD 02MO 02MC 02RD 02RO	1	0	0.882217168808	-484.0	15.0	-490	6	1
2.7	2015_May_06_1728	s	s	3	2	SIC	309	ABS	1	0	02VD 02VO 02VC 02MD 02MO 10MC 02RD 02RO	0	1	2.41243505478	None	None	None	None	1
2.7	2015_May_06_1728	s	s	3	2	SIC	310	ABS	1	1	02VD 02VO 02VC 02MD 10MO 02MC 02RD 02RO	0	1	4.41877388954	None	None	None	None	1
2.7	2015_May_06_1728	s	s	3	2	SIC	311	RC	1	2	02VD 02VO 02VC 09MD 02MO 02MC 02RD 02RO	1	0	1.40011286736	-498.0	-171.0	-509	-166	1
2.7	2015_May_06_1728	s	s	3	2	SIC	312	ABS	1	2	02VD 02VO 02VC 10MD 02MO 02MC 02RD 02RO	0	1	1.53622102737	None	None	None	None	1
2.7	2015_May_06_1728	s	s	3	2	SIC	313	RC	0	1	02VD 02VO 02VC 02MD 02MO 02MC 02RD 09RO	1	0	2.07084488869	-433.0	320.0	-432	327	1
2.7	2015_May_06_1728	s	s	3	2	SIC	314	RC	2	1	02VD 09VO 02VC 02MD 02MO 02MC 02RD 02RO	1	0	1.9627020359	517.0	167.0	523	170	1
2.7	2015_May_06_1728	s	s	3	2	SIC	315	ABS	0	1	02VD 02VO 02VC 02MD 02MO 02MC 02RD 10RO	0	1	4.09305000305	None	None	None	None	1
2.7	2015_May_06_1728	s	s	3	2	SIC	316	ABS	2	0	02VD 02VO 10VC 02MD 02MO 02MC 02RD 02RO	0	1	1.96086812019	None	None	None	None	1
2.7	2015_May_06_1728	s	s	3	2	SIC	317	ABS	0	2	02VD 02VO 02VC 02MD 02MO 02MC 10RD 02RO	0	1	2.21225309372	None	None	None	None	1
2.7	2015_May_06_1728	s	s	3	2	SIC	318	RC	0	2	02VD 02VO 02VC 02MD 02MO 02MC 09RD 02RO	1	0	1.31331396103	210.0	-282.0	213	-283	1
2.7	2015_May_06_1728	s	s	3	2	SIC	319	ABS	2	1	02VD 10VO 02VC 02MD 02MO 02MC 02RD 02RO	0	1	1.81204295158	None	None	None	None	1
2.7	2015_May_06_1728	s	s	3	2	SIC	320	ABS	2	2	10VD 02VO 02VC 02MD 02MO 02MC 02RD 02RO	0	1	2.15092992783	None	None	None	None	1
2.7	2015_May_06_1728	s	s	3	2	SIC	321	ABS	2	1	02VD 10VO 02VC 02MD 02MO 02MC 02RD 02RO	0	1	1.68927121162	None	None	None	None	1
2.7	2015_May_06_1728	s	s	3	2	SIC	322	RC	0	2	02VD 02VO 02VC 02MD 02MO 02MC 09RD 02RO	1	0	1.71336388588	329.0	-42.0	334	-39	1
2.7	2015_May_06_1728	s	s	3	2	SIC	323	RC	2	2	09VD 02VO 02VC 02MD 02MO 02MC 02RD 02RO	1	0	0.988028049469	396.0	-77.0	406	-78	1
2.7	2015_May_06_1728	s	s	3	2	SIC	324	ABS	0	2	02VD 02VO 02VC 02MD 02MO 02MC 10RD 02RO	0	1	2.16502714157	None	None	None	None	1
2.7	2015_May_06_1728	s	s	3	2	SIC	325	ABS	2	2	10VD 02VO 02VC 02MD 02MO 02MC 02RD 02RO	0	1	1.54603695869	None	None	None	None	1
2.7	2015_May_06_1728	s	s	3	2	SIC	326	ABS	1	2	02VD 02VO 02VC 10MD 02MO 02MC 02RD 02RO	0	1	1.11756300926	None	None	None	None	1
2.7	2015_May_06_1728	s	s	3	2	SIC	327	RC	1	1	02VD 02VO 02VC 02MD 09MO 02MC 02RD 02RO	1	0	1.78603792191	472.0	140.0	474	143	1
2.7	2015_May_06_1728	s	s	3	2	SIC	328	RC	1	2	02VD 02VO 02VC 09MD 02MO 02MC 02RD 02RO	1	0	0.952795982361	404.0	-386.0	403	-383	1
2.7	2015_May_06_1728	s	s	3	2	SIC	329	RC	1	0	02VD 02VO 02VC 02MD 02MO 09MC 02RD 02RO	1	0	1.21772503853	-247.0	-365.0	-244	-371	1
2.7	2015_May_06_1728	s	s	3	2	SIC	330	ABS	1	1	02VD 02VO 02VC 02MD 10MO 02MC 02RD 02RO	0	1	2.28289699554	None	None	None	None	1
2.7	2015_May_06_1728	s	s	3	2	SIC	331	RC	0	1	02VD 02VO 02VC 02MD 02MO 02MC 02RD 09RO	1	0	1.04700899124	54.0	-381.0	61	-383	1
2.7	2015_May_06_1728	s	s	3	2	SIC	332	RC	2	0	02VD 02VO 09VC 02MD 02MO 02MC 02RD 02RO	1	0	1.61193990707	173.0	-361.0	179	-369	1
2.7	2015_May_06_1728	s	s	3	2	SIC	333	ABS	2	0	02VD 02VO 10VC 02MD 02MO 02MC 02RD 02RO	0	1	1.38822293282	None	None	None	None	1
2.7	2015_May_06_1728	s	s	3	2	SIC	334	ABS	1	0	02VD 02VO 02VC 02MD 02MO 10MC 02RD 02RO	0	1	3.30307197571	None	None	None	None	1
2.7	2015_May_06_1728	s	s	3	2	SIC	335	RC	2	1	02VD 09VO 02VC 02MD 02MO 02MC 02RD 02RO	1	0	1.05854415894	71.0	150.0	64	154	1
2.7	2015_May_06_1728	s	s	3	2	SIC	336	ABS	0	1	02VD 02VO 02VC 02MD 02MO 02MC 02RD 10RO	0	1	3.79879784584	None	None	None	None	1
2.7	2015_May_06_1728	s	s	3	2	SIC	337	ABS	1	0	02VD 02VO 02VC 02MD 02MO 10MC 02RD 02RO	0	1	2.65613007545	None	None	None	None	1
2.7	2015_May_06_1728	s	s	3	2	SIC	338	RC	2	0	02VD 02VO 09VC 02MD 02MO 02MC 02RD 02RO	1	0	1.18557715416	-388.0	402.0	-381	401	1
2.7	2015_May_06_1728	s	s	3	2	SIC	339	RC	2	1	02VD 09VO 02VC 02MD 02MO 02MC 02RD 02RO	1	0	1.72949886322	-423.0	-270.0	-417	-273	1
2.7	2015_May_06_1728	s	s	3	2	SIC	340	ABS	0	2	02VD 02VO 02VC 02MD 02MO 02MC 10RD 02RO	0	1	1.99235081673	None	None	None	None	1
2.7	2015_May_06_1728	s	s	3	2	SIC	341	RC	1	2	02VD 02VO 02VC 09MD 02MO 02MC 02RD 02RO	1	0	1.08224105835	-11.0	-231.0	-21	-233	1
2.7	2015_May_06_1728	s	s	3	2	SIC	342	RC	0	2	02VD 02VO 02VC 02MD 02MO 02MC 09RD 02RO	1	0	0.935510158539	-421.0	-349.0	-427	-349	1
2.7	2015_May_06_1728	s	s	3	2	SIC	343	RC	1	1	02VD 02VO 02VC 02MD 09MO 02MC 02RD 02RO	1	0	0.818732023239	85.0	69.0	81	66	1
2.7	2015_May_06_1728	s	s	3	2	SIC	344	ABS	2	0	02VD 02VO 10VC 02MD 02MO 02MC 02RD 02RO	0	1	2.13698601723	None	None	None	None	1
2.7	2015_May_06_1728	s	s	3	2	SIC	345	ABS	2	1	02VD 10VO 02VC 02MD 02MO 02MC 02RD 02RO	0	1	1.97030091286	None	None	None	None	1
2.7	2015_May_06_1728	s	s	3	2	SIC	346	RC	1	0	02VD 02VO 02VC 02MD 02MO 09MC 02RD 02RO	1	0	2.90105581284	-210.0	390.0	-202	386	1
2.7	2015_May_06_1728	s	s	3	2	SIC	347	RC	2	2	09VD 02VO 02VC 02MD 02MO 02MC 02RD 02RO	1	0	0.670328140259	117.0	4.0	108	10	1
2.7	2015_May_06_1728	s	s	3	2	SIC	348	ABS	2	2	10VD 02VO 02VC 02MD 02MO 02MC 02RD 02RO	0	1	2.03554701805	None	None	None	None	1
2.7	2015_May_06_1728	s	s	3	2	SIC	349	ABS	0	1	02VD 02VO 02VC 02MD 02MO 02MC 02RD 10RO	0	1	3.78661584854	None	None	None	None	1
2.7	2015_May_06_1728	s	s	3	2	SIC	350	RC	0	1	02VD 02VO 02VC 02MD 02MO 02MC 02RD 09RO	1	0	2.00036907196	-392.0	-262.0	-391	-259	1
2.7	2015_May_06_1728	s	s	3	2	SIC	351	ABS	1	1	02VD 02VO 02VC 02MD 10MO 02MC 02RD 02RO	0	1	2.67992901802	None	None	None	None	1
2.7	2015_May_06_1728	s	s	3	2	SIC	352	ABS	1	2	02VD 02VO 02VC 10MD 02MO 02MC 02RD 02RO	0	1	2.53007483482	None	None	None	None	1
2.7	2015_May_06_1728	s	s	3	2	SIC	353	ABS	1	2	02VD 02VO 02VC 10MD 02MO 02MC 02RD 02RO	0	1	3.31451916695	None	None	None	None	1
2.7	2015_May_06_1728	s	s	3	2	SIC	354	ABS	2	1	02VD 10VO 02VC 02MD 02MO 02MC 02RD 02RO	0	1	1.90152597427	None	None	None	None	1
2.7	2015_May_06_1728	s	s	3	2	SIC	355	ABS	2	0	02VD 02VO 10VC 02MD 02MO 02MC 02RD 02RO	0	1	3.60116386414	None	None	None	None	1
2.7	2015_May_06_1728	s	s	3	2	SIC	356	RC	2	0	02VD 02VO 09VC 02MD 02MO 02MC 02RD 02RO	1	0	2.14728307724	-232.0	-361.0	-235	-367	1
2.7	2015_May_06_1728	s	s	3	2	SIC	357	RC	1	0	02VD 02VO 02VC 02MD 02MO 09MC 02RD 02RO	1	0	1.47992300987	105.0	406.0	108	398	1
2.7	2015_May_06_1728	s	s	3	2	SIC	358	RC	2	1	02VD 09VO 02VC 02MD 02MO 02MC 02RD 02RO	1	0	1.12921690941	-325.0	229.0	-323	226	1
2.7	2015_May_06_1728	s	s	3	2	SIC	359	ABS	1	0	02VD 02VO 02VC 02MD 02MO 10MC 02RD 02RO	1	0	3.45739102364	None	None	-105	-252	0
2.7	2015_May_06_1728	s	s	3	2	SIC	360	RC	0	1	02VD 02VO 02VC 02MD 02MO 02MC 02RD 09RO	1	0	0.576122999191	-47.0	-13.0	-44	-16	1
2.7	2015_May_06_1728	s	s	3	2	SIC	361	ABS	0	1	02VD 02VO 02VC 02MD 02MO 02MC 02RD 10RO	0	1	3.72819113731	None	None	None	None	1
2.7	2015_May_06_1728	s	s	3	2	SIC	362	RC	1	1	02VD 02VO 02VC 02MD 09MO 02MC 02RD 02RO	1	0	1.50258398056	72.0	-122.0	72	-136	1
2.7	2015_May_06_1728	s	s	3	2	SIC	363	ABS	2	2	10VD 02VO 02VC 02MD 02MO 02MC 02RD 02RO	0	1	5.05741095543	None	None	None	None	1
2.7	2015_May_06_1728	s	s	3	2	SIC	364	RC	0	2	02VD 02VO 02VC 02MD 02MO 02MC 09RD 02RO	1	0	0.999891996384	-111.0	-319.0	-110	-318	1
2.7	2015_May_06_1728	s	s	3	2	SIC	365	RC	2	2	09VD 02VO 02VC 02MD 02MO 02MC 02RD 02RO	1	0	0.964596033096	153.0	-104.0	163	-103	1
2.7	2015_May_06_1728	s	s	3	2	SIC	366	ABS	0	2	02VD 02VO 02VC 02MD 02MO 02MC 10RD 02RO	0	1	1.95948290825	None	None	None	None	1
2.7	2015_May_06_1728	s	s	3	2	SIC	367	ABS	1	1	02VD 02VO 02VC 02MD 10MO 02MC 02RD 02RO	0	1	2.21223187447	None	None	None	None	1
2.7	2015_May_06_1728	s	s	3	2	SIC	368	RC	1	2	02VD 02VO 02VC 09MD 02MO 02MC 02RD 02RO	1	0	0.782759189606	45.0	300.0	54	298	1
2.7	2015_May_06_1728	s	s	3	2	SIC	369	ABS	2	2	10VD 02VO 02VC 02MD 02MO 02MC 02RD 02RO	1	0	0.988087892532	None	None	-138	-314	0
2.7	2015_May_06_1728	s	s	3	2	SIC	370	ABS	2	1	02VD 10VO 02VC 02MD 02MO 02MC 02RD 02RO	0	1	2.33677101135	None	None	None	None	1
2.7	2015_May_06_1728	s	s	3	2	SIC	371	RC	1	0	02VD 02VO 02VC 02MD 02MO 09MC 02RD 02RO	1	0	0.623152017593	-322.0	133.0	-317	138	1
2.7	2015_May_06_1728	s	s	3	2	SIC	372	ABS	1	2	02VD 02VO 02VC 10MD 02MO 02MC 02RD 02RO	0	1	1.91798400879	None	None	None	None	1
2.7	2015_May_06_1728	s	s	3	2	SIC	373	ABS	0	1	02VD 02VO 02VC 02MD 02MO 02MC 02RD 10RO	0	1	5.59037399292	None	None	None	None	1
2.7	2015_May_06_1728	s	s	3	2	SIC	374	RC	0	2	02VD 02VO 02VC 02MD 02MO 02MC 09RD 02RO	1	0	0.799751996994	-136.0	277.0	-132	277	1
2.7	2015_May_06_1728	s	s	3	2	SIC	375	RC	1	2	02VD 02VO 02VC 09MD 02MO 02MC 02RD 02RO	1	0	0.658502817154	-98.0	124.0	-98	130	1
2.7	2015_May_06_1728	s	s	3	2	SIC	376	RC	2	0	02VD 02VO 09VC 02MD 02MO 02MC 02RD 02RO	1	0	1.62375617027	398.0	-337.0	407	-341	1
2.7	2015_May_06_1728	s	s	3	2	SIC	377	ABS	1	0	02VD 02VO 02VC 02MD 02MO 10MC 02RD 02RO	0	1	3.73440694809	None	None	None	None	1
2.7	2015_May_06_1728	s	s	3	2	SIC	378	ABS	2	0	02VD 02VO 10VC 02MD 02MO 02MC 02RD 02RO	0	1	2.1416490078	None	None	None	None	1
2.7	2015_May_06_1728	s	s	3	2	SIC	379	RC	1	1	02VD 02VO 02VC 02MD 09MO 02MC 02RD 02RO	1	0	2.34543704987	-2.0	209.0	2	210	1
2.7	2015_May_06_1728	s	s	3	2	SIC	380	RC	2	2	09VD 02VO 02VC 02MD 02MO 02MC 02RD 02RO	1	0	3.06364607811	267.0	389.0	272	383	1
2.7	2015_May_06_1728	s	s	3	2	SIC	381	RC	2	1	02VD 09VO 02VC 02MD 02MO 02MC 02RD 02RO	1	0	1.60570979118	176.0	-359.0	179	-360	1
2.7	2015_May_06_1728	s	s	3	2	SIC	382	ABS	1	1	02VD 02VO 02VC 02MD 10MO 02MC 02RD 02RO	1	0	3.53087615967	None	None	-402	-335	0
2.7	2015_May_06_1728	s	s	3	2	SIC	383	ABS	0	2	02VD 02VO 02VC 02MD 02MO 02MC 10RD 02RO	0	1	1.90135383606	None	None	None	None	1
2.7	2015_May_06_1728	s	s	3	2	SIC	384	RC	0	1	02VD 02VO 02VC 02MD 02MO 02MC 02RD 09RO	1	0	1.12294411659	166.0	-20.0	175	-23	1
2.7	2015_May_06_1728	s	s	3	2	SIC	385	ABS	2	2	10VD 02VO 02VC 02MD 02MO 02MC 02RD 02RO	0	1	2.39721512794	None	None	None	None	1
2.7	2015_May_06_1728	s	s	3	2	SIC	386	ABS	0	2	02VD 02VO 02VC 02MD 02MO 02MC 10RD 02RO	0	1	2.33602309227	None	None	None	None	1
2.7	2015_May_06_1728	s	s	3	2	SIC	387	RC	0	2	02VD 02VO 02VC 02MD 02MO 02MC 09RD 02RO	1	0	0.815253019333	-397.0	42.0	-400	33	1
2.7	2015_May_06_1728	s	s	3	2	SIC	388	RC	2	0	02VD 02VO 09VC 02MD 02MO 02MC 02RD 02RO	1	0	1.73330497742	509.0	-271.0	498	-267	1
2.7	2015_May_06_1728	s	s	3	2	SIC	389	ABS	1	2	02VD 02VO 02VC 10MD 02MO 02MC 02RD 02RO	0	1	2.03305912018	None	None	None	None	1
2.7	2015_May_06_1728	s	s	3	2	SIC	390	RC	0	1	02VD 02VO 02VC 02MD 02MO 02MC 02RD 09RO	1	0	3.53695487976	512.0	-159.0	504	-157	1
2.7	2015_May_06_1728	s	s	3	2	SIC	391	ABS	0	1	02VD 02VO 02VC 02MD 02MO 02MC 02RD 10RO	0	1	3.14213705063	None	None	None	None	1
2.7	2015_May_06_1728	s	s	3	2	SIC	392	RC	1	1	02VD 02VO 02VC 02MD 09MO 02MC 02RD 02RO	1	0	2.88318419456	-262.0	-385.0	-255	-380	1
2.7	2015_May_06_1728	s	s	3	2	SIC	393	RC	1	0	02VD 02VO 02VC 02MD 02MO 09MC 02RD 02RO	1	0	0.772603034973	-212.0	-210.0	-210	-209	1
2.7	2015_May_06_1728	s	s	3	2	SIC	394	RC	2	1	02VD 09VO 02VC 02MD 02MO 02MC 02RD 02RO	1	0	0.631731987	-206.0	97.0	-192	105	1
2.7	2015_May_06_1728	s	s	3	2	SIC	395	ABS	2	0	02VD 02VO 10VC 02MD 02MO 02MC 02RD 02RO	0	1	1.92984604836	None	None	None	None	1
2.7	2015_May_06_1728	s	s	3	2	SIC	396	RC	2	2	09VD 02VO 02VC 02MD 02MO 02MC 02RD 02RO	1	0	0.905685186386	45.0	-269.0	43	-271	1
2.7	2015_May_06_1728	s	s	3	2	SIC	397	ABS	1	1	02VD 02VO 02VC 02MD 10MO 02MC 02RD 02RO	0	1	2.83131504059	None	None	None	None	1
2.7	2015_May_06_1728	s	s	3	2	SIC	398	RC	1	2	02VD 02VO 02VC 09MD 02MO 02MC 02RD 02RO	1	0	1.15292310715	-350.0	-358.0	-353	-351	1
2.7	2015_May_06_1728	s	s	3	2	SIC	399	ABS	2	1	02VD 10VO 02VC 02MD 02MO 02MC 02RD 02RO	0	1	1.88812685013	None	None	None	None	1
2.7	2015_May_06_1728	s	s	3	2	SIC	400	ABS	1	0	02VD 02VO 02VC 02MD 02MO 10MC 02RD 02RO	0	1	2.73018693924	None	None	None	None	1
2.7	2015_May_06_1728	s	s	3	2	SIC	401	ABS	2	1	02VD 10VO 02VC 02MD 02MO 02MC 02RD 02RO	0	1	2.36031413078	None	None	None	None	1
2.7	2015_May_06_1728	s	s	3	2	SIC	402	RC	1	2	02VD 02VO 02VC 09MD 02MO 02MC 02RD 02RO	1	0	1.38239002228	-487.0	-226.0	-487	-224	1
2.7	2015_May_06_1728	s	s	3	2	SIC	403	ABS	2	2	10VD 02VO 02VC 02MD 02MO 02MC 02RD 02RO	0	1	2.24465084076	None	None	None	None	1
2.7	2015_May_06_1728	s	s	3	2	SIC	404	RC	2	2	09VD 02VO 02VC 02MD 02MO 02MC 02RD 02RO	1	0	2.63593792915	-150.0	-279.0	-138	-271	1
2.7	2015_May_06_1728	s	s	3	2	SIC	405	ABS	1	0	02VD 02VO 02VC 02MD 02MO 10MC 02RD 02RO	0	1	3.12494206429	None	None	None	None	1
2.7	2015_May_06_1728	s	s	3	2	SIC	406	ABS	0	2	02VD 02VO 02VC 02MD 02MO 02MC 10RD 02RO	0	1	2.79677295685	None	None	None	None	1
2.7	2015_May_06_1728	s	s	3	2	SIC	407	RC	2	1	02VD 09VO 02VC 02MD 02MO 02MC 02RD 02RO	1	0	1.14110589027	-328.0	27.0	-320	24	1
2.7	2015_May_06_1728	s	s	3	2	SIC	408	RC	1	1	02VD 02VO 02VC 02MD 09MO 02MC 02RD 02RO	1	0	5.64644217491	190.0	-110.0	189	-116	1
2.7	2015_May_06_1728	s	s	3	2	SIC	409	RC	0	2	02VD 02VO 02VC 02MD 02MO 02MC 09RD 02RO	1	0	3.16224503517	256.0	244.0	260	251	1
2.7	2015_May_06_1728	s	s	3	2	SIC	410	RC	2	0	02VD 02VO 09VC 02MD 02MO 02MC 02RD 02RO	1	0	2.33004903793	85.0	-69.0	90	-68	1
2.7	2015_May_06_1728	s	s	3	2	SIC	411	ABS	1	1	02VD 02VO 02VC 02MD 10MO 02MC 02RD 02RO	0	1	3.7305290699	None	None	None	None	1
2.7	2015_May_06_1728	s	s	3	2	SIC	412	ABS	1	2	02VD 02VO 02VC 10MD 02MO 02MC 02RD 02RO	0	1	1.62375617027	None	None	None	None	1
2.7	2015_May_06_1728	s	s	3	2	SIC	413	RC	0	1	02VD 02VO 02VC 02MD 02MO 02MC 02RD 09RO	1	0	3.55094790459	351.0	59.0	350	59	1
2.7	2015_May_06_1728	s	s	3	2	SIC	414	RC	1	0	02VD 02VO 02VC 02MD 02MO 09MC 02RD 02RO	1	0	1.46596693993	-468.0	141.0	-462	144	1
2.7	2015_May_06_1728	s	s	3	2	SIC	415	ABS	0	1	02VD 02VO 02VC 02MD 02MO 02MC 02RD 10RO	0	1	4.39652585983	None	None	None	None	1
2.7	2015_May_06_1728	s	s	3	2	SIC	416	ABS	2	0	02VD 02VO 10VC 02MD 02MO 02MC 02RD 02RO	0	1	2.47130298615	None	None	None	None	1
2.7	2015_May_06_1728	s	s	3	2	SIC	417	ABS	1	2	02VD 02VO 02VC 10MD 02MO 02MC 02RD 02RO	0	1	3.03602719307	None	None	None	None	1
2.7	2015_May_06_1728	s	s	3	2	SIC	418	ABS	1	1	02VD 02VO 02VC 02MD 10MO 02MC 02RD 02RO	0	1	3.34899306297	None	None	None	None	1
2.7	2015_May_06_1728	s	s	3	2	SIC	419	ABS	2	1	02VD 10VO 02VC 02MD 02MO 02MC 02RD 02RO	0	1	1.58844208717	None	None	None	None	1
2.7	2015_May_06_1728	s	s	3	2	SIC	420	RC	0	1	02VD 02VO 02VC 02MD 02MO 02MC 02RD 09RO	1	0	1.09406399727	-184.0	282.0	-193	287	1
2.7	2015_May_06_1728	s	s	3	2	SIC	421	RC	1	1	02VD 02VO 02VC 02MD 09MO 02MC 02RD 02RO	1	0	1.90133619308	-284.0	37.0	-284	37	1
2.7	2015_May_06_1728	s	s	3	2	SIC	422	ABS	2	2	10VD 02VO 02VC 02MD 02MO 02MC 02RD 02RO	0	1	3.26672387123	None	None	None	None	1
2.7	2015_May_06_1728	s	s	3	2	SIC	423	ABS	1	0	02VD 02VO 02VC 02MD 02MO 10MC 02RD 02RO	0	1	2.95377588272	None	None	None	None	1
2.7	2015_May_06_1728	s	s	3	2	SIC	424	RC	0	2	02VD 02VO 02VC 02MD 02MO 02MC 09RD 02RO	0	1	3.6692109108	-127.0	216.0	None	None	0
2.7	2015_May_06_1728	s	s	3	2	SIC	425	RC	2	1	02VD 09VO 02VC 02MD 02MO 02MC 02RD 02RO	1	0	1.93577313423	411.0	-106.0	417	-102	1
2.7	2015_May_06_1728	s	s	3	2	SIC	426	ABS	2	0	02VD 02VO 10VC 02MD 02MO 02MC 02RD 02RO	0	1	3.36099290848	None	None	None	None	1
2.7	2015_May_06_1728	s	s	3	2	SIC	427	ABS	0	2	02VD 02VO 02VC 02MD 02MO 02MC 10RD 02RO	0	1	1.98530507088	None	None	None	None	1
2.7	2015_May_06_1728	s	s	3	2	SIC	428	RC	1	2	02VD 02VO 02VC 09MD 02MO 02MC 02RD 02RO	1	0	1.97143912315	2.0	275.0	6	276	1
2.7	2015_May_06_1728	s	s	3	2	SIC	429	RC	1	0	02VD 02VO 02VC 02MD 02MO 09MC 02RD 02RO	1	0	1.62368416786	427.0	-100.0	434	-96	1
2.7	2015_May_06_1728	s	s	3	2	SIC	430	RC	2	0	02VD 02VO 09VC 02MD 02MO 02MC 02RD 02RO	1	0	1.65456295013	445.0	346.0	458	355	1
2.7	2015_May_06_1728	s	s	3	2	SIC	431	ABS	0	1	02VD 02VO 02VC 02MD 02MO 02MC 02RD 10RO	0	1	3.29006195068	None	None	None	None	1
2.7	2015_May_06_1728	s	s	3	2	SIC	432	RC	2	2	09VD 02VO 02VC 02MD 02MO 02MC 02RD 02RO	1	0	2.32994794846	262.0	172.0	261	169	1
2.7	2015_May_06_1728	s	s	3	2	SIC	433	ABS	2	0	02VD 02VO 10VC 02MD 02MO 02MC 02RD 02RO	0	1	2.01959109306	None	None	None	None	1
2.7	2015_May_06_1728	s	s	3	2	SIC	434	RC	1	2	02VD 02VO 02VC 09MD 02MO 02MC 02RD 02RO	1	0	1.95366311073	-365.0	324.0	-360	329	1
2.7	2015_May_06_1728	s	s	3	2	SIC	435	RC	2	0	02VD 02VO 09VC 02MD 02MO 02MC 02RD 02RO	1	0	1.87744092941	129.0	-376.0	124	-380	1
2.7	2015_May_06_1728	s	s	3	2	SIC	436	ABS	0	1	02VD 02VO 02VC 02MD 02MO 02MC 02RD 10RO	0	1	4.13977813721	None	None	None	None	1
2.7	2015_May_06_1728	s	s	3	2	SIC	437	RC	0	1	02VD 02VO 02VC 02MD 02MO 02MC 02RD 09RO	1	0	2.28031206131	424.0	-14.0	424	-11	1
2.7	2015_May_06_1728	s	s	3	2	SIC	438	RC	2	2	09VD 02VO 02VC 02MD 02MO 02MC 02RD 02RO	1	0	1.71307206154	-490.0	80.0	-499	88	1
2.7	2015_May_06_1728	s	s	3	2	SIC	439	RC	0	2	02VD 02VO 02VC 02MD 02MO 02MC 09RD 02RO	1	0	1.51289415359	500.0	-271.0	497	-272	1
2.7	2015_May_06_1728	s	s	3	2	SIC	440	RC	1	1	02VD 02VO 02VC 02MD 09MO 02MC 02RD 02RO	1	0	1.40969204903	40.0	-301.0	42	-301	1
2.7	2015_May_06_1728	s	s	3	2	SIC	441	ABS	0	2	02VD 02VO 02VC 02MD 02MO 02MC 10RD 02RO	0	1	2.5120241642	None	None	None	None	1
2.7	2015_May_06_1728	s	s	3	2	SIC	442	ABS	1	1	02VD 02VO 02VC 02MD 10MO 02MC 02RD 02RO	0	1	3.3834900856	None	None	None	None	1
2.7	2015_May_06_1728	s	s	3	2	SIC	443	ABS	2	1	02VD 10VO 02VC 02MD 02MO 02MC 02RD 02RO	0	1	2.28023505211	None	None	None	None	1
2.7	2015_May_06_1728	s	s	3	2	SIC	444	ABS	2	2	10VD 02VO 02VC 02MD 02MO 02MC 02RD 02RO	0	1	1.61864686012	None	None	None	None	1
2.7	2015_May_06_1728	s	s	3	2	SIC	445	ABS	1	2	02VD 02VO 02VC 10MD 02MO 02MC 02RD 02RO	1	0	1.64742708206	None	None	-524	-199	0
2.7	2015_May_06_1728	s	s	3	2	SIC	446	ABS	1	0	02VD 02VO 02VC 02MD 02MO 10MC 02RD 02RO	0	1	4.0552380085	None	None	None	None	1
2.7	2015_May_06_1728	s	s	3	2	SIC	447	RC	1	0	02VD 02VO 02VC 02MD 02MO 09MC 02RD 02RO	1	0	1.19691801071	165.0	-309.0	178	-304	1
2.7	2015_May_06_1728	s	s	3	2	SIC	448	RC	2	1	02VD 09VO 02VC 02MD 02MO 02MC 02RD 02RO	1	0	1.16024303436	129.0	-231.0	129	-227	1
2.7	2015_May_06_1728	s	s	3	2	SIC	449	ABS	2	1	02VD 10VO 02VC 02MD 02MO 02MC 02RD 02RO	0	1	2.83135199547	None	None	None	None	1
2.7	2015_May_06_1728	s	s	3	2	SIC	450	RC	1	0	02VD 02VO 02VC 02MD 02MO 09MC 02RD 02RO	1	0	1.24709606171	-243.0	-320.0	-239	-316	1
2.7	2015_May_06_1728	s	s	3	2	SIC	451	RC	2	2	09VD 02VO 02VC 02MD 02MO 02MC 02RD 02RO	1	0	0.77104306221	-29.0	118.0	-26	118	1
2.7	2015_May_06_1728	s	s	3	2	SIC	452	RC	2	1	02VD 09VO 02VC 02MD 02MO 02MC 02RD 02RO	1	0	2.98921704292	-261.0	-39.0	-260	-41	1
2.7	2015_May_06_1728	s	s	3	2	SIC	453	RC	1	1	02VD 02VO 02VC 02MD 09MO 02MC 02RD 02RO	1	0	0.629482030869	-262.0	-70.0	-258	-69	1
2.7	2015_May_06_1728	s	s	3	2	SIC	454	ABS	2	2	10VD 02VO 02VC 02MD 02MO 02MC 02RD 02RO	1	0	1.34808397293	None	None	-92	-77	0
2.7	2015_May_06_1728	s	s	3	2	SIC	455	ABS	1	2	02VD 02VO 02VC 10MD 02MO 02MC 02RD 02RO	0	1	2.53733205795	None	None	None	None	1
2.7	2015_May_06_1728	s	s	3	2	SIC	456	ABS	1	0	02VD 02VO 02VC 02MD 02MO 10MC 02RD 02RO	0	1	2.4123737812	None	None	None	None	1
2.7	2015_May_06_1728	s	s	3	2	SIC	457	ABS	2	0	02VD 02VO 10VC 02MD 02MO 02MC 02RD 02RO	0	1	1.5180170536	None	None	None	None	1
2.7	2015_May_06_1728	s	s	3	2	SIC	458	ABS	0	1	02VD 02VO 02VC 02MD 02MO 02MC 02RD 10RO	0	1	3.81867814064	None	None	None	None	1
2.7	2015_May_06_1728	s	s	3	2	SIC	459	ABS	1	1	02VD 02VO 02VC 02MD 10MO 02MC 02RD 02RO	0	1	3.37218213081	None	None	None	None	1
2.7	2015_May_06_1728	s	s	3	2	SIC	460	ABS	0	2	02VD 02VO 02VC 02MD 02MO 02MC 10RD 02RO	0	1	3.53584885597	None	None	None	None	1
2.7	2015_May_06_1728	s	s	3	2	SIC	461	RC	2	0	02VD 02VO 09VC 02MD 02MO 02MC 02RD 02RO	1	0	2.70156693459	496.0	387.0	507	391	1
2.7	2015_May_06_1728	s	s	3	2	SIC	462	RC	1	2	02VD 02VO 02VC 09MD 02MO 02MC 02RD 02RO	1	0	1.56094098091	-33.0	-226.0	-31	-228	1
2.7	2015_May_06_1728	s	s	3	2	SIC	463	RC	0	2	02VD 02VO 02VC 02MD 02MO 02MC 09RD 02RO	1	0	2.26649594307	-467.0	-147.0	-474	-138	1
2.7	2015_May_06_1728	s	s	3	2	SIC	464	RC	0	1	02VD 02VO 02VC 02MD 02MO 02MC 02RD 09RO	1	0	2.02383995056	0.0	-297.0	-5	-290	1
2.7	2015_May_06_1728	s	s	3	2	SIC	465	RC	0	1	02VD 02VO 02VC 02MD 02MO 02MC 02RD 09RO	0	1	4.29564619064	-440.0	159.0	None	None	0
2.7	2015_May_06_1728	s	s	3	2	SIC	466	ABS	1	2	02VD 02VO 02VC 10MD 02MO 02MC 02RD 02RO	0	1	2.38301682472	None	None	None	None	1
2.7	2015_May_06_1728	s	s	3	2	SIC	467	RC	1	2	02VD 02VO 02VC 09MD 02MO 02MC 02RD 02RO	1	0	0.988093137741	135.0	-174.0	131	-177	1
2.7	2015_May_06_1728	s	s	3	2	SIC	468	ABS	1	0	02VD 02VO 02VC 02MD 02MO 10MC 02RD 02RO	0	1	6.11570000648	None	None	None	None	1
2.7	2015_May_06_1728	s	s	3	2	SIC	469	RC	2	0	02VD 02VO 09VC 02MD 02MO 02MC 02RD 02RO	1	0	1.1479818821	-276.0	-171.0	-280	-173	1
2.7	2015_May_06_1728	s	s	3	2	SIC	470	ABS	0	1	02VD 02VO 02VC 02MD 02MO 02MC 02RD 10RO	0	1	5.48458814621	None	None	None	None	1
2.7	2015_May_06_1728	s	s	3	2	SIC	471	ABS	0	2	02VD 02VO 02VC 02MD 02MO 02MC 10RD 02RO	0	1	3.30304002762	None	None	None	None	1
2.7	2015_May_06_1728	s	s	3	2	SIC	472	ABS	2	2	10VD 02VO 02VC 02MD 02MO 02MC 02RD 02RO	0	1	2.00665307045	None	None	None	None	1
2.7	2015_May_06_1728	s	s	3	2	SIC	473	ABS	1	1	02VD 02VO 02VC 02MD 10MO 02MC 02RD 02RO	0	1	3.25713610649	None	None	None	None	1
2.7	2015_May_06_1728	s	s	3	2	SIC	474	RC	0	2	02VD 02VO 02VC 02MD 02MO 02MC 09RD 02RO	1	0	1.03214716911	102.0	31.0	107	29	1
2.7	2015_May_06_1728	s	s	3	2	SIC	475	ABS	2	1	02VD 10VO 02VC 02MD 02MO 02MC 02RD 02RO	0	1	1.80974411964	None	None	None	None	1
2.7	2015_May_06_1728	s	s	3	2	SIC	476	RC	2	1	02VD 09VO 02VC 02MD 02MO 02MC 02RD 02RO	1	0	1.06799983978	244.0	-282.0	239	-288	1
2.7	2015_May_06_1728	s	s	3	2	SIC	477	RC	1	0	02VD 02VO 02VC 02MD 02MO 09MC 02RD 02RO	1	0	1.08214998245	148.0	29.0	156	27	1
2.7	2015_May_06_1728	s	s	3	2	SIC	478	RC	1	1	02VD 02VO 02VC 02MD 09MO 02MC 02RD 02RO	1	0	1.94153380394	428.0	-28.0	441	-25	1
2.7	2015_May_06_1728	s	s	3	2	SIC	479	ABS	2	0	02VD 02VO 10VC 02MD 02MO 02MC 02RD 02RO	0	1	1.81780385971	None	None	None	None	1
2.7	2015_May_06_1728	s	s	3	2	SIC	480	RC	2	2	09VD 02VO 02VC 02MD 02MO 02MC 02RD 02RO	1	0	0.811578989029	249.0	-199.0	246	-197	1
