Version	Date	Stimuli	Method	Subject	Session	Condition	Trial	Target	Channel1	Channel2	Distractors	LMouseButton	RMouseButton	RT	TargetX	TargetY	ResponseX	ResponseY	Correct
2.7	2015_May_08_1606	s	s	3	5	Capacity	1	RC	0	2	15RD 08RO	1	0	1.04272294044	58.0	125.0	63	124	1
2.7	2015_May_08_1606	s	s	3	5	Capacity	2	ABS	0	2	16RD 08RO	0	1	3.48346090317	None	None	None	None	1
2.7	2015_May_08_1606	s	s	3	5	Capacity	3	RC	0	1	08RD 15RO	1	0	1.65901899338	233.0	-86.0	235	-91	1
2.7	2015_May_08_1606	s	s	3	5	Capacity	4	ABS	0	1	08RD 16RO	0	1	3.1494820118	None	None	None	None	1
2.7	2015_May_08_1606	s	s	3	5	Capacity	5	ABS	0	1	08RD 16RO	0	1	2.93736410141	None	None	None	None	1
2.7	2015_May_08_1606	s	s	3	5	Capacity	6	RC	0	1	08RD 15RO	1	0	1.57172608376	-399.0	-86.0	-390	-81	1
2.7	2015_May_08_1606	s	s	3	5	Capacity	7	RC	0	2	15RD 08RO	1	0	2.48290586472	268.0	333.0	268	339	1
2.7	2015_May_08_1606	s	s	3	5	Capacity	8	ABS	0	2	16RD 08RO	0	1	2.36526989937	None	None	None	None	1
2.7	2015_May_08_1606	s	s	3	5	Capacity	9	RC	0	1	08RD 15RO	1	0	2.93026709557	26.0	285.0	25	293	1
2.7	2015_May_08_1606	s	s	3	5	Capacity	10	ABS	0	1	08RD 16RO	0	1	3.57741808891	None	None	None	None	1
2.7	2015_May_08_1606	s	s	3	5	Capacity	11	ABS	0	2	16RD 08RO	0	1	2.5512881279	None	None	None	None	1
2.7	2015_May_08_1606	s	s	3	5	Capacity	12	RC	0	2	15RD 08RO	1	0	1.12940406799	251.0	156.0	260	154	1
2.7	2015_May_08_1606	s	s	3	5	Capacity	13	RC	0	2	15RD 08RO	0	1	1.9129421711	312.0	-411.0	None	None	0
2.7	2015_May_08_1606	s	s	3	5	Capacity	14	ABS	0	2	16RD 08RO	0	1	3.18111205101	None	None	None	None	1
2.7	2015_May_08_1606	s	s	3	5	Capacity	15	ABS	0	1	08RD 16RO	0	1	2.66603899002	None	None	None	None	1
2.7	2015_May_08_1606	s	s	3	5	Capacity	16	RC	0	1	08RD 15RO	1	0	1.60640621185	12.0	-197.0	10	-196	1
2.7	2015_May_08_1606	s	s	3	5	Capacity	17	ABS	0	1	08RD 16RO	0	1	3.86006999016	None	None	None	None	1
2.7	2015_May_08_1606	s	s	3	5	Capacity	18	RC	0	1	08RD 15RO	1	0	1.125882864	-490.0	-85.0	-487	-86	1
2.7	2015_May_08_1606	s	s	3	5	Capacity	19	ABS	0	2	16RD 08RO	0	1	4.0955388546	None	None	None	None	1
2.7	2015_May_08_1606	s	s	3	5	Capacity	20	RC	0	2	15RD 08RO	1	0	0.868202924728	-305.0	402.0	-299	404	1
2.7	2015_May_08_1606	s	s	3	5	Capacity	21	RC	0	2	15RD 08RO	1	0	1.58561897278	143.0	354.0	146	361	1
2.7	2015_May_08_1606	s	s	3	5	Capacity	22	ABS	0	2	16RD 08RO	0	1	2.12719511986	None	None	None	None	1
2.7	2015_May_08_1606	s	s	3	5	Capacity	23	RC	0	1	08RD 15RO	1	0	2.33681297302	259.0	-134.0	258	-130	1
2.7	2015_May_08_1606	s	s	3	5	Capacity	24	ABS	0	1	08RD 16RO	0	1	3.50401091576	None	None	None	None	1
2.7	2015_May_08_1606	s	s	3	5	Capacity	25	ABS	0	1	08RD 16RO	0	1	3.30687689781	None	None	None	None	1
2.7	2015_May_08_1606	s	s	3	5	Capacity	26	RC	0	1	08RD 15RO	1	0	2.57722783089	156.0	-232.0	152	-229	1
2.7	2015_May_08_1606	s	s	3	5	Capacity	27	ABS	0	2	16RD 08RO	0	1	2.7717499733	None	None	None	None	1
2.7	2015_May_08_1606	s	s	3	5	Capacity	28	RC	0	2	15RD 08RO	1	0	0.937551021576	198.0	-101.0	189	-94	1
2.7	2015_May_08_1606	s	s	3	5	Capacity	29	ABS	0	1	08RD 16RO	0	1	3.74287796021	None	None	None	None	1
2.7	2015_May_08_1606	s	s	3	5	Capacity	30	RC	0	1	08RD 15RO	1	0	1.43578910828	-165.0	-325.0	-162	-338	1
2.7	2015_May_08_1606	s	s	3	5	Capacity	31	ABS	0	2	16RD 08RO	0	1	2.62165403366	None	None	None	None	1
2.7	2015_May_08_1606	s	s	3	5	Capacity	32	RC	0	2	15RD 08RO	1	0	1.82123589516	456.0	175.0	461	176	1
2.7	2015_May_08_1606	s	s	3	5	Capacity	33	RC	0	1	08RD 15RO	1	0	1.69441986084	431.0	246.0	441	255	1
2.7	2015_May_08_1606	s	s	3	5	Capacity	34	ABS	0	2	16RD 08RO	0	1	2.53016996384	None	None	None	None	1
2.7	2015_May_08_1606	s	s	3	5	Capacity	35	RC	0	2	15RD 08RO	1	0	2.85962200165	322.0	-313.0	320	-318	1
2.7	2015_May_08_1606	s	s	3	5	Capacity	36	ABS	0	1	08RD 16RO	0	1	4.12799477577	None	None	None	None	1
2.7	2015_May_08_1606	s	s	3	5	Capacity	37	RC	0	1	08RD 15RO	1	0	1.00870990753	-102.0	188.0	-105	186	1
2.7	2015_May_08_1606	s	s	3	5	Capacity	38	ABS	0	1	08RD 16RO	0	1	3.46359014511	None	None	None	None	1
2.7	2015_May_08_1606	s	s	3	5	Capacity	39	RC	0	2	15RD 08RO	1	0	1.30000495911	182.0	-262.0	176	-258	1
2.7	2015_May_08_1606	s	s	3	5	Capacity	40	ABS	0	2	16RD 08RO	0	1	2.859593153	None	None	None	None	1
2.7	2015_May_08_1606	s	s	3	5	Capacity	41	ABS	0	1	08RD 16RO	0	1	3.97788596153	None	None	None	None	1
2.7	2015_May_08_1606	s	s	3	5	Capacity	42	ABS	0	2	16RD 08RO	0	1	2.8007569313	None	None	None	None	1
2.7	2015_May_08_1606	s	s	3	5	Capacity	43	RC	0	1	08RD 15RO	1	0	1.49428510666	350.0	356.0	357	352	1
2.7	2015_May_08_1606	s	s	3	5	Capacity	44	RC	0	2	15RD 08RO	1	0	0.517250061035	-314.0	12.0	-311	19	1
2.7	2015_May_08_1606	s	s	3	5	Capacity	45	ABS	0	1	08RD 16RO	0	1	4.04846906662	None	None	None	None	1
2.7	2015_May_08_1606	s	s	3	5	Capacity	46	RC	0	2	15RD 08RO	0	1	1.8120701313	274.0	290.0	None	None	0
2.7	2015_May_08_1606	s	s	3	5	Capacity	47	ABS	0	2	16RD 08RO	0	1	2.47683405876	None	None	None	None	1
2.7	2015_May_08_1606	s	s	3	5	Capacity	48	RC	0	1	08RD 15RO	1	0	0.917481899261	-330.0	-42.0	-327	-48	1
2.7	2015_May_08_1606	s	s	3	5	Capacity	49	ABS	0	1	08RD 16RO	0	1	2.66870594025	None	None	None	None	1
2.7	2015_May_08_1606	s	s	3	5	Capacity	50	RC	0	1	08RD 15RO	1	0	2.46599912643	449.0	325.0	440	323	1
2.7	2015_May_08_1606	s	s	3	5	Capacity	51	RC	0	2	15RD 08RO	0	1	2.15361189842	-484.0	-300.0	None	None	0
2.7	2015_May_08_1606	s	s	3	5	Capacity	52	ABS	0	2	16RD 08RO	0	1	2.71837878227	None	None	None	None	1
2.7	2015_May_08_1606	s	s	3	5	Capacity	53	RC	0	2	15RD 08RO	1	0	0.947855949402	-410.0	394.0	-407	399	1
2.7	2015_May_08_1606	s	s	3	5	Capacity	54	ABS	0	1	08RD 16RO	0	1	3.0125670433	None	None	None	None	1
2.7	2015_May_08_1606	s	s	3	5	Capacity	55	RC	0	1	08RD 15RO	1	0	2.28297710419	212.0	262.0	213	264	1
2.7	2015_May_08_1606	s	s	3	5	Capacity	56	ABS	0	2	16RD 08RO	0	1	2.28272294998	None	None	None	None	1
2.7	2015_May_08_1606	s	s	3	5	Capacity	57	ABS	0	1	08RD 16RO	0	1	3.88028502464	None	None	None	None	1
2.7	2015_May_08_1606	s	s	3	5	Capacity	58	RC	0	2	15RD 08RO	1	0	1.05901503563	-125.0	137.0	-133	142	1
2.7	2015_May_08_1606	s	s	3	5	Capacity	59	RC	0	1	08RD 15RO	1	0	1.68244600296	-539.0	196.0	-538	200	1
2.7	2015_May_08_1606	s	s	3	5	Capacity	60	ABS	0	2	16RD 08RO	0	1	2.153236866	None	None	None	None	1
2.7	2015_May_08_1606	s	s	3	5	Capacity	61	RC	0	2	15RD 08RO	1	0	1.6433339119	138.0	129.0	137	133	1
2.7	2015_May_08_1606	s	s	3	5	Capacity	62	ABS	0	1	08RD 16RO	0	1	3.87189817429	None	None	None	None	1
2.7	2015_May_08_1606	s	s	3	5	Capacity	63	ABS	0	2	16RD 08RO	0	1	1.50600409508	None	None	None	None	1
2.7	2015_May_08_1606	s	s	3	5	Capacity	64	RC	0	1	08RD 15RO	0	1	2.60073399544	118.0	-88.0	None	None	0
2.7	2015_May_08_1606	s	s	3	5	Capacity	1	ABS	1	0	08VC 16MC	0	1	1.25339889526	None	None	None	None	1
2.7	2015_May_08_1606	s	s	3	5	Capacity	2	ABS	2	0	16VC 08MC	0	1	1.29786419868	None	None	None	None	1
2.7	2015_May_08_1606	s	s	3	5	Capacity	3	RC	1	0	08VC 15MC	1	0	0.655957937241	58.0	-222.0	58	-216	1
2.7	2015_May_08_1606	s	s	3	5	Capacity	4	RC	2	0	15VC 08MC	1	0	0.587918043137	-364.0	-203.0	-367	-207	1
2.7	2015_May_08_1606	s	s	3	5	Capacity	5	ABS	2	0	16VC 08MC	0	1	1.5648419857	None	None	None	None	1
2.7	2015_May_08_1606	s	s	3	5	Capacity	6	ABS	1	0	08VC 16MC	0	1	2.50121116638	None	None	None	None	1
2.7	2015_May_08_1606	s	s	3	5	Capacity	7	RC	1	0	08VC 15MC	1	0	0.819073915482	451.0	-53.0	444	-48	1
2.7	2015_May_08_1606	s	s	3	5	Capacity	8	RC	2	0	15VC 08MC	1	0	0.505463123322	363.0	261.0	368	265	1
2.7	2015_May_08_1606	s	s	3	5	Capacity	9	ABS	2	0	16VC 08MC	0	1	1.44152998924	None	None	None	None	1
2.7	2015_May_08_1606	s	s	3	5	Capacity	10	ABS	1	0	08VC 16MC	0	1	1.78312683105	None	None	None	None	1
2.7	2015_May_08_1606	s	s	3	5	Capacity	11	RC	1	0	08VC 15MC	1	0	0.523500919342	190.0	-18.0	182	-15	1
2.7	2015_May_08_1606	s	s	3	5	Capacity	12	RC	2	0	15VC 08MC	1	0	0.976345062256	-450.0	57.0	-457	61	1
2.7	2015_May_08_1606	s	s	3	5	Capacity	13	ABS	1	0	08VC 16MC	0	1	1.1528429985	None	None	None	None	1
2.7	2015_May_08_1606	s	s	3	5	Capacity	14	ABS	2	0	16VC 08MC	0	1	1.43544983864	None	None	None	None	1
2.7	2015_May_08_1606	s	s	3	5	Capacity	15	RC	1	0	08VC 15MC	1	0	0.853609800339	-26.0	-395.0	-29	-397	1
2.7	2015_May_08_1606	s	s	3	5	Capacity	16	RC	2	0	15VC 08MC	1	0	0.623165130615	197.0	112.0	195	120	1
2.7	2015_May_08_1606	s	s	3	5	Capacity	17	ABS	2	0	16VC 08MC	0	1	1.1594080925	None	None	None	None	1
2.7	2015_May_08_1606	s	s	3	5	Capacity	18	RC	2	0	15VC 08MC	1	0	0.665126085281	-465.0	214.0	-454	217	1
2.7	2015_May_08_1606	s	s	3	5	Capacity	19	ABS	1	0	08VC 16MC	0	1	1.14120912552	None	None	None	None	1
2.7	2015_May_08_1606	s	s	3	5	Capacity	20	RC	1	0	08VC 15MC	1	0	0.831437110901	454.0	44.0	450	44	1
2.7	2015_May_08_1606	s	s	3	5	Capacity	21	ABS	1	0	08VC 16MC	0	1	1.03253602982	None	None	None	None	1
2.7	2015_May_08_1606	s	s	3	5	Capacity	22	RC	2	0	15VC 08MC	1	0	0.481909036636	-62.0	31.0	-53	40	1
2.7	2015_May_08_1606	s	s	3	5	Capacity	23	RC	1	0	08VC 15MC	1	0	0.474031925201	-383.0	-49.0	-384	-52	1
2.7	2015_May_08_1606	s	s	3	5	Capacity	24	ABS	2	0	16VC 08MC	0	1	0.759806871414	None	None	None	None	1
2.7	2015_May_08_1606	s	s	3	5	Capacity	25	ABS	2	0	16VC 08MC	0	1	0.923377037048	None	None	None	None	1
2.7	2015_May_08_1606	s	s	3	5	Capacity	26	RC	2	0	15VC 08MC	1	0	0.434945106506	240.0	-216.0	238	-210	1
2.7	2015_May_08_1606	s	s	3	5	Capacity	27	ABS	1	0	08VC 16MC	0	1	0.888411998749	None	None	None	None	1
2.7	2015_May_08_1606	s	s	3	5	Capacity	28	RC	1	0	08VC 15MC	1	0	0.805786848068	-65.0	-206.0	-62	-210	1
2.7	2015_May_08_1606	s	s	3	5	Capacity	29	RC	2	0	15VC 08MC	0	1	0.670256137848	410.0	387.0	None	None	0
2.7	2015_May_08_1606	s	s	3	5	Capacity	30	ABS	1	0	08VC 16MC	0	1	1.32642698288	None	None	None	None	1
2.7	2015_May_08_1606	s	s	3	5	Capacity	31	RC	1	0	08VC 15MC	1	0	0.477126836777	-166.0	166.0	-170	169	1
2.7	2015_May_08_1606	s	s	3	5	Capacity	32	ABS	2	0	16VC 08MC	0	1	0.999886989594	None	None	None	None	1
2.7	2015_May_08_1606	s	s	3	5	Capacity	33	ABS	2	0	16VC 08MC	0	1	0.960992097855	None	None	None	None	1
2.7	2015_May_08_1606	s	s	3	5	Capacity	34	ABS	1	0	08VC 16MC	0	1	0.847087144852	None	None	None	None	1
2.7	2015_May_08_1606	s	s	3	5	Capacity	35	RC	2	0	15VC 08MC	1	0	0.611802816391	-404.0	63.0	-404	65	1
2.7	2015_May_08_1606	s	s	3	5	Capacity	36	RC	1	0	08VC 15MC	1	0	0.686022996902	-341.0	-388.0	-346	-388	1
2.7	2015_May_08_1606	s	s	3	5	Capacity	37	ABS	1	0	08VC 16MC	0	1	1.17651891708	None	None	None	None	1
2.7	2015_May_08_1606	s	s	3	5	Capacity	38	RC	1	0	08VC 15MC	1	0	0.73689699173	390.0	24.0	391	24	1
2.7	2015_May_08_1606	s	s	3	5	Capacity	39	RC	2	0	15VC 08MC	1	0	0.491068840027	-170.0	353.0	-159	361	1
2.7	2015_May_08_1606	s	s	3	5	Capacity	40	ABS	2	0	16VC 08MC	0	1	0.736577033997	None	None	None	None	1
2.7	2015_May_08_1606	s	s	3	5	Capacity	41	ABS	1	0	08VC 16MC	0	1	1.02342796326	None	None	None	None	1
2.7	2015_May_08_1606	s	s	3	5	Capacity	42	ABS	2	0	16VC 08MC	0	1	0.646594047546	None	None	None	None	1
2.7	2015_May_08_1606	s	s	3	5	Capacity	43	RC	1	0	08VC 15MC	1	0	0.498054027557	167.0	-108.0	160	-111	1
2.7	2015_May_08_1606	s	s	3	5	Capacity	44	RC	2	0	15VC 08MC	1	0	0.573673963547	-419.0	-351.0	-412	-346	1
2.7	2015_May_08_1606	s	s	3	5	Capacity	45	ABS	1	0	08VC 16MC	0	1	0.838813066483	None	None	None	None	1
2.7	2015_May_08_1606	s	s	3	5	Capacity	46	RC	2	0	15VC 08MC	1	0	0.735855102539	-402.0	-387.0	-413	-383	1
2.7	2015_May_08_1606	s	s	3	5	Capacity	47	RC	1	0	08VC 15MC	1	0	0.682089090347	280.0	261.0	283	262	1
2.7	2015_May_08_1606	s	s	3	5	Capacity	48	ABS	2	0	16VC 08MC	1	0	0.811536073685	None	None	74	43	0
2.7	2015_May_08_1606	s	s	3	5	Capacity	49	RC	2	0	15VC 08MC	1	0	0.547779083252	90.0	137.0	94	127	1
2.7	2015_May_08_1606	s	s	3	5	Capacity	50	ABS	1	0	08VC 16MC	0	1	0.76438498497	None	None	None	None	1
2.7	2015_May_08_1606	s	s	3	5	Capacity	51	RC	1	0	08VC 15MC	1	0	0.654922008514	199.0	269.0	205	260	1
2.7	2015_May_08_1606	s	s	3	5	Capacity	52	ABS	2	0	16VC 08MC	0	1	0.855201005936	None	None	None	None	1
2.7	2015_May_08_1606	s	s	3	5	Capacity	53	ABS	2	0	16VC 08MC	0	1	0.617174863815	None	None	None	None	1
2.7	2015_May_08_1606	s	s	3	5	Capacity	54	RC	1	0	08VC 15MC	1	0	0.47700715065	228.0	135.0	233	141	1
2.7	2015_May_08_1606	s	s	3	5	Capacity	55	RC	2	0	15VC 08MC	1	0	0.846887111664	188.0	-349.0	190	-340	1
2.7	2015_May_08_1606	s	s	3	5	Capacity	56	ABS	1	0	08VC 16MC	0	1	0.864479064941	None	None	None	None	1
2.7	2015_May_08_1606	s	s	3	5	Capacity	57	RC	1	0	08VC 15MC	0	1	0.841019153595	38.0	407.0	None	None	0
2.7	2015_May_08_1606	s	s	3	5	Capacity	58	ABS	2	0	16VC 08MC	0	1	0.846856832504	None	None	None	None	1
2.7	2015_May_08_1606	s	s	3	5	Capacity	59	ABS	1	0	08VC 16MC	0	1	0.700021028519	None	None	None	None	1
2.7	2015_May_08_1606	s	s	3	5	Capacity	60	RC	2	0	15VC 08MC	1	0	1.38546991348	213.0	266.0	209	268	1
2.7	2015_May_08_1606	s	s	3	5	Capacity	61	ABS	1	0	08VC 16MC	0	1	1.01863694191	None	None	None	None	1
2.7	2015_May_08_1606	s	s	3	5	Capacity	62	RC	1	0	08VC 15MC	1	0	0.805639028549	5.0	-146.0	6	-147	1
2.7	2015_May_08_1606	s	s	3	5	Capacity	63	RC	2	0	15VC 08MC	1	0	0.735256195068	-514.0	-104.0	-516	-103	1
2.7	2015_May_08_1606	s	s	3	5	Capacity	64	ABS	2	0	16VC 08MC	0	1	1.50606012344	None	None	None	None	1
2.7	2015_May_08_1606	s	s	3	5	SIC	1	RC	2	0	02VD 02VO 09VC 02MD 02MO 02MC 02RD 02RO	1	0	1.12441396713	-303.0	32.0	-305	38	1
2.7	2015_May_08_1606	s	s	3	5	SIC	2	ABS	2	0	02VD 02VO 10VC 02MD 02MO 02MC 02RD 02RO	0	1	1.51767802238	None	None	None	None	1
2.7	2015_May_08_1606	s	s	3	5	SIC	3	ABS	2	2	10VD 02VO 02VC 02MD 02MO 02MC 02RD 02RO	0	1	1.49422097206	None	None	None	None	1
2.7	2015_May_08_1606	s	s	3	5	SIC	4	RC	0	2	02VD 02VO 02VC 02MD 02MO 02MC 09RD 02RO	1	0	1.01162004471	-40.0	-158.0	-41	-155	1
2.7	2015_May_08_1606	s	s	3	5	SIC	5	ABS	1	0	02VD 02VO 02VC 02MD 02MO 10MC 02RD 02RO	0	1	2.60913705826	None	None	None	None	1
2.7	2015_May_08_1606	s	s	3	5	SIC	6	ABS	0	1	02VD 02VO 02VC 02MD 02MO 02MC 02RD 10RO	0	1	2.86845993996	None	None	None	None	1
2.7	2015_May_08_1606	s	s	3	5	SIC	7	ABS	2	1	02VD 10VO 02VC 02MD 02MO 02MC 02RD 02RO	0	1	1.55297207832	None	None	None	None	1
2.7	2015_May_08_1606	s	s	3	5	SIC	8	ABS	1	2	02VD 02VO 02VC 10MD 02MO 02MC 02RD 02RO	0	1	1.79512310028	None	None	None	None	1
2.7	2015_May_08_1606	s	s	3	5	SIC	9	RC	1	2	02VD 02VO 02VC 09MD 02MO 02MC 02RD 02RO	1	0	1.49046707153	-519.0	-394.0	-508	-387	1
2.7	2015_May_08_1606	s	s	3	5	SIC	10	RC	2	1	02VD 09VO 02VC 02MD 02MO 02MC 02RD 02RO	1	0	0.662194013596	-431.0	28.0	-434	30	1
2.7	2015_May_08_1606	s	s	3	5	SIC	11	RC	1	0	02VD 02VO 02VC 02MD 02MO 09MC 02RD 02RO	1	0	2.76538991928	-112.0	-258.0	-107	-261	1
2.7	2015_May_08_1606	s	s	3	5	SIC	12	RC	1	1	02VD 02VO 02VC 02MD 09MO 02MC 02RD 02RO	1	0	2.14811301231	463.0	-175.0	458	-179	1
2.7	2015_May_08_1606	s	s	3	5	SIC	13	ABS	1	1	02VD 02VO 02VC 02MD 10MO 02MC 02RD 02RO	0	1	2.51813197136	None	None	None	None	1
2.7	2015_May_08_1606	s	s	3	5	SIC	14	RC	2	2	09VD 02VO 02VC 02MD 02MO 02MC 02RD 02RO	1	0	0.688652992249	-15.0	249.0	-17	251	1
2.7	2015_May_08_1606	s	s	3	5	SIC	15	ABS	0	2	02VD 02VO 02VC 02MD 02MO 02MC 10RD 02RO	0	1	1.29778695107	None	None	None	None	1
2.7	2015_May_08_1606	s	s	3	5	SIC	16	RC	0	1	02VD 02VO 02VC 02MD 02MO 02MC 02RD 09RO	1	0	3.11863493919	214.0	45.0	203	45	1
2.7	2015_May_08_1606	s	s	3	5	SIC	17	RC	2	2	09VD 02VO 02VC 02MD 02MO 02MC 02RD 02RO	1	0	0.528929233551	-91.0	41.0	-98	38	1
2.7	2015_May_08_1606	s	s	3	5	SIC	18	RC	0	2	02VD 02VO 02VC 02MD 02MO 02MC 09RD 02RO	1	0	1.19732403755	-429.0	291.0	-421	297	1
2.7	2015_May_08_1606	s	s	3	5	SIC	19	RC	1	0	02VD 02VO 02VC 02MD 02MO 09MC 02RD 02RO	1	0	1.27986598015	538.0	63.0	547	65	1
2.7	2015_May_08_1606	s	s	3	5	SIC	20	ABS	2	1	02VD 10VO 02VC 02MD 02MO 02MC 02RD 02RO	0	1	1.3858320713	None	None	None	None	1
2.7	2015_May_08_1606	s	s	3	5	SIC	21	RC	0	1	02VD 02VO 02VC 02MD 02MO 02MC 02RD 09RO	1	0	1.36469888687	283.0	347.0	288	356	1
2.7	2015_May_08_1606	s	s	3	5	SIC	22	RC	1	2	02VD 02VO 02VC 09MD 02MO 02MC 02RD 02RO	1	0	0.634944200516	-377.0	-135.0	-388	-134	1
2.7	2015_May_08_1606	s	s	3	5	SIC	23	ABS	2	2	10VD 02VO 02VC 02MD 02MO 02MC 02RD 02RO	0	1	1.50602602959	None	None	None	None	1
2.7	2015_May_08_1606	s	s	3	5	SIC	24	ABS	1	2	02VD 02VO 02VC 10MD 02MO 02MC 02RD 02RO	0	1	1.15291404724	None	None	None	None	1
2.7	2015_May_08_1606	s	s	3	5	SIC	25	ABS	2	0	02VD 02VO 10VC 02MD 02MO 02MC 02RD 02RO	0	1	1.38824892044	None	None	None	None	1
2.7	2015_May_08_1606	s	s	3	5	SIC	26	ABS	1	1	02VD 02VO 02VC 02MD 10MO 02MC 02RD 02RO	0	1	1.87724399567	None	None	None	None	1
2.7	2015_May_08_1606	s	s	3	5	SIC	27	ABS	1	0	02VD 02VO 02VC 02MD 02MO 10MC 02RD 02RO	0	1	2.85408091545	None	None	None	None	1
2.7	2015_May_08_1606	s	s	3	5	SIC	28	RC	1	1	02VD 02VO 02VC 02MD 09MO 02MC 02RD 02RO	1	0	1.0306251049	-60.0	360.0	-62	367	1
2.7	2015_May_08_1606	s	s	3	5	SIC	29	ABS	0	1	02VD 02VO 02VC 02MD 02MO 02MC 02RD 10RO	0	1	3.05669593811	None	None	None	None	1
2.7	2015_May_08_1606	s	s	3	5	SIC	30	RC	2	0	02VD 02VO 09VC 02MD 02MO 02MC 02RD 02RO	1	0	1.37654805183	40.0	-281.0	46	-281	1
2.7	2015_May_08_1606	s	s	3	5	SIC	31	ABS	0	2	02VD 02VO 02VC 02MD 02MO 02MC 10RD 02RO	0	1	1.84736800194	None	None	None	None	1
2.7	2015_May_08_1606	s	s	3	5	SIC	32	RC	2	1	02VD 09VO 02VC 02MD 02MO 02MC 02RD 02RO	1	0	1.44142413139	-179.0	-330.0	-180	-333	1
2.7	2015_May_08_1606	s	s	3	5	SIC	33	ABS	1	0	02VD 02VO 02VC 02MD 02MO 10MC 02RD 02RO	0	1	1.65387392044	None	None	None	None	1
2.7	2015_May_08_1606	s	s	3	5	SIC	34	RC	0	1	02VD 02VO 02VC 02MD 02MO 02MC 02RD 09RO	1	0	2.16929316521	125.0	-62.0	132	-60	1
2.7	2015_May_08_1606	s	s	3	5	SIC	35	ABS	0	2	02VD 02VO 02VC 02MD 02MO 02MC 10RD 02RO	0	1	2.00036811829	None	None	None	None	1
2.7	2015_May_08_1606	s	s	3	5	SIC	36	RC	1	2	02VD 02VO 02VC 09MD 02MO 02MC 02RD 02RO	1	0	0.576164960861	41.0	68.0	38	62	1
2.7	2015_May_08_1606	s	s	3	5	SIC	37	ABS	1	1	02VD 02VO 02VC 02MD 10MO 02MC 02RD 02RO	0	1	2.20043492317	None	None	None	None	1
2.7	2015_May_08_1606	s	s	3	5	SIC	38	ABS	2	2	10VD 02VO 02VC 02MD 02MO 02MC 02RD 02RO	0	1	1.94152283669	None	None	None	None	1
2.7	2015_May_08_1606	s	s	3	5	SIC	39	ABS	2	1	02VD 10VO 02VC 02MD 02MO 02MC 02RD 02RO	0	1	1.21175193787	None	None	None	None	1
2.7	2015_May_08_1606	s	s	3	5	SIC	40	RC	1	0	02VD 02VO 02VC 02MD 02MO 09MC 02RD 02RO	1	0	1.25153779984	456.0	-357.0	466	-357	1
2.7	2015_May_08_1606	s	s	3	5	SIC	41	RC	0	2	02VD 02VO 02VC 02MD 02MO 02MC 09RD 02RO	1	0	1.3734498024	142.0	-372.0	135	-372	1
2.7	2015_May_08_1606	s	s	3	5	SIC	42	RC	2	1	02VD 09VO 02VC 02MD 02MO 02MC 02RD 02RO	1	0	0.66986989975	-429.0	94.0	-428	93	1
2.7	2015_May_08_1606	s	s	3	5	SIC	43	RC	2	2	09VD 02VO 02VC 02MD 02MO 02MC 02RD 02RO	1	0	0.940885066986	52.0	384.0	57	388	1
2.7	2015_May_08_1606	s	s	3	5	SIC	44	ABS	0	1	02VD 02VO 02VC 02MD 02MO 02MC 02RD 10RO	0	1	3.0477001667	None	None	None	None	1
2.7	2015_May_08_1606	s	s	3	5	SIC	45	ABS	1	2	02VD 02VO 02VC 10MD 02MO 02MC 02RD 02RO	0	1	2.25922489166	None	None	None	None	1
2.7	2015_May_08_1606	s	s	3	5	SIC	46	RC	1	1	02VD 02VO 02VC 02MD 09MO 02MC 02RD 02RO	1	0	0.646745204926	-43.0	238.0	-43	236	1
2.7	2015_May_08_1606	s	s	3	5	SIC	47	ABS	2	0	02VD 02VO 10VC 02MD 02MO 02MC 02RD 02RO	0	1	1.85593891144	None	None	None	None	1
2.7	2015_May_08_1606	s	s	3	5	SIC	48	RC	2	0	02VD 02VO 09VC 02MD 02MO 02MC 02RD 02RO	1	0	0.906204223633	-228.0	-230.0	-221	-224	1
2.7	2015_May_08_1606	s	s	3	5	SIC	49	ABS	0	2	02VD 02VO 02VC 02MD 02MO 02MC 10RD 02RO	0	1	1.74823999405	None	None	None	None	1
2.7	2015_May_08_1606	s	s	3	5	SIC	50	RC	2	2	09VD 02VO 02VC 02MD 02MO 02MC 02RD 02RO	1	0	0.964567899704	321.0	-112.0	325	-125	1
2.7	2015_May_08_1606	s	s	3	5	SIC	51	ABS	1	2	02VD 02VO 02VC 10MD 02MO 02MC 02RD 02RO	0	1	1.611951828	None	None	None	None	1
2.7	2015_May_08_1606	s	s	3	5	SIC	52	ABS	2	0	02VD 02VO 10VC 02MD 02MO 02MC 02RD 02RO	0	1	1.52449917793	None	None	None	None	1
2.7	2015_May_08_1606	s	s	3	5	SIC	53	ABS	1	0	02VD 02VO 02VC 02MD 02MO 10MC 02RD 02RO	0	1	2.07104086876	None	None	None	None	1
2.7	2015_May_08_1606	s	s	3	5	SIC	54	RC	0	1	02VD 02VO 02VC 02MD 02MO 02MC 02RD 09RO	1	0	2.55359721184	373.0	254.0	374	259	1
2.7	2015_May_08_1606	s	s	3	5	SIC	55	ABS	2	1	02VD 10VO 02VC 02MD 02MO 02MC 02RD 02RO	0	1	1.22730302811	None	None	None	None	1
2.7	2015_May_08_1606	s	s	3	5	SIC	56	RC	2	1	02VD 09VO 02VC 02MD 02MO 02MC 02RD 02RO	1	0	0.806186199188	-229.0	-205.0	-232	-212	1
2.7	2015_May_08_1606	s	s	3	5	SIC	57	RC	1	1	02VD 02VO 02VC 02MD 09MO 02MC 02RD 02RO	1	0	0.95273399353	248.0	-133.0	250	-131	1
2.7	2015_May_08_1606	s	s	3	5	SIC	58	RC	0	2	02VD 02VO 02VC 02MD 02MO 02MC 09RD 02RO	1	0	1.27757692337	-231.0	266.0	-238	270	1
2.7	2015_May_08_1606	s	s	3	5	SIC	59	RC	1	0	02VD 02VO 02VC 02MD 02MO 09MC 02RD 02RO	1	0	0.764755010605	-163.0	359.0	-161	356	1
2.7	2015_May_08_1606	s	s	3	5	SIC	60	ABS	0	1	02VD 02VO 02VC 02MD 02MO 02MC 02RD 10RO	0	1	2.77708315849	None	None	None	None	1
2.7	2015_May_08_1606	s	s	3	5	SIC	61	ABS	2	2	10VD 02VO 02VC 02MD 02MO 02MC 02RD 02RO	0	1	1.71773600578	None	None	None	None	1
2.7	2015_May_08_1606	s	s	3	5	SIC	62	RC	2	0	02VD 02VO 09VC 02MD 02MO 02MC 02RD 02RO	1	0	1.18338394165	-164.0	-169.0	-155	-162	1
2.7	2015_May_08_1606	s	s	3	5	SIC	63	ABS	1	1	02VD 02VO 02VC 02MD 10MO 02MC 02RD 02RO	0	1	2.73829007149	None	None	None	None	1
2.7	2015_May_08_1606	s	s	3	5	SIC	64	RC	1	2	02VD 02VO 02VC 09MD 02MO 02MC 02RD 02RO	1	0	1.21170210838	296.0	385.0	300	388	1
2.7	2015_May_08_1606	s	s	3	5	SIC	65	ABS	2	1	02VD 10VO 02VC 02MD 02MO 02MC 02RD 02RO	0	1	1.16042804718	None	None	None	None	1
2.7	2015_May_08_1606	s	s	3	5	SIC	66	RC	2	2	09VD 02VO 02VC 02MD 02MO 02MC 02RD 02RO	1	0	0.893889188766	55.0	242.0	51	243	1
2.7	2015_May_08_1606	s	s	3	5	SIC	67	ABS	1	2	02VD 02VO 02VC 10MD 02MO 02MC 02RD 02RO	0	1	2.08986997604	None	None	None	None	1
2.7	2015_May_08_1606	s	s	3	5	SIC	68	RC	2	1	02VD 09VO 02VC 02MD 02MO 02MC 02RD 02RO	1	0	1.21844100952	230.0	-358.0	228	-358	1
2.7	2015_May_08_1606	s	s	3	5	SIC	69	RC	1	0	02VD 02VO 02VC 02MD 02MO 09MC 02RD 02RO	1	0	1.56217384338	-383.0	-46.0	-387	-40	1
2.7	2015_May_08_1606	s	s	3	5	SIC	70	ABS	2	0	02VD 02VO 10VC 02MD 02MO 02MC 02RD 02RO	0	1	1.81580996513	None	None	None	None	1
2.7	2015_May_08_1606	s	s	3	5	SIC	71	RC	1	1	02VD 02VO 02VC 02MD 09MO 02MC 02RD 02RO	1	0	0.643805027008	102.0	283.0	101	290	1
2.7	2015_May_08_1606	s	s	3	5	SIC	72	ABS	1	1	02VD 02VO 02VC 02MD 10MO 02MC 02RD 02RO	0	1	2.43596506119	None	None	None	None	1
2.7	2015_May_08_1606	s	s	3	5	SIC	73	RC	0	2	02VD 02VO 02VC 02MD 02MO 02MC 09RD 02RO	1	0	1.16021299362	284.0	54.0	284	61	1
2.7	2015_May_08_1606	s	s	3	5	SIC	74	ABS	2	2	10VD 02VO 02VC 02MD 02MO 02MC 02RD 02RO	0	1	2.04394078255	None	None	None	None	1
2.7	2015_May_08_1606	s	s	3	5	SIC	75	ABS	0	1	02VD 02VO 02VC 02MD 02MO 02MC 02RD 10RO	0	1	4.09301710129	None	None	None	None	1
2.7	2015_May_08_1606	s	s	3	5	SIC	76	RC	0	1	02VD 02VO 02VC 02MD 02MO 02MC 02RD 09RO	1	0	2.9301109314	-17.0	55.0	-19	61	1
2.7	2015_May_08_1606	s	s	3	5	SIC	77	ABS	1	0	02VD 02VO 02VC 02MD 02MO 10MC 02RD 02RO	0	1	2.76535201073	None	None	None	None	1
2.7	2015_May_08_1606	s	s	3	5	SIC	78	RC	1	2	02VD 02VO 02VC 09MD 02MO 02MC 02RD 02RO	1	0	1.69443392754	418.0	-214.0	417	-209	1
2.7	2015_May_08_1606	s	s	3	5	SIC	79	ABS	0	2	02VD 02VO 02VC 02MD 02MO 02MC 10RD 02RO	0	1	1.82969403267	None	None	None	None	1
2.7	2015_May_08_1606	s	s	3	5	SIC	80	RC	2	0	02VD 02VO 09VC 02MD 02MO 02MC 02RD 02RO	1	0	0.903033971786	201.0	288.0	197	286	1
2.7	2015_May_08_1606	s	s	3	5	SIC	81	RC	1	1	02VD 02VO 02VC 02MD 09MO 02MC 02RD 02RO	1	0	0.987931966782	-35.0	155.0	-23	162	1
2.7	2015_May_08_1606	s	s	3	5	SIC	82	RC	1	2	02VD 02VO 02VC 09MD 02MO 02MC 02RD 02RO	1	0	0.787927150726	112.0	85.0	119	87	1
2.7	2015_May_08_1606	s	s	3	5	SIC	83	RC	1	0	02VD 02VO 02VC 02MD 02MO 09MC 02RD 02RO	1	0	1.71459102631	391.0	-154.0	393	-150	1
2.7	2015_May_08_1606	s	s	3	5	SIC	84	ABS	1	0	02VD 02VO 02VC 02MD 02MO 10MC 02RD 02RO	0	1	3.01265096664	None	None	None	None	1
2.7	2015_May_08_1606	s	s	3	5	SIC	85	ABS	1	1	02VD 02VO 02VC 02MD 10MO 02MC 02RD 02RO	0	1	2.31005501747	None	None	None	None	1
2.7	2015_May_08_1606	s	s	3	5	SIC	86	ABS	2	0	02VD 02VO 10VC 02MD 02MO 02MC 02RD 02RO	0	1	1.64404892921	None	None	None	None	1
2.7	2015_May_08_1606	s	s	3	5	SIC	87	RC	2	2	09VD 02VO 02VC 02MD 02MO 02MC 02RD 02RO	1	0	0.5735039711	-233.0	221.0	-236	219	1
2.7	2015_May_08_1606	s	s	3	5	SIC	88	ABS	2	1	02VD 10VO 02VC 02MD 02MO 02MC 02RD 02RO	1	0	1.48244905472	None	None	-278	-163	0
2.7	2015_May_08_1606	s	s	3	5	SIC	89	RC	0	1	02VD 02VO 02VC 02MD 02MO 02MC 02RD 09RO	1	0	0.576218128204	-214.0	22.0	-220	20	1
2.7	2015_May_08_1606	s	s	3	5	SIC	90	ABS	2	2	10VD 02VO 02VC 02MD 02MO 02MC 02RD 02RO	0	1	2.05422306061	None	None	None	None	1
2.7	2015_May_08_1606	s	s	3	5	SIC	91	ABS	1	2	02VD 02VO 02VC 10MD 02MO 02MC 02RD 02RO	0	1	1.67451286316	None	None	None	None	1
2.7	2015_May_08_1606	s	s	3	5	SIC	92	RC	2	1	02VD 09VO 02VC 02MD 02MO 02MC 02RD 02RO	1	0	0.830585956573	-416.0	224.0	-415	219	1
2.7	2015_May_08_1606	s	s	3	5	SIC	93	RC	0	2	02VD 02VO 02VC 02MD 02MO 02MC 09RD 02RO	1	0	2.77482390404	-521.0	-382.0	-531	-378	1
2.7	2015_May_08_1606	s	s	3	5	SIC	94	ABS	0	2	02VD 02VO 02VC 02MD 02MO 02MC 10RD 02RO	0	1	2.04482579231	None	None	None	None	1
2.7	2015_May_08_1606	s	s	3	5	SIC	95	RC	2	0	02VD 02VO 09VC 02MD 02MO 02MC 02RD 02RO	1	0	0.559331893921	-89.0	36.0	-89	41	1
2.7	2015_May_08_1606	s	s	3	5	SIC	96	ABS	0	1	02VD 02VO 02VC 02MD 02MO 02MC 02RD 10RO	0	1	2.96560907364	None	None	None	None	1
2.7	2015_May_08_1606	s	s	3	5	SIC	97	ABS	0	2	02VD 02VO 02VC 02MD 02MO 02MC 10RD 02RO	0	1	1.97126698494	None	None	None	None	1
2.7	2015_May_08_1606	s	s	3	5	SIC	98	ABS	2	2	10VD 02VO 02VC 02MD 02MO 02MC 02RD 02RO	0	1	1.38304519653	None	None	None	None	1
2.7	2015_May_08_1606	s	s	3	5	SIC	99	ABS	2	0	02VD 02VO 10VC 02MD 02MO 02MC 02RD 02RO	0	1	1.28949904442	None	None	None	None	1
2.7	2015_May_08_1606	s	s	3	5	SIC	100	RC	2	0	02VD 02VO 09VC 02MD 02MO 02MC 02RD 02RO	1	0	1.70615005493	302.0	-143.0	292	-134	1
2.7	2015_May_08_1606	s	s	3	5	SIC	101	RC	0	2	02VD 02VO 02VC 02MD 02MO 02MC 09RD 02RO	1	0	1.04166579247	263.0	-108.0	263	-99	1
2.7	2015_May_08_1606	s	s	3	5	SIC	102	ABS	0	1	02VD 02VO 02VC 02MD 02MO 02MC 02RD 10RO	0	1	2.4193649292	None	None	None	None	1
2.7	2015_May_08_1606	s	s	3	5	SIC	103	ABS	1	1	02VD 02VO 02VC 02MD 10MO 02MC 02RD 02RO	0	1	1.9885430336	None	None	None	None	1
2.7	2015_May_08_1606	s	s	3	5	SIC	104	RC	0	1	02VD 02VO 02VC 02MD 02MO 02MC 02RD 09RO	1	0	2.42414689064	385.0	296.0	388	301	1
2.7	2015_May_08_1606	s	s	3	5	SIC	105	RC	1	2	02VD 02VO 02VC 09MD 02MO 02MC 02RD 02RO	1	0	0.741423845291	-27.0	-115.0	-31	-114	1
2.7	2015_May_08_1606	s	s	3	5	SIC	106	RC	2	2	09VD 02VO 02VC 02MD 02MO 02MC 02RD 02RO	1	0	0.823099851608	237.0	165.0	235	165	1
2.7	2015_May_08_1606	s	s	3	5	SIC	107	RC	2	1	02VD 09VO 02VC 02MD 02MO 02MC 02RD 02RO	1	0	0.735894918442	274.0	38.0	277	39	1
2.7	2015_May_08_1606	s	s	3	5	SIC	108	ABS	1	2	02VD 02VO 02VC 10MD 02MO 02MC 02RD 02RO	0	1	1.44380688667	None	None	None	None	1
2.7	2015_May_08_1606	s	s	3	5	SIC	109	RC	1	1	02VD 02VO 02VC 02MD 09MO 02MC 02RD 02RO	1	0	1.07049012184	492.0	185.0	483	188	1
2.7	2015_May_08_1606	s	s	3	5	SIC	110	RC	1	0	02VD 02VO 02VC 02MD 02MO 09MC 02RD 02RO	1	0	0.511538028717	-258.0	19.0	-256	23	1
2.7	2015_May_08_1606	s	s	3	5	SIC	111	ABS	2	1	02VD 10VO 02VC 02MD 02MO 02MC 02RD 02RO	0	1	1.50074386597	None	None	None	None	1
2.7	2015_May_08_1606	s	s	3	5	SIC	112	ABS	1	0	02VD 02VO 02VC 02MD 02MO 10MC 02RD 02RO	0	1	2.14155101776	None	None	None	None	1
2.7	2015_May_08_1606	s	s	3	5	SIC	113	ABS	1	2	02VD 02VO 02VC 10MD 02MO 02MC 02RD 02RO	0	1	1.62381005287	None	None	None	None	1
2.7	2015_May_08_1606	s	s	3	5	SIC	114	RC	0	2	02VD 02VO 02VC 02MD 02MO 02MC 09RD 02RO	1	0	1.44710993767	487.0	105.0	490	100	1
2.7	2015_May_08_1606	s	s	3	5	SIC	115	ABS	2	1	02VD 10VO 02VC 02MD 02MO 02MC 02RD 02RO	0	1	1.87942290306	None	None	None	None	1
2.7	2015_May_08_1606	s	s	3	5	SIC	116	RC	2	1	02VD 09VO 02VC 02MD 02MO 02MC 02RD 02RO	1	0	0.823271989822	-445.0	295.0	-449	299	1
2.7	2015_May_08_1606	s	s	3	5	SIC	117	ABS	0	1	02VD 02VO 02VC 02MD 02MO 02MC 02RD 10RO	0	1	3.23631596565	None	None	None	None	1
2.7	2015_May_08_1606	s	s	3	5	SIC	118	RC	2	2	09VD 02VO 02VC 02MD 02MO 02MC 02RD 02RO	1	0	1.05869603157	-508.0	-314.0	-507	-307	1
2.7	2015_May_08_1606	s	s	3	5	SIC	119	RC	1	2	02VD 02VO 02VC 09MD 02MO 02MC 02RD 02RO	1	0	1.98545217514	248.0	-225.0	243	-220	1
2.7	2015_May_08_1606	s	s	3	5	SIC	120	RC	1	1	02VD 02VO 02VC 02MD 09MO 02MC 02RD 02RO	1	0	0.635005950928	-368.0	153.0	-368	150	1
2.7	2015_May_08_1606	s	s	3	5	SIC	121	RC	2	0	02VD 02VO 09VC 02MD 02MO 02MC 02RD 02RO	1	0	0.97630906105	-292.0	-370.0	-294	-364	1
2.7	2015_May_08_1606	s	s	3	5	SIC	122	RC	1	0	02VD 02VO 02VC 02MD 02MO 09MC 02RD 02RO	1	0	1.70260691643	527.0	-289.0	521	-288	1
2.7	2015_May_08_1606	s	s	3	5	SIC	123	ABS	1	0	02VD 02VO 02VC 02MD 02MO 10MC 02RD 02RO	0	1	2.7859609127	None	None	None	None	1
2.7	2015_May_08_1606	s	s	3	5	SIC	124	ABS	0	2	02VD 02VO 02VC 02MD 02MO 02MC 10RD 02RO	0	1	1.80021810532	None	None	None	None	1
2.7	2015_May_08_1606	s	s	3	5	SIC	125	ABS	2	2	10VD 02VO 02VC 02MD 02MO 02MC 02RD 02RO	0	1	1.4824950695	None	None	None	None	1
2.7	2015_May_08_1606	s	s	3	5	SIC	126	ABS	2	0	02VD 02VO 10VC 02MD 02MO 02MC 02RD 02RO	0	1	1.52612304688	None	None	None	None	1
2.7	2015_May_08_1606	s	s	3	5	SIC	127	ABS	1	1	02VD 02VO 02VC 02MD 10MO 02MC 02RD 02RO	0	1	2.12602782249	None	None	None	None	1
2.7	2015_May_08_1606	s	s	3	5	SIC	128	RC	0	1	02VD 02VO 02VC 02MD 02MO 02MC 02RD 09RO	1	0	2.09446120262	19.0	-198.0	14	-205	1
2.7	2015_May_08_1606	s	s	3	5	SIC	129	RC	1	2	02VD 02VO 02VC 09MD 02MO 02MC 02RD 02RO	1	0	0.517197847366	-174.0	-36.0	-179	-33	1
2.7	2015_May_08_1606	s	s	3	5	SIC	130	ABS	2	2	10VD 02VO 02VC 02MD 02MO 02MC 02RD 02RO	0	1	1.83561992645	None	None	None	None	1
2.7	2015_May_08_1606	s	s	3	5	SIC	131	RC	2	0	02VD 02VO 09VC 02MD 02MO 02MC 02RD 02RO	1	0	1.49429416656	-329.0	-153.0	-330	-151	1
2.7	2015_May_08_1606	s	s	3	5	SIC	132	ABS	1	2	02VD 02VO 02VC 10MD 02MO 02MC 02RD 02RO	0	1	1.43891096115	None	None	None	None	1
2.7	2015_May_08_1606	s	s	3	5	SIC	133	RC	0	2	02VD 02VO 02VC 02MD 02MO 02MC 09RD 02RO	1	0	1.13798213005	-280.0	-283.0	-276	-281	1
2.7	2015_May_08_1606	s	s	3	5	SIC	134	RC	0	1	02VD 02VO 02VC 02MD 02MO 02MC 02RD 09RO	1	0	1.55985617638	402.0	-80.0	400	-77	1
2.7	2015_May_08_1606	s	s	3	5	SIC	135	ABS	0	2	02VD 02VO 02VC 02MD 02MO 02MC 10RD 02RO	0	1	2.55350899696	None	None	None	None	1
2.7	2015_May_08_1606	s	s	3	5	SIC	136	ABS	0	1	02VD 02VO 02VC 02MD 02MO 02MC 02RD 10RO	0	1	2.24733805656	None	None	None	None	1
2.7	2015_May_08_1606	s	s	3	5	SIC	137	RC	1	1	02VD 02VO 02VC 02MD 09MO 02MC 02RD 02RO	1	0	0.994194030762	158.0	-166.0	160	-175	1
2.7	2015_May_08_1606	s	s	3	5	SIC	138	ABS	2	0	02VD 02VO 10VC 02MD 02MO 02MC 02RD 02RO	0	1	1.59504699707	None	None	None	None	1
2.7	2015_May_08_1606	s	s	3	5	SIC	139	RC	1	0	02VD 02VO 02VC 02MD 02MO 09MC 02RD 02RO	1	0	2.14198899269	13.0	-304.0	15	-304	1
2.7	2015_May_08_1606	s	s	3	5	SIC	140	RC	2	1	02VD 09VO 02VC 02MD 02MO 02MC 02RD 02RO	1	0	1.64234685898	-418.0	372.0	-415	371	1
2.7	2015_May_08_1606	s	s	3	5	SIC	141	ABS	2	1	02VD 10VO 02VC 02MD 02MO 02MC 02RD 02RO	0	1	1.79588913918	None	None	None	None	1
2.7	2015_May_08_1606	s	s	3	5	SIC	142	ABS	1	0	02VD 02VO 02VC 02MD 02MO 10MC 02RD 02RO	0	1	2.34148001671	None	None	None	None	1
2.7	2015_May_08_1606	s	s	3	5	SIC	143	RC	2	2	09VD 02VO 02VC 02MD 02MO 02MC 02RD 02RO	1	0	1.14835214615	37.0	-152.0	39	-155	1
2.7	2015_May_08_1606	s	s	3	5	SIC	144	ABS	1	1	02VD 02VO 02VC 02MD 10MO 02MC 02RD 02RO	0	1	1.96236205101	None	None	None	None	1
2.7	2015_May_08_1606	s	s	3	5	SIC	145	RC	0	2	02VD 02VO 02VC 02MD 02MO 02MC 09RD 02RO	1	0	1.1235461235	284.0	278.0	292	276	1
2.7	2015_May_08_1606	s	s	3	5	SIC	146	RC	1	0	02VD 02VO 02VC 02MD 02MO 09MC 02RD 02RO	1	0	1.05875205994	262.0	54.0	269	54	1
2.7	2015_May_08_1606	s	s	3	5	SIC	147	ABS	1	0	02VD 02VO 02VC 02MD 02MO 10MC 02RD 02RO	0	1	2.70649194717	None	None	None	None	1
2.7	2015_May_08_1606	s	s	3	5	SIC	148	ABS	1	1	02VD 02VO 02VC 02MD 10MO 02MC 02RD 02RO	1	0	0.823308944702	None	None	85	-212	0
2.7	2015_May_08_1606	s	s	3	5	SIC	149	ABS	2	0	02VD 02VO 10VC 02MD 02MO 02MC 02RD 02RO	0	1	1.74133396149	None	None	None	None	1
2.7	2015_May_08_1606	s	s	3	5	SIC	150	RC	1	2	02VD 02VO 02VC 09MD 02MO 02MC 02RD 02RO	1	0	1.54133009911	317.0	-136.0	312	-134	1
2.7	2015_May_08_1606	s	s	3	5	SIC	151	ABS	1	2	02VD 02VO 02VC 10MD 02MO 02MC 02RD 02RO	0	1	2.10361814499	None	None	None	None	1
2.7	2015_May_08_1606	s	s	3	5	SIC	152	RC	1	1	02VD 02VO 02VC 02MD 09MO 02MC 02RD 02RO	1	0	1.24710702896	374.0	306.0	378	298	1
2.7	2015_May_08_1606	s	s	3	5	SIC	153	RC	0	1	02VD 02VO 02VC 02MD 02MO 02MC 02RD 09RO	1	0	0.817411184311	-193.0	-162.0	-201	-168	1
2.7	2015_May_08_1606	s	s	3	5	SIC	154	ABS	0	2	02VD 02VO 02VC 02MD 02MO 02MC 10RD 02RO	0	1	2.16249704361	None	None	None	None	1
2.7	2015_May_08_1606	s	s	3	5	SIC	155	RC	2	0	02VD 02VO 09VC 02MD 02MO 02MC 02RD 02RO	1	0	0.999856948853	-154.0	-307.0	-152	-308	1
2.7	2015_May_08_1606	s	s	3	5	SIC	156	ABS	2	1	02VD 10VO 02VC 02MD 02MO 02MC 02RD 02RO	0	1	2.38370585442	None	None	None	None	1
2.7	2015_May_08_1606	s	s	3	5	SIC	157	RC	2	1	02VD 09VO 02VC 02MD 02MO 02MC 02RD 02RO	1	0	1.00926709175	-264.0	384.0	-261	388	1
2.7	2015_May_08_1606	s	s	3	5	SIC	158	RC	2	2	09VD 02VO 02VC 02MD 02MO 02MC 02RD 02RO	1	0	1.99549913406	320.0	-374.0	321	-379	1
2.7	2015_May_08_1606	s	s	3	5	SIC	159	ABS	2	2	10VD 02VO 02VC 02MD 02MO 02MC 02RD 02RO	0	1	2.06278204918	None	None	None	None	1
2.7	2015_May_08_1606	s	s	3	5	SIC	160	ABS	0	1	02VD 02VO 02VC 02MD 02MO 02MC 02RD 10RO	0	1	2.96562480927	None	None	None	None	1
2.7	2015_May_08_1606	s	s	3	5	SIC	161	ABS	2	2	10VD 02VO 02VC 02MD 02MO 02MC 02RD 02RO	0	1	1.34738707542	None	None	None	None	1
2.7	2015_May_08_1606	s	s	3	5	SIC	162	ABS	2	1	02VD 10VO 02VC 02MD 02MO 02MC 02RD 02RO	0	1	1.87683606148	None	None	None	None	1
2.7	2015_May_08_1606	s	s	3	5	SIC	163	RC	2	1	02VD 09VO 02VC 02MD 02MO 02MC 02RD 02RO	1	0	1.38266992569	357.0	76.0	354	85	1
2.7	2015_May_08_1606	s	s	3	5	SIC	164	RC	0	1	02VD 02VO 02VC 02MD 02MO 02MC 02RD 09RO	1	0	1.72459101677	-175.0	-192.0	-166	-189	1
2.7	2015_May_08_1606	s	s	3	5	SIC	165	ABS	1	1	02VD 02VO 02VC 02MD 10MO 02MC 02RD 02RO	0	1	2.42417812347	None	None	None	None	1
2.7	2015_May_08_1606	s	s	3	5	SIC	166	RC	1	0	02VD 02VO 02VC 02MD 02MO 09MC 02RD 02RO	1	0	0.99497294426	5.0	284.0	9	277	1
2.7	2015_May_08_1606	s	s	3	5	SIC	167	RC	2	0	02VD 02VO 09VC 02MD 02MO 02MC 02RD 02RO	1	0	0.752654075623	-260.0	366.0	-267	373	1
2.7	2015_May_08_1606	s	s	3	5	SIC	168	RC	0	2	02VD 02VO 02VC 02MD 02MO 02MC 09RD 02RO	0	1	1.77413702011	-163.0	36.0	None	None	0
2.7	2015_May_08_1606	s	s	3	5	SIC	169	ABS	1	0	02VD 02VO 02VC 02MD 02MO 10MC 02RD 02RO	0	1	2.57451486588	None	None	None	None	1
2.7	2015_May_08_1606	s	s	3	5	SIC	170	RC	1	2	02VD 02VO 02VC 09MD 02MO 02MC 02RD 02RO	1	0	0.619755029678	-240.0	90.0	-243	92	1
2.7	2015_May_08_1606	s	s	3	5	SIC	171	RC	1	1	02VD 02VO 02VC 02MD 09MO 02MC 02RD 02RO	1	0	1.08901405334	-322.0	-347.0	-321	-355	1
2.7	2015_May_08_1606	s	s	3	5	SIC	172	ABS	0	1	02VD 02VO 02VC 02MD 02MO 02MC 02RD 10RO	0	1	3.77210211754	None	None	None	None	1
2.7	2015_May_08_1606	s	s	3	5	SIC	173	ABS	1	2	02VD 02VO 02VC 10MD 02MO 02MC 02RD 02RO	0	1	1.65476608276	None	None	None	None	1
2.7	2015_May_08_1606	s	s	3	5	SIC	174	ABS	2	0	02VD 02VO 10VC 02MD 02MO 02MC 02RD 02RO	0	1	1.72622299194	None	None	None	None	1
2.7	2015_May_08_1606	s	s	3	5	SIC	175	ABS	0	2	02VD 02VO 02VC 02MD 02MO 02MC 10RD 02RO	0	1	2.0324139595	None	None	None	None	1
2.7	2015_May_08_1606	s	s	3	5	SIC	176	RC	2	2	09VD 02VO 02VC 02MD 02MO 02MC 02RD 02RO	1	0	1.85567808151	333.0	301.0	330	303	1
2.7	2015_May_08_1606	s	s	3	5	SIC	177	ABS	1	1	02VD 02VO 02VC 02MD 10MO 02MC 02RD 02RO	0	1	2.58623504639	None	None	None	None	1
2.7	2015_May_08_1606	s	s	3	5	SIC	178	RC	0	2	02VD 02VO 02VC 02MD 02MO 02MC 09RD 02RO	1	0	0.634919881821	50.0	109.0	51	109	1
2.7	2015_May_08_1606	s	s	3	5	SIC	179	ABS	2	0	02VD 02VO 10VC 02MD 02MO 02MC 02RD 02RO	0	1	1.39623999596	None	None	None	None	1
2.7	2015_May_08_1606	s	s	3	5	SIC	180	RC	2	1	02VD 09VO 02VC 02MD 02MO 02MC 02RD 02RO	1	0	0.877496004105	190.0	-233.0	193	-233	1
2.7	2015_May_08_1606	s	s	3	5	SIC	181	ABS	2	1	02VD 10VO 02VC 02MD 02MO 02MC 02RD 02RO	0	1	2.03206801414	None	None	None	None	1
2.7	2015_May_08_1606	s	s	3	5	SIC	182	RC	1	2	02VD 02VO 02VC 09MD 02MO 02MC 02RD 02RO	1	0	1.17647504807	-209.0	-224.0	-206	-215	1
2.7	2015_May_08_1606	s	s	3	5	SIC	183	ABS	0	1	02VD 02VO 02VC 02MD 02MO 02MC 02RD 10RO	0	1	3.84328699112	None	None	None	None	1
2.7	2015_May_08_1606	s	s	3	5	SIC	184	RC	0	1	02VD 02VO 02VC 02MD 02MO 02MC 02RD 09RO	1	0	1.39533400536	-533.0	-53.0	-536	-50	1
2.7	2015_May_08_1606	s	s	3	5	SIC	185	RC	1	0	02VD 02VO 02VC 02MD 02MO 09MC 02RD 02RO	1	0	1.08825492859	128.0	260.0	122	259	1
2.7	2015_May_08_1606	s	s	3	5	SIC	186	ABS	2	2	10VD 02VO 02VC 02MD 02MO 02MC 02RD 02RO	0	1	1.82368993759	None	None	None	None	1
2.7	2015_May_08_1606	s	s	3	5	SIC	187	ABS	1	0	02VD 02VO 02VC 02MD 02MO 10MC 02RD 02RO	0	1	3.2716050148	None	None	None	None	1
2.7	2015_May_08_1606	s	s	3	5	SIC	188	RC	2	0	02VD 02VO 09VC 02MD 02MO 02MC 02RD 02RO	1	0	1.60024690628	-438.0	-295.0	-440	-291	1
2.7	2015_May_08_1606	s	s	3	5	SIC	189	RC	1	1	02VD 02VO 02VC 02MD 09MO 02MC 02RD 02RO	1	0	2.24234485626	-455.0	-394.0	-464	-392	1
2.7	2015_May_08_1606	s	s	3	5	SIC	190	ABS	0	2	02VD 02VO 02VC 02MD 02MO 02MC 10RD 02RO	0	1	2.68294215202	None	None	None	None	1
2.7	2015_May_08_1606	s	s	3	5	SIC	191	RC	2	2	09VD 02VO 02VC 02MD 02MO 02MC 02RD 02RO	1	0	1.73581790924	508.0	-353.0	502	-351	1
2.7	2015_May_08_1606	s	s	3	5	SIC	192	ABS	1	2	02VD 02VO 02VC 10MD 02MO 02MC 02RD 02RO	0	1	1.8894610405	None	None	None	None	1
2.7	2015_May_08_1606	s	s	3	5	SIC	193	ABS	0	2	02VD 02VO 02VC 02MD 02MO 02MC 10RD 02RO	0	1	1.54839992523	None	None	None	None	1
2.7	2015_May_08_1606	s	s	3	5	SIC	194	RC	2	2	09VD 02VO 02VC 02MD 02MO 02MC 02RD 02RO	1	0	1.00795102119	-162.0	-208.0	-157	-208	1
2.7	2015_May_08_1606	s	s	3	5	SIC	195	RC	2	0	02VD 02VO 09VC 02MD 02MO 02MC 02RD 02RO	1	0	0.627874851227	-395.0	-239.0	-395	-239	1
2.7	2015_May_08_1606	s	s	3	5	SIC	196	ABS	1	0	02VD 02VO 02VC 02MD 02MO 10MC 02RD 02RO	0	1	3.29882192612	None	None	None	None	1
2.7	2015_May_08_1606	s	s	3	5	SIC	197	RC	1	1	02VD 02VO 02VC 02MD 09MO 02MC 02RD 02RO	1	0	2.44755792618	203.0	406.0	201	411	1
2.7	2015_May_08_1606	s	s	3	5	SIC	198	RC	0	1	02VD 02VO 02VC 02MD 02MO 02MC 02RD 09RO	1	0	1.40877699852	-355.0	-242.0	-359	-243	1
2.7	2015_May_08_1606	s	s	3	5	SIC	199	RC	2	1	02VD 09VO 02VC 02MD 02MO 02MC 02RD 02RO	1	0	1.22354793549	233.0	-329.0	234	-331	1
2.7	2015_May_08_1606	s	s	3	5	SIC	200	ABS	0	1	02VD 02VO 02VC 02MD 02MO 02MC 02RD 10RO	0	1	2.4594681263	None	None	None	None	1
2.7	2015_May_08_1606	s	s	3	5	SIC	201	ABS	2	2	10VD 02VO 02VC 02MD 02MO 02MC 02RD 02RO	0	1	1.17626905441	None	None	None	None	1
2.7	2015_May_08_1606	s	s	3	5	SIC	202	ABS	2	1	02VD 10VO 02VC 02MD 02MO 02MC 02RD 02RO	0	1	1.43107318878	None	None	None	None	1
2.7	2015_May_08_1606	s	s	3	5	SIC	203	ABS	1	2	02VD 02VO 02VC 10MD 02MO 02MC 02RD 02RO	0	1	1.4592192173	None	None	None	None	1
2.7	2015_May_08_1606	s	s	3	5	SIC	204	RC	0	2	02VD 02VO 02VC 02MD 02MO 02MC 09RD 02RO	1	0	0.9969830513	-411.0	249.0	-407	251	1
2.7	2015_May_08_1606	s	s	3	5	SIC	205	RC	1	2	02VD 02VO 02VC 09MD 02MO 02MC 02RD 02RO	1	0	0.882149934769	-65.0	-106.0	-66	-107	1
2.7	2015_May_08_1606	s	s	3	5	SIC	206	ABS	2	0	02VD 02VO 10VC 02MD 02MO 02MC 02RD 02RO	0	1	1.32376003265	None	None	None	None	1
2.7	2015_May_08_1606	s	s	3	5	SIC	207	RC	1	0	02VD 02VO 02VC 02MD 02MO 09MC 02RD 02RO	1	0	1.82375597954	365.0	50.0	365	58	1
2.7	2015_May_08_1606	s	s	3	5	SIC	208	ABS	1	1	02VD 02VO 02VC 02MD 10MO 02MC 02RD 02RO	0	1	2.21833515167	None	None	None	None	1
2.7	2015_May_08_1606	s	s	3	5	SIC	209	RC	2	2	09VD 02VO 02VC 02MD 02MO 02MC 02RD 02RO	1	0	0.923960924149	73.0	-187.0	68	-183	1
2.7	2015_May_08_1606	s	s	3	5	SIC	210	ABS	2	1	02VD 10VO 02VC 02MD 02MO 02MC 02RD 02RO	0	1	1.92256903648	None	None	None	None	1
2.7	2015_May_08_1606	s	s	3	5	SIC	211	ABS	0	1	02VD 02VO 02VC 02MD 02MO 02MC 02RD 10RO	0	1	3.59762215614	None	None	None	None	1
2.7	2015_May_08_1606	s	s	3	5	SIC	212	RC	1	2	02VD 02VO 02VC 09MD 02MO 02MC 02RD 02RO	1	0	0.77205491066	-139.0	-31.0	-135	-29	1
2.7	2015_May_08_1606	s	s	3	5	SIC	213	ABS	1	2	02VD 02VO 02VC 10MD 02MO 02MC 02RD 02RO	0	1	1.42133688927	None	None	None	None	1
2.7	2015_May_08_1606	s	s	3	5	SIC	214	RC	1	0	02VD 02VO 02VC 02MD 02MO 09MC 02RD 02RO	1	0	3.05975604057	452.0	336.0	448	334	1
2.7	2015_May_08_1606	s	s	3	5	SIC	215	RC	2	0	02VD 02VO 09VC 02MD 02MO 02MC 02RD 02RO	1	0	0.929277896881	114.0	-194.0	107	-191	1
2.7	2015_May_08_1606	s	s	3	5	SIC	216	ABS	2	0	02VD 02VO 10VC 02MD 02MO 02MC 02RD 02RO	0	1	2.35076904297	None	None	None	None	1
2.7	2015_May_08_1606	s	s	3	5	SIC	217	RC	2	1	02VD 09VO 02VC 02MD 02MO 02MC 02RD 02RO	1	0	0.976378917694	-216.0	-291.0	-217	-285	1
2.7	2015_May_08_1606	s	s	3	5	SIC	218	ABS	1	1	02VD 02VO 02VC 02MD 10MO 02MC 02RD 02RO	0	1	2.11451983452	None	None	None	None	1
2.7	2015_May_08_1606	s	s	3	5	SIC	219	RC	1	1	02VD 02VO 02VC 02MD 09MO 02MC 02RD 02RO	1	0	1.22340106964	-530.0	-182.0	-533	-188	1
2.7	2015_May_08_1606	s	s	3	5	SIC	220	ABS	2	2	10VD 02VO 02VC 02MD 02MO 02MC 02RD 02RO	0	1	1.76533794403	None	None	None	None	1
2.7	2015_May_08_1606	s	s	3	5	SIC	221	RC	0	1	02VD 02VO 02VC 02MD 02MO 02MC 02RD 09RO	1	0	0.961918115616	-262.0	-123.0	-275	-115	1
2.7	2015_May_08_1606	s	s	3	5	SIC	222	ABS	1	0	02VD 02VO 02VC 02MD 02MO 10MC 02RD 02RO	0	1	3.39877796173	None	None	None	None	1
2.7	2015_May_08_1606	s	s	3	5	SIC	223	RC	0	2	02VD 02VO 02VC 02MD 02MO 02MC 09RD 02RO	1	0	1.17639303207	129.0	-290.0	128	-284	1
2.7	2015_May_08_1606	s	s	3	5	SIC	224	ABS	0	2	02VD 02VO 02VC 02MD 02MO 02MC 10RD 02RO	0	1	1.96499991417	None	None	None	None	1
2.7	2015_May_08_1606	s	s	3	5	SIC	225	ABS	1	0	02VD 02VO 02VC 02MD 02MO 10MC 02RD 02RO	0	1	3.76590204239	None	None	None	None	1
2.7	2015_May_08_1606	s	s	3	5	SIC	226	ABS	2	0	02VD 02VO 10VC 02MD 02MO 02MC 02RD 02RO	0	1	1.95105886459	None	None	None	None	1
2.7	2015_May_08_1606	s	s	3	5	SIC	227	ABS	2	2	10VD 02VO 02VC 02MD 02MO 02MC 02RD 02RO	0	1	1.20665693283	None	None	None	None	1
2.7	2015_May_08_1606	s	s	3	5	SIC	228	RC	1	1	02VD 02VO 02VC 02MD 09MO 02MC 02RD 02RO	1	0	1.02927899361	-22.0	-397.0	-26	-398	1
2.7	2015_May_08_1606	s	s	3	5	SIC	229	RC	2	2	09VD 02VO 02VC 02MD 02MO 02MC 02RD 02RO	1	0	0.597083091736	71.0	70.0	64	75	1
2.7	2015_May_08_1606	s	s	3	5	SIC	230	RC	2	0	02VD 02VO 09VC 02MD 02MO 02MC 02RD 02RO	1	0	1.52947592735	320.0	-368.0	322	-362	1
2.7	2015_May_08_1606	s	s	3	5	SIC	231	RC	1	2	02VD 02VO 02VC 09MD 02MO 02MC 02RD 02RO	1	0	1.11743307114	-457.0	-362.0	-460	-366	1
2.7	2015_May_08_1606	s	s	3	5	SIC	232	RC	0	1	02VD 02VO 02VC 02MD 02MO 02MC 02RD 09RO	1	0	0.906050920486	-406.0	80.0	-418	87	1
2.7	2015_May_08_1606	s	s	3	5	SIC	233	ABS	0	2	02VD 02VO 02VC 02MD 02MO 02MC 10RD 02RO	0	1	1.9730861187	None	None	None	None	1
2.7	2015_May_08_1606	s	s	3	5	SIC	234	ABS	2	1	02VD 10VO 02VC 02MD 02MO 02MC 02RD 02RO	0	1	1.81827616692	None	None	None	None	1
2.7	2015_May_08_1606	s	s	3	5	SIC	235	RC	1	0	02VD 02VO 02VC 02MD 02MO 09MC 02RD 02RO	1	0	0.752636909485	-165.0	50.0	-166	46	1
2.7	2015_May_08_1606	s	s	3	5	SIC	236	ABS	1	2	02VD 02VO 02VC 10MD 02MO 02MC 02RD 02RO	0	1	1.19431495667	None	None	None	None	1
2.7	2015_May_08_1606	s	s	3	5	SIC	237	ABS	1	1	02VD 02VO 02VC 02MD 10MO 02MC 02RD 02RO	0	1	2.03045797348	None	None	None	None	1
2.7	2015_May_08_1606	s	s	3	5	SIC	238	ABS	0	1	02VD 02VO 02VC 02MD 02MO 02MC 02RD 10RO	0	1	0.641271114349	None	None	None	None	1
2.7	2015_May_08_1606	s	s	3	5	SIC	239	RC	0	2	02VD 02VO 02VC 02MD 02MO 02MC 09RD 02RO	1	0	0.834972143173	-393.0	228.0	-393	226	1
2.7	2015_May_08_1606	s	s	3	5	SIC	240	RC	2	1	02VD 09VO 02VC 02MD 02MO 02MC 02RD 02RO	1	0	2.5018260479	206.0	269.0	205	269	1
2.7	2015_May_08_1606	s	s	3	5	SIC	241	RC	2	1	02VD 09VO 02VC 02MD 02MO 02MC 02RD 02RO	1	0	0.947590112686	-266.0	-208.0	-267	-208	1
2.7	2015_May_08_1606	s	s	3	5	SIC	242	RC	2	0	02VD 02VO 09VC 02MD 02MO 02MC 02RD 02RO	1	0	1.05869984627	-404.0	66.0	-403	62	1
2.7	2015_May_08_1606	s	s	3	5	SIC	243	RC	1	1	02VD 02VO 02VC 02MD 09MO 02MC 02RD 02RO	1	0	1.3725271225	-63.0	-194.0	-59	-200	1
2.7	2015_May_08_1606	s	s	3	5	SIC	244	ABS	2	1	02VD 10VO 02VC 02MD 02MO 02MC 02RD 02RO	0	1	1.78482794762	None	None	None	None	1
2.7	2015_May_08_1606	s	s	3	5	SIC	245	ABS	1	2	02VD 02VO 02VC 10MD 02MO 02MC 02RD 02RO	0	1	2.10358190536	None	None	None	None	1
2.7	2015_May_08_1606	s	s	3	5	SIC	246	RC	2	2	09VD 02VO 02VC 02MD 02MO 02MC 02RD 02RO	1	0	0.678189992905	108.0	279.0	110	274	1
2.7	2015_May_08_1606	s	s	3	5	SIC	247	ABS	1	1	02VD 02VO 02VC 02MD 10MO 02MC 02RD 02RO	0	1	2.78259205818	None	None	None	None	1
2.7	2015_May_08_1606	s	s	3	5	SIC	248	RC	1	0	02VD 02VO 02VC 02MD 02MO 09MC 02RD 02RO	1	0	0.644047021866	-32.0	-43.0	-24	-47	1
2.7	2015_May_08_1606	s	s	3	5	SIC	249	RC	0	2	02VD 02VO 02VC 02MD 02MO 02MC 09RD 02RO	1	0	2.41255784035	-267.0	267.0	-261	267	1
2.7	2015_May_08_1606	s	s	3	5	SIC	250	ABS	0	1	02VD 02VO 02VC 02MD 02MO 02MC 02RD 10RO	0	1	4.47211408615	None	None	None	None	1
2.7	2015_May_08_1606	s	s	3	5	SIC	251	ABS	2	0	02VD 02VO 10VC 02MD 02MO 02MC 02RD 02RO	0	1	1.65390706062	None	None	None	None	1
2.7	2015_May_08_1606	s	s	3	5	SIC	252	RC	1	2	02VD 02VO 02VC 09MD 02MO 02MC 02RD 02RO	1	0	1.75044894218	426.0	-122.0	427	-128	1
2.7	2015_May_08_1606	s	s	3	5	SIC	253	ABS	1	0	02VD 02VO 02VC 02MD 02MO 10MC 02RD 02RO	0	1	2.62152504921	None	None	None	None	1
2.7	2015_May_08_1606	s	s	3	5	SIC	254	ABS	0	2	02VD 02VO 02VC 02MD 02MO 02MC 10RD 02RO	0	1	1.53560996056	None	None	None	None	1
2.7	2015_May_08_1606	s	s	3	5	SIC	255	ABS	2	2	10VD 02VO 02VC 02MD 02MO 02MC 02RD 02RO	0	1	1.80026197433	None	None	None	None	1
2.7	2015_May_08_1606	s	s	3	5	SIC	256	RC	0	1	02VD 02VO 02VC 02MD 02MO 02MC 02RD 09RO	1	0	1.90605688095	-330.0	-407.0	-332	-413	1
2.7	2015_May_08_1606	s	s	3	5	SIC	257	RC	1	2	02VD 02VO 02VC 09MD 02MO 02MC 02RD 02RO	1	0	1.03086805344	-476.0	-235.0	-475	-237	1
2.7	2015_May_08_1606	s	s	3	5	SIC	258	RC	1	1	02VD 02VO 02VC 02MD 09MO 02MC 02RD 02RO	1	0	1.52998495102	223.0	359.0	226	361	1
2.7	2015_May_08_1606	s	s	3	5	SIC	259	ABS	1	1	02VD 02VO 02VC 02MD 10MO 02MC 02RD 02RO	0	1	2.36573910713	None	None	None	None	1
2.7	2015_May_08_1606	s	s	3	5	SIC	260	ABS	2	2	10VD 02VO 02VC 02MD 02MO 02MC 02RD 02RO	0	1	2.01202893257	None	None	None	None	1
2.7	2015_May_08_1606	s	s	3	5	SIC	261	ABS	2	0	02VD 02VO 10VC 02MD 02MO 02MC 02RD 02RO	0	1	1.97411489487	None	None	None	None	1
2.7	2015_May_08_1606	s	s	3	5	SIC	262	ABS	2	1	02VD 10VO 02VC 02MD 02MO 02MC 02RD 02RO	0	1	1.73522591591	None	None	None	None	1
2.7	2015_May_08_1606	s	s	3	5	SIC	263	RC	2	2	09VD 02VO 02VC 02MD 02MO 02MC 02RD 02RO	1	0	2.14161586761	418.0	404.0	425	399	1
2.7	2015_May_08_1606	s	s	3	5	SIC	264	ABS	1	0	02VD 02VO 02VC 02MD 02MO 10MC 02RD 02RO	0	1	2.57156991959	None	None	None	None	1
2.7	2015_May_08_1606	s	s	3	5	SIC	265	RC	1	0	02VD 02VO 02VC 02MD 02MO 09MC 02RD 02RO	1	0	1.74506402016	230.0	-63.0	227	-66	1
2.7	2015_May_08_1606	s	s	3	5	SIC	266	ABS	0	2	02VD 02VO 02VC 02MD 02MO 02MC 10RD 02RO	0	1	1.78586602211	None	None	None	None	1
2.7	2015_May_08_1606	s	s	3	5	SIC	267	RC	2	1	02VD 09VO 02VC 02MD 02MO 02MC 02RD 02RO	1	0	0.925818920135	39.0	161.0	32	160	1
2.7	2015_May_08_1606	s	s	3	5	SIC	268	RC	0	1	02VD 02VO 02VC 02MD 02MO 02MC 02RD 09RO	1	0	2.38882994652	370.0	-140.0	363	-132	1
2.7	2015_May_08_1606	s	s	3	5	SIC	269	ABS	0	1	02VD 02VO 02VC 02MD 02MO 02MC 02RD 10RO	0	1	3.9866437912	None	None	None	None	1
2.7	2015_May_08_1606	s	s	3	5	SIC	270	ABS	1	2	02VD 02VO 02VC 10MD 02MO 02MC 02RD 02RO	0	1	1.95334792137	None	None	None	None	1
2.7	2015_May_08_1606	s	s	3	5	SIC	271	RC	0	2	02VD 02VO 02VC 02MD 02MO 02MC 09RD 02RO	1	0	1.27068400383	248.0	247.0	242	247	1
2.7	2015_May_08_1606	s	s	3	5	SIC	272	RC	2	0	02VD 02VO 09VC 02MD 02MO 02MC 02RD 02RO	1	0	1.21886897087	227.0	-211.0	231	-213	1
2.7	2015_May_08_1606	s	s	3	5	SIC	273	RC	2	1	02VD 09VO 02VC 02MD 02MO 02MC 02RD 02RO	1	0	0.514300823212	55.0	-51.0	49	-49	1
2.7	2015_May_08_1606	s	s	3	5	SIC	274	RC	2	2	09VD 02VO 02VC 02MD 02MO 02MC 02RD 02RO	1	0	1.44716787338	373.0	23.0	378	19	1
2.7	2015_May_08_1606	s	s	3	5	SIC	275	ABS	0	1	02VD 02VO 02VC 02MD 02MO 02MC 02RD 10RO	0	1	3.80966615677	None	None	None	None	1
2.7	2015_May_08_1606	s	s	3	5	SIC	276	RC	1	2	02VD 02VO 02VC 09MD 02MO 02MC 02RD 02RO	1	0	1.25070595741	452.0	-95.0	446	-89	1
2.7	2015_May_08_1606	s	s	3	5	SIC	277	ABS	2	1	02VD 10VO 02VC 02MD 02MO 02MC 02RD 02RO	0	1	1.69433712959	None	None	None	None	1
2.7	2015_May_08_1606	s	s	3	5	SIC	278	ABS	0	2	02VD 02VO 02VC 02MD 02MO 02MC 10RD 02RO	0	1	1.17685008049	None	None	None	None	1
2.7	2015_May_08_1606	s	s	3	5	SIC	279	ABS	1	1	02VD 02VO 02VC 02MD 10MO 02MC 02RD 02RO	0	1	1.51767301559	None	None	None	None	1
2.7	2015_May_08_1606	s	s	3	5	SIC	280	ABS	2	2	10VD 02VO 02VC 02MD 02MO 02MC 02RD 02RO	0	1	1.84739279747	None	None	None	None	1
2.7	2015_May_08_1606	s	s	3	5	SIC	281	RC	0	2	02VD 02VO 02VC 02MD 02MO 02MC 09RD 02RO	1	0	1.55311608315	-436.0	83.0	-444	79	1
2.7	2015_May_08_1606	s	s	3	5	SIC	282	ABS	2	0	02VD 02VO 10VC 02MD 02MO 02MC 02RD 02RO	0	1	1.73887109756	None	None	None	None	1
2.7	2015_May_08_1606	s	s	3	5	SIC	283	RC	2	0	02VD 02VO 09VC 02MD 02MO 02MC 02RD 02RO	0	1	1.3117518425	415.0	-157.0	None	None	0
2.7	2015_May_08_1606	s	s	3	5	SIC	284	ABS	1	2	02VD 02VO 02VC 10MD 02MO 02MC 02RD 02RO	0	1	1.47066187859	None	None	None	None	1
2.7	2015_May_08_1606	s	s	3	5	SIC	285	RC	1	0	02VD 02VO 02VC 02MD 02MO 09MC 02RD 02RO	1	0	0.835093975067	-460.0	142.0	-458	141	1
2.7	2015_May_08_1606	s	s	3	5	SIC	286	RC	1	1	02VD 02VO 02VC 02MD 09MO 02MC 02RD 02RO	1	0	0.795156002045	46.0	87.0	47	89	1
2.7	2015_May_08_1606	s	s	3	5	SIC	287	ABS	1	0	02VD 02VO 02VC 02MD 02MO 10MC 02RD 02RO	0	1	2.1018910408	None	None	None	None	1
2.7	2015_May_08_1606	s	s	3	5	SIC	288	RC	0	1	02VD 02VO 02VC 02MD 02MO 02MC 02RD 09RO	1	0	1.09044599533	-51.0	-121.0	-51	-119	1
2.7	2015_May_08_1606	s	s	3	5	SIC	289	ABS	1	0	02VD 02VO 02VC 02MD 02MO 10MC 02RD 02RO	0	1	2.218282938	None	None	None	None	1
2.7	2015_May_08_1606	s	s	3	5	SIC	290	ABS	1	1	02VD 02VO 02VC 02MD 10MO 02MC 02RD 02RO	0	1	2.25443696976	None	None	None	None	1
2.7	2015_May_08_1606	s	s	3	5	SIC	291	RC	1	1	02VD 02VO 02VC 02MD 09MO 02MC 02RD 02RO	1	0	1.42884397507	499.0	162.0	508	164	1
2.7	2015_May_08_1606	s	s	3	5	SIC	292	ABS	1	2	02VD 02VO 02VC 10MD 02MO 02MC 02RD 02RO	0	1	1.51273679733	None	None	None	None	1
2.7	2015_May_08_1606	s	s	3	5	SIC	293	RC	0	2	02VD 02VO 02VC 02MD 02MO 02MC 09RD 02RO	1	0	0.583072185516	52.0	21.0	59	17	1
2.7	2015_May_08_1606	s	s	3	5	SIC	294	RC	1	0	02VD 02VO 02VC 02MD 02MO 09MC 02RD 02RO	1	0	0.682495117188	-63.0	295.0	-61	297	1
2.7	2015_May_08_1606	s	s	3	5	SIC	295	RC	2	1	02VD 09VO 02VC 02MD 02MO 02MC 02RD 02RO	1	0	0.524326086044	-46.0	146.0	-46	147	1
2.7	2015_May_08_1606	s	s	3	5	SIC	296	RC	2	2	09VD 02VO 02VC 02MD 02MO 02MC 02RD 02RO	1	0	0.831962108612	214.0	-74.0	210	-82	1
2.7	2015_May_08_1606	s	s	3	5	SIC	297	ABS	2	0	02VD 02VO 10VC 02MD 02MO 02MC 02RD 02RO	0	1	1.62384915352	None	None	None	None	1
2.7	2015_May_08_1606	s	s	3	5	SIC	298	ABS	2	1	02VD 10VO 02VC 02MD 02MO 02MC 02RD 02RO	0	1	1.09391403198	None	None	None	None	1
2.7	2015_May_08_1606	s	s	3	5	SIC	299	ABS	0	1	02VD 02VO 02VC 02MD 02MO 02MC 02RD 10RO	0	1	3.62481594086	None	None	None	None	1
2.7	2015_May_08_1606	s	s	3	5	SIC	300	ABS	2	2	10VD 02VO 02VC 02MD 02MO 02MC 02RD 02RO	0	1	1.51326203346	None	None	None	None	1
2.7	2015_May_08_1606	s	s	3	5	SIC	301	RC	0	1	02VD 02VO 02VC 02MD 02MO 02MC 02RD 09RO	1	0	0.830121040344	-225.0	350.0	-222	359	1
2.7	2015_May_08_1606	s	s	3	5	SIC	302	ABS	0	2	02VD 02VO 02VC 02MD 02MO 02MC 10RD 02RO	0	1	1.69438719749	None	None	None	None	1
2.7	2015_May_08_1606	s	s	3	5	SIC	303	RC	2	0	02VD 02VO 09VC 02MD 02MO 02MC 02RD 02RO	1	0	0.600125074387	-178.0	65.0	-166	74	1
2.7	2015_May_08_1606	s	s	3	5	SIC	304	RC	1	2	02VD 02VO 02VC 09MD 02MO 02MC 02RD 02RO	1	0	0.971215963364	77.0	253.0	78	254	1
2.7	2015_May_08_1606	s	s	3	5	SIC	305	ABS	2	1	02VD 10VO 02VC 02MD 02MO 02MC 02RD 02RO	0	1	1.90290188789	None	None	None	None	1
2.7	2015_May_08_1606	s	s	3	5	SIC	306	ABS	1	2	02VD 02VO 02VC 10MD 02MO 02MC 02RD 02RO	0	1	2.52619385719	None	None	None	None	1
2.7	2015_May_08_1606	s	s	3	5	SIC	307	ABS	0	2	02VD 02VO 02VC 02MD 02MO 02MC 10RD 02RO	0	1	1.71267485619	None	None	None	None	1
2.7	2015_May_08_1606	s	s	3	5	SIC	308	RC	1	0	02VD 02VO 02VC 02MD 02MO 09MC 02RD 02RO	1	0	1.1293258667	238.0	-168.0	242	-166	1
2.7	2015_May_08_1606	s	s	3	5	SIC	309	RC	1	1	02VD 02VO 02VC 02MD 09MO 02MC 02RD 02RO	1	0	1.67839097977	421.0	-176.0	421	-177	1
2.7	2015_May_08_1606	s	s	3	5	SIC	310	ABS	2	2	10VD 02VO 02VC 02MD 02MO 02MC 02RD 02RO	1	0	1.97691106796	None	None	-494	-136	0
2.7	2015_May_08_1606	s	s	3	5	SIC	311	ABS	1	1	02VD 02VO 02VC 02MD 10MO 02MC 02RD 02RO	0	1	3.91625213623	None	None	None	None	1
2.7	2015_May_08_1606	s	s	3	5	SIC	312	RC	2	1	02VD 09VO 02VC 02MD 02MO 02MC 02RD 02RO	1	0	0.905707120895	269.0	-42.0	280	-39	1
2.7	2015_May_08_1606	s	s	3	5	SIC	313	RC	2	2	09VD 02VO 02VC 02MD 02MO 02MC 02RD 02RO	1	0	0.630088090897	-125.0	95.0	-120	89	1
2.7	2015_May_08_1606	s	s	3	5	SIC	314	ABS	0	1	02VD 02VO 02VC 02MD 02MO 02MC 02RD 10RO	0	1	3.7072031498	None	None	None	None	1
2.7	2015_May_08_1606	s	s	3	5	SIC	315	ABS	2	0	02VD 02VO 10VC 02MD 02MO 02MC 02RD 02RO	0	1	2.70160412788	None	None	None	None	1
2.7	2015_May_08_1606	s	s	3	5	SIC	316	ABS	1	0	02VD 02VO 02VC 02MD 02MO 10MC 02RD 02RO	0	1	4.06022810936	None	None	None	None	1
2.7	2015_May_08_1606	s	s	3	5	SIC	317	RC	2	0	02VD 02VO 09VC 02MD 02MO 02MC 02RD 02RO	1	0	2.19535207748	106.0	-199.0	112	-198	1
2.7	2015_May_08_1606	s	s	3	5	SIC	318	RC	0	2	02VD 02VO 02VC 02MD 02MO 02MC 09RD 02RO	1	0	1.07031989098	270.0	390.0	268	394	1
2.7	2015_May_08_1606	s	s	3	5	SIC	319	RC	0	1	02VD 02VO 02VC 02MD 02MO 02MC 02RD 09RO	1	0	1.47603011131	253.0	247.0	249	242	1
2.7	2015_May_08_1606	s	s	3	5	SIC	320	RC	1	2	02VD 02VO 02VC 09MD 02MO 02MC 02RD 02RO	1	0	0.587906122208	-78.0	-6.0	-76	0	1
2.7	2015_May_08_1606	s	s	3	5	SIC	321	ABS	0	1	02VD 02VO 02VC 02MD 02MO 02MC 02RD 10RO	0	1	2.97736597061	None	None	None	None	1
2.7	2015_May_08_1606	s	s	3	5	SIC	322	RC	1	0	02VD 02VO 02VC 02MD 02MO 09MC 02RD 02RO	1	0	1.97687196732	-124.0	-156.0	-114	-153	1
2.7	2015_May_08_1606	s	s	3	5	SIC	323	ABS	0	2	02VD 02VO 02VC 02MD 02MO 02MC 10RD 02RO	0	1	1.65624809265	None	None	None	None	1
2.7	2015_May_08_1606	s	s	3	5	SIC	324	RC	0	2	02VD 02VO 02VC 02MD 02MO 02MC 09RD 02RO	1	0	2.22405290604	432.0	204.0	435	196	1
2.7	2015_May_08_1606	s	s	3	5	SIC	325	ABS	2	1	02VD 10VO 02VC 02MD 02MO 02MC 02RD 02RO	0	1	1.38525795937	None	None	None	None	1
2.7	2015_May_08_1606	s	s	3	5	SIC	326	RC	2	0	02VD 02VO 09VC 02MD 02MO 02MC 02RD 02RO	1	0	0.558291912079	-285.0	116.0	-283	112	1
2.7	2015_May_08_1606	s	s	3	5	SIC	327	RC	1	2	02VD 02VO 02VC 09MD 02MO 02MC 02RD 02RO	1	0	0.49099111557	-250.0	243.0	-246	248	1
2.7	2015_May_08_1606	s	s	3	5	SIC	328	RC	1	1	02VD 02VO 02VC 02MD 09MO 02MC 02RD 02RO	1	0	1.32143807411	247.0	300.0	247	307	1
2.7	2015_May_08_1606	s	s	3	5	SIC	329	ABS	1	2	02VD 02VO 02VC 10MD 02MO 02MC 02RD 02RO	0	1	1.53875589371	None	None	None	None	1
2.7	2015_May_08_1606	s	s	3	5	SIC	330	ABS	2	2	10VD 02VO 02VC 02MD 02MO 02MC 02RD 02RO	0	1	1.45875000954	None	None	None	None	1
2.7	2015_May_08_1606	s	s	3	5	SIC	331	RC	0	1	02VD 02VO 02VC 02MD 02MO 02MC 02RD 09RO	1	0	0.773533821106	23.0	206.0	15	210	1
2.7	2015_May_08_1606	s	s	3	5	SIC	332	ABS	2	0	02VD 02VO 10VC 02MD 02MO 02MC 02RD 02RO	0	1	1.19527196884	None	None	None	None	1
2.7	2015_May_08_1606	s	s	3	5	SIC	333	RC	2	1	02VD 09VO 02VC 02MD 02MO 02MC 02RD 02RO	1	0	0.770573854446	-503.0	27.0	-508	35	1
2.7	2015_May_08_1606	s	s	3	5	SIC	334	ABS	1	0	02VD 02VO 02VC 02MD 02MO 10MC 02RD 02RO	0	1	2.11811280251	None	None	None	None	1
2.7	2015_May_08_1606	s	s	3	5	SIC	335	ABS	1	1	02VD 02VO 02VC 02MD 10MO 02MC 02RD 02RO	0	1	2.0710568428	None	None	None	None	1
2.7	2015_May_08_1606	s	s	3	5	SIC	336	RC	2	2	09VD 02VO 02VC 02MD 02MO 02MC 02RD 02RO	1	0	0.702869176865	-379.0	238.0	-389	238	1
2.7	2015_May_08_1606	s	s	3	5	SIC	337	RC	2	0	02VD 02VO 09VC 02MD 02MO 02MC 02RD 02RO	1	0	0.618175983429	-66.0	14.0	-60	10	1
2.7	2015_May_08_1606	s	s	3	5	SIC	338	ABS	0	1	02VD 02VO 02VC 02MD 02MO 02MC 02RD 10RO	0	1	3.20971393585	None	None	None	None	1
2.7	2015_May_08_1606	s	s	3	5	SIC	339	RC	0	1	02VD 02VO 02VC 02MD 02MO 02MC 02RD 09RO	1	0	1.90992093086	-399.0	53.0	-395	47	1
2.7	2015_May_08_1606	s	s	3	5	SIC	340	RC	0	2	02VD 02VO 02VC 02MD 02MO 02MC 09RD 02RO	1	0	1.09389996529	293.0	-79.0	301	-80	1
2.7	2015_May_08_1606	s	s	3	5	SIC	341	ABS	2	2	10VD 02VO 02VC 02MD 02MO 02MC 02RD 02RO	0	1	1.37651920319	None	None	None	None	1
2.7	2015_May_08_1606	s	s	3	5	SIC	342	RC	1	2	02VD 02VO 02VC 09MD 02MO 02MC 02RD 02RO	1	0	0.971071958542	395.0	-206.0	400	-206	1
2.7	2015_May_08_1606	s	s	3	5	SIC	343	ABS	2	0	02VD 02VO 10VC 02MD 02MO 02MC 02RD 02RO	0	1	1.22348809242	None	None	None	None	1
2.7	2015_May_08_1606	s	s	3	5	SIC	344	ABS	1	2	02VD 02VO 02VC 10MD 02MO 02MC 02RD 02RO	0	1	1.8827278614	None	None	None	None	1
2.7	2015_May_08_1606	s	s	3	5	SIC	345	ABS	0	2	02VD 02VO 02VC 02MD 02MO 02MC 10RD 02RO	0	1	2.35078382492	None	None	None	None	1
2.7	2015_May_08_1606	s	s	3	5	SIC	346	RC	1	1	02VD 02VO 02VC 02MD 09MO 02MC 02RD 02RO	1	0	2.11797094345	112.0	-342.0	111	-337	1
2.7	2015_May_08_1606	s	s	3	5	SIC	347	RC	1	0	02VD 02VO 02VC 02MD 02MO 09MC 02RD 02RO	1	0	2.31821894646	20.0	-365.0	24	-356	1
2.7	2015_May_08_1606	s	s	3	5	SIC	348	RC	2	2	09VD 02VO 02VC 02MD 02MO 02MC 02RD 02RO	1	0	1.12936091423	-351.0	286.0	-354	292	1
2.7	2015_May_08_1606	s	s	3	5	SIC	349	ABS	1	1	02VD 02VO 02VC 02MD 10MO 02MC 02RD 02RO	0	1	2.26662397385	None	None	None	None	1
2.7	2015_May_08_1606	s	s	3	5	SIC	350	ABS	1	0	02VD 02VO 02VC 02MD 02MO 10MC 02RD 02RO	0	1	4.54329991341	None	None	None	None	1
2.7	2015_May_08_1606	s	s	3	5	SIC	351	ABS	2	1	02VD 10VO 02VC 02MD 02MO 02MC 02RD 02RO	0	1	1.34959793091	None	None	None	None	1
2.7	2015_May_08_1606	s	s	3	5	SIC	352	RC	2	1	02VD 09VO 02VC 02MD 02MO 02MC 02RD 02RO	1	0	0.740919828415	248.0	-86.0	252	-81	1
2.7	2015_May_08_1606	s	s	3	5	SIC	353	ABS	1	2	02VD 02VO 02VC 10MD 02MO 02MC 02RD 02RO	0	1	1.62375593185	None	None	None	None	1
2.7	2015_May_08_1606	s	s	3	5	SIC	354	RC	1	2	02VD 02VO 02VC 09MD 02MO 02MC 02RD 02RO	1	0	1.14794611931	458.0	125.0	462	120	1
2.7	2015_May_08_1606	s	s	3	5	SIC	355	ABS	1	0	02VD 02VO 02VC 02MD 02MO 10MC 02RD 02RO	0	1	2.79803395271	None	None	None	None	1
2.7	2015_May_08_1606	s	s	3	5	SIC	356	ABS	0	1	02VD 02VO 02VC 02MD 02MO 02MC 02RD 10RO	0	1	2.99273896217	None	None	None	None	1
2.7	2015_May_08_1606	s	s	3	5	SIC	357	ABS	2	0	02VD 02VO 10VC 02MD 02MO 02MC 02RD 02RO	0	1	1.6001470089	None	None	None	None	1
2.7	2015_May_08_1606	s	s	3	5	SIC	358	RC	1	1	02VD 02VO 02VC 02MD 09MO 02MC 02RD 02RO	1	0	0.999904155731	489.0	114.0	491	118	1
2.7	2015_May_08_1606	s	s	3	5	SIC	359	RC	0	2	02VD 02VO 02VC 02MD 02MO 02MC 09RD 02RO	1	0	1.18337893486	-443.0	-351.0	-448	-346	1
2.7	2015_May_08_1606	s	s	3	5	SIC	360	ABS	2	2	10VD 02VO 02VC 02MD 02MO 02MC 02RD 02RO	0	1	1.70331096649	None	None	None	None	1
2.7	2015_May_08_1606	s	s	3	5	SIC	361	RC	2	1	02VD 09VO 02VC 02MD 02MO 02MC 02RD 02RO	1	0	0.529016971588	-288.0	154.0	-290	162	1
2.7	2015_May_08_1606	s	s	3	5	SIC	362	RC	2	2	09VD 02VO 02VC 02MD 02MO 02MC 02RD 02RO	1	0	0.62323307991	-94.0	56.0	-101	53	1
2.7	2015_May_08_1606	s	s	3	5	SIC	363	ABS	2	1	02VD 10VO 02VC 02MD 02MO 02MC 02RD 02RO	0	1	1.34796905518	None	None	None	None	1
2.7	2015_May_08_1606	s	s	3	5	SIC	364	RC	1	0	02VD 02VO 02VC 02MD 02MO 09MC 02RD 02RO	1	0	1.88269805908	-512.0	43.0	-512	36	1
2.7	2015_May_08_1606	s	s	3	5	SIC	365	ABS	0	2	02VD 02VO 02VC 02MD 02MO 02MC 10RD 02RO	0	1	1.80798697472	None	None	None	None	1
2.7	2015_May_08_1606	s	s	3	5	SIC	366	RC	2	0	02VD 02VO 09VC 02MD 02MO 02MC 02RD 02RO	1	0	0.69416809082	249.0	220.0	242	219	1
2.7	2015_May_08_1606	s	s	3	5	SIC	367	RC	0	1	02VD 02VO 02VC 02MD 02MO 02MC 02RD 09RO	1	0	1.67745494843	481.0	387.0	484	384	1
2.7	2015_May_08_1606	s	s	3	5	SIC	368	ABS	1	1	02VD 02VO 02VC 02MD 10MO 02MC 02RD 02RO	0	1	1.97346496582	None	None	None	None	1
2.7	2015_May_08_1606	s	s	3	5	SIC	369	RC	2	2	09VD 02VO 02VC 02MD 02MO 02MC 02RD 02RO	1	0	0.729151010513	64.0	366.0	68	370	1
2.7	2015_May_08_1606	s	s	3	5	SIC	370	ABS	0	2	02VD 02VO 02VC 02MD 02MO 02MC 10RD 02RO	0	1	2.07101202011	None	None	None	None	1
2.7	2015_May_08_1606	s	s	3	5	SIC	371	RC	1	2	02VD 02VO 02VC 09MD 02MO 02MC 02RD 02RO	1	0	1.03555703163	-519.0	260.0	-522	269	1
2.7	2015_May_08_1606	s	s	3	5	SIC	372	RC	0	2	02VD 02VO 02VC 02MD 02MO 02MC 09RD 02RO	1	0	0.818353891373	176.0	93.0	186	92	1
2.7	2015_May_08_1606	s	s	3	5	SIC	373	ABS	1	0	02VD 02VO 02VC 02MD 02MO 10MC 02RD 02RO	0	1	2.73019194603	None	None	None	None	1
2.7	2015_May_08_1606	s	s	3	5	SIC	374	ABS	2	2	10VD 02VO 02VC 02MD 02MO 02MC 02RD 02RO	0	1	1.77393579483	None	None	None	None	1
2.7	2015_May_08_1606	s	s	3	5	SIC	375	RC	2	0	02VD 02VO 09VC 02MD 02MO 02MC 02RD 02RO	1	0	0.79509305954	153.0	322.0	147	320	1
2.7	2015_May_08_1606	s	s	3	5	SIC	376	ABS	2	0	02VD 02VO 10VC 02MD 02MO 02MC 02RD 02RO	0	1	1.75938892365	None	None	None	None	1
2.7	2015_May_08_1606	s	s	3	5	SIC	377	RC	1	1	02VD 02VO 02VC 02MD 09MO 02MC 02RD 02RO	1	0	1.05870914459	93.0	-183.0	90	-181	1
2.7	2015_May_08_1606	s	s	3	5	SIC	378	ABS	0	1	02VD 02VO 02VC 02MD 02MO 02MC 02RD 10RO	0	1	3.1422021389	None	None	None	None	1
2.7	2015_May_08_1606	s	s	3	5	SIC	379	ABS	2	1	02VD 10VO 02VC 02MD 02MO 02MC 02RD 02RO	0	1	1.52996706963	None	None	None	None	1
2.7	2015_May_08_1606	s	s	3	5	SIC	380	RC	1	0	02VD 02VO 02VC 02MD 02MO 09MC 02RD 02RO	1	0	1.35287213326	428.0	365.0	431	366	1
2.7	2015_May_08_1606	s	s	3	5	SIC	381	ABS	1	1	02VD 02VO 02VC 02MD 10MO 02MC 02RD 02RO	0	1	1.60023188591	None	None	None	None	1
2.7	2015_May_08_1606	s	s	3	5	SIC	382	RC	2	1	02VD 09VO 02VC 02MD 02MO 02MC 02RD 02RO	1	0	1.1056470871	-32.0	-207.0	-26	-209	1
2.7	2015_May_08_1606	s	s	3	5	SIC	383	ABS	1	2	02VD 02VO 02VC 10MD 02MO 02MC 02RD 02RO	0	1	1.58851695061	None	None	None	None	1
2.7	2015_May_08_1606	s	s	3	5	SIC	384	RC	0	1	02VD 02VO 02VC 02MD 02MO 02MC 02RD 09RO	1	0	1.82388710976	181.0	-338.0	173	-334	1
2.7	2015_May_08_1606	s	s	3	5	SIC	385	ABS	2	2	10VD 02VO 02VC 02MD 02MO 02MC 02RD 02RO	0	1	1.75068211555	None	None	None	None	1
2.7	2015_May_08_1606	s	s	3	5	SIC	386	ABS	0	1	02VD 02VO 02VC 02MD 02MO 02MC 02RD 10RO	0	1	2.61890697479	None	None	None	None	1
2.7	2015_May_08_1606	s	s	3	5	SIC	387	RC	1	2	02VD 02VO 02VC 09MD 02MO 02MC 02RD 02RO	0	1	2.78483486176	501.0	396.0	None	None	0
2.7	2015_May_08_1606	s	s	3	5	SIC	388	ABS	0	2	02VD 02VO 02VC 02MD 02MO 02MC 10RD 02RO	0	1	1.80566000938	None	None	None	None	1
2.7	2015_May_08_1606	s	s	3	5	SIC	389	ABS	2	0	02VD 02VO 10VC 02MD 02MO 02MC 02RD 02RO	0	1	1.72961521149	None	None	None	None	1
2.7	2015_May_08_1606	s	s	3	5	SIC	390	RC	0	1	02VD 02VO 02VC 02MD 02MO 02MC 02RD 09RO	1	0	0.961868047714	-273.0	310.0	-279	310	1
2.7	2015_May_08_1606	s	s	3	5	SIC	391	RC	1	0	02VD 02VO 02VC 02MD 02MO 09MC 02RD 02RO	1	0	0.980747938156	356.0	132.0	355	126	1
2.7	2015_May_08_1606	s	s	3	5	SIC	392	ABS	2	1	02VD 10VO 02VC 02MD 02MO 02MC 02RD 02RO	0	1	1.82142090797	None	None	None	None	1
2.7	2015_May_08_1606	s	s	3	5	SIC	393	RC	2	2	09VD 02VO 02VC 02MD 02MO 02MC 02RD 02RO	1	0	1.15286397934	-58.0	284.0	-52	286	1
2.7	2015_May_08_1606	s	s	3	5	SIC	394	RC	1	1	02VD 02VO 02VC 02MD 09MO 02MC 02RD 02RO	1	0	1.18807387352	415.0	344.0	423	343	1
2.7	2015_May_08_1606	s	s	3	5	SIC	395	RC	2	1	02VD 09VO 02VC 02MD 02MO 02MC 02RD 02RO	0	1	1.57103586197	-505.0	-303.0	None	None	0
2.7	2015_May_08_1606	s	s	3	5	SIC	396	ABS	1	0	02VD 02VO 02VC 02MD 02MO 10MC 02RD 02RO	0	1	2.45593309402	None	None	None	None	1
2.7	2015_May_08_1606	s	s	3	5	SIC	397	RC	0	2	02VD 02VO 02VC 02MD 02MO 02MC 09RD 02RO	1	0	0.922976016998	-415.0	-310.0	-413	-317	1
2.7	2015_May_08_1606	s	s	3	5	SIC	398	RC	2	0	02VD 02VO 09VC 02MD 02MO 02MC 02RD 02RO	1	0	0.714032173157	-151.0	-116.0	-145	-108	1
2.7	2015_May_08_1606	s	s	3	5	SIC	399	ABS	1	2	02VD 02VO 02VC 10MD 02MO 02MC 02RD 02RO	0	1	2.25439405441	None	None	None	None	1
2.7	2015_May_08_1606	s	s	3	5	SIC	400	ABS	1	1	02VD 02VO 02VC 02MD 10MO 02MC 02RD 02RO	0	1	2.72749400139	None	None	None	None	1
2.7	2015_May_08_1606	s	s	3	5	SIC	401	ABS	1	0	02VD 02VO 02VC 02MD 02MO 10MC 02RD 02RO	0	1	2.15348410606	None	None	None	None	1
2.7	2015_May_08_1606	s	s	3	5	SIC	402	RC	1	0	02VD 02VO 02VC 02MD 02MO 09MC 02RD 02RO	1	0	0.776226043701	124.0	110.0	123	104	1
2.7	2015_May_08_1606	s	s	3	5	SIC	403	ABS	2	0	02VD 02VO 10VC 02MD 02MO 02MC 02RD 02RO	0	1	1.6944270134	None	None	None	None	1
2.7	2015_May_08_1606	s	s	3	5	SIC	404	RC	2	2	09VD 02VO 02VC 02MD 02MO 02MC 02RD 02RO	1	0	1.6119890213	476.0	134.0	478	138	1
2.7	2015_May_08_1606	s	s	3	5	SIC	405	RC	2	0	02VD 02VO 09VC 02MD 02MO 02MC 02RD 02RO	1	0	0.999908924103	253.0	25.0	246	28	1
2.7	2015_May_08_1606	s	s	3	5	SIC	406	RC	1	2	02VD 02VO 02VC 09MD 02MO 02MC 02RD 02RO	1	0	1.78839683533	434.0	-305.0	445	-305	1
2.7	2015_May_08_1606	s	s	3	5	SIC	407	ABS	0	1	02VD 02VO 02VC 02MD 02MO 02MC 02RD 10RO	0	1	4.16612386703	None	None	None	None	1
2.7	2015_May_08_1606	s	s	3	5	SIC	408	ABS	2	1	02VD 10VO 02VC 02MD 02MO 02MC 02RD 02RO	0	1	1.68317198753	None	None	None	None	1
2.7	2015_May_08_1606	s	s	3	5	SIC	409	RC	0	2	02VD 02VO 02VC 02MD 02MO 02MC 09RD 02RO	1	0	0.700642824173	98.0	-15.0	98	-34	1
2.7	2015_May_08_1606	s	s	3	5	SIC	410	RC	2	1	02VD 09VO 02VC 02MD 02MO 02MC 02RD 02RO	1	0	1.93883395195	-276.0	-186.0	-274	-181	1
2.7	2015_May_08_1606	s	s	3	5	SIC	411	RC	1	1	02VD 02VO 02VC 02MD 09MO 02MC 02RD 02RO	1	0	1.01198101044	1.0	338.0	4	342	1
2.7	2015_May_08_1606	s	s	3	5	SIC	412	ABS	0	2	02VD 02VO 02VC 02MD 02MO 02MC 10RD 02RO	0	1	2.0189230442	None	None	None	None	1
2.7	2015_May_08_1606	s	s	3	5	SIC	413	ABS	1	2	02VD 02VO 02VC 10MD 02MO 02MC 02RD 02RO	0	1	1.66829204559	None	None	None	None	1
2.7	2015_May_08_1606	s	s	3	5	SIC	414	RC	0	1	02VD 02VO 02VC 02MD 02MO 02MC 02RD 09RO	1	0	3.32776498795	-509.0	-197.0	-510	-204	1
2.7	2015_May_08_1606	s	s	3	5	SIC	415	ABS	1	1	02VD 02VO 02VC 02MD 10MO 02MC 02RD 02RO	0	1	2.424077034	None	None	None	None	1
2.7	2015_May_08_1606	s	s	3	5	SIC	416	ABS	2	2	10VD 02VO 02VC 02MD 02MO 02MC 02RD 02RO	0	1	1.68244600296	None	None	None	None	1
2.7	2015_May_08_1606	s	s	3	5	SIC	417	ABS	2	1	02VD 10VO 02VC 02MD 02MO 02MC 02RD 02RO	0	1	1.21179890633	None	None	None	None	1
2.7	2015_May_08_1606	s	s	3	5	SIC	418	ABS	2	2	10VD 02VO 02VC 02MD 02MO 02MC 02RD 02RO	0	1	1.46793198586	None	None	None	None	1
2.7	2015_May_08_1606	s	s	3	5	SIC	419	RC	1	2	02VD 02VO 02VC 09MD 02MO 02MC 02RD 02RO	1	0	0.93829703331	390.0	41.0	384	46	1
2.7	2015_May_08_1606	s	s	3	5	SIC	420	RC	1	0	02VD 02VO 02VC 02MD 02MO 09MC 02RD 02RO	1	0	1.62372398376	-25.0	-347.0	-28	-343	1
2.7	2015_May_08_1606	s	s	3	5	SIC	421	RC	1	1	02VD 02VO 02VC 02MD 09MO 02MC 02RD 02RO	0	1	1.25435304642	-340.0	410.0	None	None	0
2.7	2015_May_08_1606	s	s	3	5	SIC	422	ABS	0	1	02VD 02VO 02VC 02MD 02MO 02MC 02RD 10RO	0	1	4.7782740593	None	None	None	None	1
2.7	2015_May_08_1606	s	s	3	5	SIC	423	RC	2	0	02VD 02VO 09VC 02MD 02MO 02MC 02RD 02RO	1	0	1.93834495544	325.0	166.0	320	173	1
2.7	2015_May_08_1606	s	s	3	5	SIC	424	ABS	1	2	02VD 02VO 02VC 10MD 02MO 02MC 02RD 02RO	0	1	1.54136490822	None	None	None	None	1
2.7	2015_May_08_1606	s	s	3	5	SIC	425	RC	0	1	02VD 02VO 02VC 02MD 02MO 02MC 02RD 09RO	1	0	0.759533882141	-448.0	6.0	-453	11	1
2.7	2015_May_08_1606	s	s	3	5	SIC	426	ABS	0	2	02VD 02VO 02VC 02MD 02MO 02MC 10RD 02RO	0	1	2.08280205727	None	None	None	None	1
2.7	2015_May_08_1606	s	s	3	5	SIC	427	RC	2	1	02VD 09VO 02VC 02MD 02MO 02MC 02RD 02RO	1	0	0.573268175125	105.0	244.0	110	244	1
2.7	2015_May_08_1606	s	s	3	5	SIC	428	RC	0	2	02VD 02VO 02VC 02MD 02MO 02MC 09RD 02RO	1	0	0.688087940216	-128.0	126.0	-121	132	1
2.7	2015_May_08_1606	s	s	3	5	SIC	429	ABS	2	0	02VD 02VO 10VC 02MD 02MO 02MC 02RD 02RO	0	1	1.97673296928	None	None	None	None	1
2.7	2015_May_08_1606	s	s	3	5	SIC	430	ABS	1	0	02VD 02VO 02VC 02MD 02MO 10MC 02RD 02RO	0	1	2.30635213852	None	None	None	None	1
2.7	2015_May_08_1606	s	s	3	5	SIC	431	RC	2	2	09VD 02VO 02VC 02MD 02MO 02MC 02RD 02RO	1	0	0.726408958435	-268.0	-10.0	-271	-13	1
2.7	2015_May_08_1606	s	s	3	5	SIC	432	ABS	1	1	02VD 02VO 02VC 02MD 10MO 02MC 02RD 02RO	0	1	2.11828303337	None	None	None	None	1
2.7	2015_May_08_1606	s	s	3	5	SIC	433	RC	0	1	02VD 02VO 02VC 02MD 02MO 02MC 02RD 09RO	1	0	2.64406991005	199.0	-318.0	195	-310	1
2.7	2015_May_08_1606	s	s	3	5	SIC	434	ABS	2	0	02VD 02VO 10VC 02MD 02MO 02MC 02RD 02RO	0	1	1.98517799377	None	None	None	None	1
2.7	2015_May_08_1606	s	s	3	5	SIC	435	ABS	0	1	02VD 02VO 02VC 02MD 02MO 02MC 02RD 10RO	0	1	2.91849994659	None	None	None	None	1
2.7	2015_May_08_1606	s	s	3	5	SIC	436	RC	2	1	02VD 09VO 02VC 02MD 02MO 02MC 02RD 02RO	1	0	0.984892845154	-429.0	140.0	-430	146	1
2.7	2015_May_08_1606	s	s	3	5	SIC	437	ABS	2	2	10VD 02VO 02VC 02MD 02MO 02MC 02RD 02RO	0	1	2.28026294708	None	None	None	None	1
2.7	2015_May_08_1606	s	s	3	5	SIC	438	RC	1	0	02VD 02VO 02VC 02MD 02MO 09MC 02RD 02RO	0	1	3.04781389236	65.0	346.0	None	None	0
2.7	2015_May_08_1606	s	s	3	5	SIC	439	ABS	1	2	02VD 02VO 02VC 10MD 02MO 02MC 02RD 02RO	0	1	1.96232295036	None	None	None	None	1
2.7	2015_May_08_1606	s	s	3	5	SIC	440	RC	2	2	09VD 02VO 02VC 02MD 02MO 02MC 02RD 02RO	1	0	1.3294839859	346.0	158.0	351	157	1
2.7	2015_May_08_1606	s	s	3	5	SIC	441	RC	2	0	02VD 02VO 09VC 02MD 02MO 02MC 02RD 02RO	1	0	1.62371492386	263.0	-301.0	258	-299	1
2.7	2015_May_08_1606	s	s	3	5	SIC	442	RC	0	2	02VD 02VO 02VC 02MD 02MO 02MC 09RD 02RO	1	0	2.11813902855	461.0	95.0	466	94	1
2.7	2015_May_08_1606	s	s	3	5	SIC	443	ABS	0	2	02VD 02VO 02VC 02MD 02MO 02MC 10RD 02RO	0	1	1.800137043	None	None	None	None	1
2.7	2015_May_08_1606	s	s	3	5	SIC	444	RC	1	2	02VD 02VO 02VC 09MD 02MO 02MC 02RD 02RO	1	0	0.536731004715	-285.0	280.0	-284	281	1
2.7	2015_May_08_1606	s	s	3	5	SIC	445	ABS	1	1	02VD 02VO 02VC 02MD 10MO 02MC 02RD 02RO	0	1	1.6943128109	None	None	None	None	1
2.7	2015_May_08_1606	s	s	3	5	SIC	446	RC	1	1	02VD 02VO 02VC 02MD 09MO 02MC 02RD 02RO	1	0	1.82388186455	114.0	-123.0	120	-120	1
2.7	2015_May_08_1606	s	s	3	5	SIC	447	ABS	2	1	02VD 10VO 02VC 02MD 02MO 02MC 02RD 02RO	0	1	2.40750002861	None	None	None	None	1
2.7	2015_May_08_1606	s	s	3	5	SIC	448	ABS	1	0	02VD 02VO 02VC 02MD 02MO 10MC 02RD 02RO	0	1	2.47122597694	None	None	None	None	1
2.7	2015_May_08_1606	s	s	3	5	SIC	449	ABS	2	2	10VD 02VO 02VC 02MD 02MO 02MC 02RD 02RO	1	0	2.34943795204	None	None	302	-365	0
2.7	2015_May_08_1606	s	s	3	5	SIC	450	RC	0	2	02VD 02VO 02VC 02MD 02MO 02MC 09RD 02RO	1	0	0.924688100815	-68.0	401.0	-62	398	1
2.7	2015_May_08_1606	s	s	3	5	SIC	451	ABS	0	1	02VD 02VO 02VC 02MD 02MO 02MC 02RD 10RO	0	1	3.62475800514	None	None	None	None	1
2.7	2015_May_08_1606	s	s	3	5	SIC	452	RC	1	1	02VD 02VO 02VC 02MD 09MO 02MC 02RD 02RO	1	0	0.879251003265	-507.0	336.0	-516	336	1
2.7	2015_May_08_1606	s	s	3	5	SIC	453	ABS	2	0	02VD 02VO 10VC 02MD 02MO 02MC 02RD 02RO	0	1	1.67555999756	None	None	None	None	1
2.7	2015_May_08_1606	s	s	3	5	SIC	454	ABS	1	0	02VD 02VO 02VC 02MD 02MO 10MC 02RD 02RO	0	1	4.00127792358	None	None	None	None	1
2.7	2015_May_08_1606	s	s	3	5	SIC	455	RC	2	2	09VD 02VO 02VC 02MD 02MO 02MC 02RD 02RO	1	0	1.01164698601	-265.0	-137.0	-267	-135	1
2.7	2015_May_08_1606	s	s	3	5	SIC	456	ABS	0	2	02VD 02VO 02VC 02MD 02MO 02MC 10RD 02RO	0	1	2.03548192978	None	None	None	None	1
2.7	2015_May_08_1606	s	s	3	5	SIC	457	RC	2	1	02VD 09VO 02VC 02MD 02MO 02MC 02RD 02RO	1	0	1.07047390938	496.0	193.0	505	190	1
2.7	2015_May_08_1606	s	s	3	5	SIC	458	RC	1	0	02VD 02VO 02VC 02MD 02MO 09MC 02RD 02RO	1	0	1.82975792885	-525.0	-399.0	-524	-401	1
2.7	2015_May_08_1606	s	s	3	5	SIC	459	ABS	1	1	02VD 02VO 02VC 02MD 10MO 02MC 02RD 02RO	0	1	2.08947396278	None	None	None	None	1
2.7	2015_May_08_1606	s	s	3	5	SIC	460	RC	2	0	02VD 02VO 09VC 02MD 02MO 02MC 02RD 02RO	1	0	1.66777205467	-308.0	-356.0	-312	-364	1
2.7	2015_May_08_1606	s	s	3	5	SIC	461	RC	0	1	02VD 02VO 02VC 02MD 02MO 02MC 02RD 09RO	1	0	1.4562959671	-396.0	-243.0	-397	-234	1
2.7	2015_May_08_1606	s	s	3	5	SIC	462	ABS	2	1	02VD 10VO 02VC 02MD 02MO 02MC 02RD 02RO	0	1	1.82371497154	None	None	None	None	1
2.7	2015_May_08_1606	s	s	3	5	SIC	463	RC	1	2	02VD 02VO 02VC 09MD 02MO 02MC 02RD 02RO	1	0	2.00768208504	-214.0	-312.0	-216	-313	1
2.7	2015_May_08_1606	s	s	3	5	SIC	464	ABS	1	2	02VD 02VO 02VC 10MD 02MO 02MC 02RD 02RO	1	0	1.40527176857	None	None	232	384	0
2.7	2015_May_08_1606	s	s	3	5	SIC	465	ABS	2	1	02VD 10VO 02VC 02MD 02MO 02MC 02RD 02RO	0	1	1.42366409302	None	None	None	None	1
2.7	2015_May_08_1606	s	s	3	5	SIC	466	ABS	2	2	10VD 02VO 02VC 02MD 02MO 02MC 02RD 02RO	0	1	1.44263792038	None	None	None	None	1
2.7	2015_May_08_1606	s	s	3	5	SIC	467	RC	1	2	02VD 02VO 02VC 09MD 02MO 02MC 02RD 02RO	1	0	0.735584974289	-56.0	286.0	-62	292	1
2.7	2015_May_08_1606	s	s	3	5	SIC	468	RC	1	1	02VD 02VO 02VC 02MD 09MO 02MC 02RD 02RO	1	0	1.18809103966	-390.0	357.0	-392	364	1
2.7	2015_May_08_1606	s	s	3	5	SIC	469	RC	2	1	02VD 09VO 02VC 02MD 02MO 02MC 02RD 02RO	1	0	0.620495080948	-40.0	10.0	-40	7	1
2.7	2015_May_08_1606	s	s	3	5	SIC	470	ABS	1	2	02VD 02VO 02VC 10MD 02MO 02MC 02RD 02RO	0	1	1.87798404694	None	None	None	None	1
2.7	2015_May_08_1606	s	s	3	5	SIC	471	ABS	0	1	02VD 02VO 02VC 02MD 02MO 02MC 02RD 10RO	0	1	3.31410288811	None	None	None	None	1
2.7	2015_May_08_1606	s	s	3	5	SIC	472	ABS	1	0	02VD 02VO 02VC 02MD 02MO 10MC 02RD 02RO	0	1	2.51471400261	None	None	None	None	1
2.7	2015_May_08_1606	s	s	3	5	SIC	473	RC	2	2	09VD 02VO 02VC 02MD 02MO 02MC 02RD 02RO	1	0	2.08274888992	486.0	235.0	482	242	1
2.7	2015_May_08_1606	s	s	3	5	SIC	474	ABS	1	1	02VD 02VO 02VC 02MD 10MO 02MC 02RD 02RO	0	1	2.4711689949	None	None	None	None	1
2.7	2015_May_08_1606	s	s	3	5	SIC	475	ABS	2	0	02VD 02VO 10VC 02MD 02MO 02MC 02RD 02RO	0	1	1.61196613312	None	None	None	None	1
2.7	2015_May_08_1606	s	s	3	5	SIC	476	RC	2	0	02VD 02VO 09VC 02MD 02MO 02MC 02RD 02RO	1	0	0.961135864258	34.0	-151.0	20	-143	1
2.7	2015_May_08_1606	s	s	3	5	SIC	477	RC	1	0	02VD 02VO 02VC 02MD 02MO 09MC 02RD 02RO	1	0	3.44814991951	-508.0	215.0	-521	219	1
2.7	2015_May_08_1606	s	s	3	5	SIC	478	ABS	0	2	02VD 02VO 02VC 02MD 02MO 02MC 10RD 02RO	0	1	1.47069406509	None	None	None	None	1
2.7	2015_May_08_1606	s	s	3	5	SIC	479	RC	0	2	02VD 02VO 02VC 02MD 02MO 02MC 09RD 02RO	1	0	1.2914390564	506.0	140.0	512	134	1
2.7	2015_May_08_1606	s	s	3	5	SIC	480	RC	0	1	02VD 02VO 02VC 02MD 02MO 02MC 02RD 09RO	1	0	1.58892202377	-412.0	193.0	-407	186	1
