Version	Date	Stimuli	Method	Subject	Session	Condition	Trial	Target	Channel1	Channel2	Distractors	LMouseButton	RMouseButton	RT	TargetX	TargetY	ResponseX	ResponseY	Correct
2.7	2015_May_04_1236	s	s	3	1	Capacity	1	ABS	0	1	08RD 16RO	0	1	4.40779495239	None	None	None	None	1
2.7	2015_May_04_1236	s	s	3	1	Capacity	2	RC	0	2	15RD 08RO	1	0	1.71781897545	-325.0	100.0	-323	99	1
2.7	2015_May_04_1236	s	s	3	1	Capacity	3	RC	0	1	08RD 15RO	1	0	4.78999495506	488.0	260.0	490	267	1
2.7	2015_May_04_1236	s	s	3	1	Capacity	4	ABS	0	2	16RD 08RO	0	1	4.85791707039	None	None	None	None	1
2.7	2015_May_04_1236	s	s	3	1	Capacity	5	ABS	0	1	08RD 16RO	0	1	6.00935006142	None	None	None	None	1
2.7	2015_May_04_1236	s	s	3	1	Capacity	6	RC	0	2	15RD 08RO	1	0	3.15065693855	-258.0	-314.0	-264	-314	1
2.7	2015_May_04_1236	s	s	3	1	Capacity	7	ABS	0	2	16RD 08RO	0	1	3.25969099998	None	None	None	None	1
2.7	2015_May_04_1236	s	s	3	1	Capacity	8	RC	0	1	08RD 15RO	1	0	1.41176104546	-17.0	0.0	-21	5	1
2.7	2015_May_04_1236	s	s	3	1	Capacity	9	ABS	0	2	16RD 08RO	0	1	3.71387481689	None	None	None	None	1
2.7	2015_May_04_1236	s	s	3	1	Capacity	10	RC	0	1	08RD 15RO	1	0	1.82808113098	328.0	365.0	336	367	1
2.7	2015_May_04_1236	s	s	3	1	Capacity	11	ABS	0	1	08RD 16RO	0	1	6.11997890472	None	None	None	None	1
2.7	2015_May_04_1236	s	s	3	1	Capacity	12	RC	0	2	15RD 08RO	1	0	2.60634183884	97.0	-119.0	100	-114	1
2.7	2015_May_04_1236	s	s	3	1	Capacity	13	ABS	0	2	16RD 08RO	0	1	2.70667695999	None	None	None	None	1
2.7	2015_May_04_1236	s	s	3	1	Capacity	14	RC	0	1	08RD 15RO	1	0	2.10361289978	-70.0	308.0	-67	303	1
2.7	2015_May_04_1236	s	s	3	1	Capacity	15	RC	0	2	15RD 08RO	1	0	2.44769001007	291.0	-278.0	291	-270	1
2.7	2015_May_04_1236	s	s	3	1	Capacity	16	ABS	0	1	08RD 16RO	0	1	4.56653499603	None	None	None	None	1
2.7	2015_May_04_1236	s	s	3	1	Capacity	17	ABS	0	1	08RD 16RO	0	1	4.42519688606	None	None	None	None	1
2.7	2015_May_04_1236	s	s	3	1	Capacity	18	RC	0	1	08RD 15RO	1	0	1.33872318268	-183.0	-362.0	-184	-365	1
2.7	2015_May_04_1236	s	s	3	1	Capacity	19	RC	0	2	15RD 08RO	1	0	3.25238418579	416.0	263.0	419	258	1
2.7	2015_May_04_1236	s	s	3	1	Capacity	20	ABS	0	2	16RD 08RO	0	1	3.27981305122	None	None	None	None	1
2.7	2015_May_04_1236	s	s	3	1	Capacity	21	RC	0	1	08RD 15RO	1	0	4.90771508217	513.0	-83.0	507	-84	1
2.7	2015_May_04_1236	s	s	3	1	Capacity	22	RC	0	2	15RD 08RO	1	0	1.21807003021	-463.0	-152.0	-466	-146	1
2.7	2015_May_04_1236	s	s	3	1	Capacity	23	ABS	0	2	16RD 08RO	0	1	4.00182294846	None	None	None	None	1
2.7	2015_May_04_1236	s	s	3	1	Capacity	24	ABS	0	1	08RD 16RO	0	1	6.40267205238	None	None	None	None	1
2.7	2015_May_04_1236	s	s	3	1	Capacity	25	RC	0	2	15RD 08RO	1	0	2.64775204659	-136.0	407.0	-131	399	1
2.7	2015_May_04_1236	s	s	3	1	Capacity	26	ABS	0	1	08RD 16RO	0	1	4.22503113747	None	None	None	None	1
2.7	2015_May_04_1236	s	s	3	1	Capacity	27	RC	0	1	08RD 15RO	1	0	2.50654411316	350.0	84.0	357	85	1
2.7	2015_May_04_1236	s	s	3	1	Capacity	28	ABS	0	2	16RD 08RO	0	1	3.63165593147	None	None	None	None	1
2.7	2015_May_04_1236	s	s	3	1	Capacity	29	ABS	0	1	08RD 16RO	0	1	3.54246401787	None	None	None	None	1
2.7	2015_May_04_1236	s	s	3	1	Capacity	30	ABS	0	2	16RD 08RO	0	1	3.60125303268	None	None	None	None	1
2.7	2015_May_04_1236	s	s	3	1	Capacity	31	RC	0	1	08RD 15RO	1	0	1.01162409782	-325.0	-132.0	-324	-132	1
2.7	2015_May_04_1236	s	s	3	1	Capacity	32	RC	0	2	15RD 08RO	1	0	1.54136109352	-342.0	-368.0	-337	-367	1
2.7	2015_May_04_1236	s	s	3	1	Capacity	33	RC	0	1	08RD 15RO	1	0	2.14145612717	451.0	-316.0	447	-312	1
2.7	2015_May_04_1236	s	s	3	1	Capacity	34	ABS	0	2	16RD 08RO	0	1	2.73567795753	None	None	None	None	1
2.7	2015_May_04_1236	s	s	3	1	Capacity	35	RC	0	2	15RD 08RO	1	0	0.988167047501	-345.0	339.0	-341	339	1
2.7	2015_May_04_1236	s	s	3	1	Capacity	36	ABS	0	1	08RD 16RO	0	1	4.55462408066	None	None	None	None	1
2.7	2015_May_04_1236	s	s	3	1	Capacity	37	RC	0	1	08RD 15RO	1	0	2.68040394783	303.0	-331.0	296	-326	1
2.7	2015_May_04_1236	s	s	3	1	Capacity	38	ABS	0	2	16RD 08RO	0	1	3.12562799454	None	None	None	None	1
2.7	2015_May_04_1236	s	s	3	1	Capacity	39	ABS	0	1	08RD 16RO	0	1	4.63702178001	None	None	None	None	1
2.7	2015_May_04_1236	s	s	3	1	Capacity	40	RC	0	2	15RD 08RO	1	0	0.89160990715	-115.0	16.0	-117	5	1
2.7	2015_May_04_1236	s	s	3	1	Capacity	41	RC	0	2	15RD 08RO	1	0	1.46630215645	-503.0	180.0	-513	183	1
2.7	2015_May_04_1236	s	s	3	1	Capacity	42	ABS	0	1	08RD 16RO	0	1	3.6482770443	None	None	None	None	1
2.7	2015_May_04_1236	s	s	3	1	Capacity	43	ABS	0	2	16RD 08RO	0	1	2.20911097527	None	None	None	None	1
2.7	2015_May_04_1236	s	s	3	1	Capacity	44	RC	0	1	08RD 15RO	1	0	3.18657302856	532.0	-98.0	536	-97	1
2.7	2015_May_04_1236	s	s	3	1	Capacity	45	RC	0	2	15RD 08RO	1	0	1.58841991425	397.0	130.0	387	139	1
2.7	2015_May_04_1236	s	s	3	1	Capacity	46	ABS	0	2	16RD 08RO	0	1	2.63053202629	None	None	None	None	1
2.7	2015_May_04_1236	s	s	3	1	Capacity	47	ABS	0	1	08RD 16RO	0	1	4.67867183685	None	None	None	None	1
2.7	2015_May_04_1236	s	s	3	1	Capacity	48	RC	0	1	08RD 15RO	1	0	3.00881409645	-267.0	-133.0	-257	-129	1
2.7	2015_May_04_1236	s	s	3	1	Capacity	49	ABS	0	1	08RD 16RO	0	1	4.06028819084	None	None	None	None	1
2.7	2015_May_04_1236	s	s	3	1	Capacity	50	ABS	0	2	16RD 08RO	0	1	3.39520978928	None	None	None	None	1
2.7	2015_May_04_1236	s	s	3	1	Capacity	51	RC	0	1	08RD 15RO	1	0	0.91788816452	-464.0	262.0	-467	267	1
2.7	2015_May_04_1236	s	s	3	1	Capacity	52	RC	0	2	15RD 08RO	0	1	2.95040893555	-437.0	-4.0	None	None	0
2.7	2015_May_04_1236	s	s	3	1	Capacity	53	ABS	0	1	08RD 16RO	0	1	5.68210196495	None	None	None	None	1
2.7	2015_May_04_1236	s	s	3	1	Capacity	54	ABS	0	2	16RD 08RO	0	1	6.00258708	None	None	None	None	1
2.7	2015_May_04_1236	s	s	3	1	Capacity	55	RC	0	1	08RD 15RO	1	0	1.56243419647	-388.0	-88.0	-388	-85	1
2.7	2015_May_04_1236	s	s	3	1	Capacity	56	RC	0	2	15RD 08RO	1	0	2.47761416435	209.0	-353.0	200	-351	1
2.7	2015_May_04_1236	s	s	3	1	Capacity	57	ABS	0	1	08RD 16RO	0	1	3.51862096786	None	None	None	None	1
2.7	2015_May_04_1236	s	s	3	1	Capacity	58	RC	0	2	15RD 08RO	1	0	0.830410003662	-356.0	61.0	-355	69	1
2.7	2015_May_04_1236	s	s	3	1	Capacity	59	RC	0	1	08RD 15RO	1	0	2.11799788475	539.0	235.0	539	225	1
2.7	2015_May_04_1236	s	s	3	1	Capacity	60	ABS	0	2	16RD 08RO	0	1	2.31354188919	None	None	None	None	1
2.7	2015_May_04_1236	s	s	3	1	Capacity	61	ABS	0	1	08RD 16RO	0	1	4.75460004807	None	None	None	None	1
2.7	2015_May_04_1236	s	s	3	1	Capacity	62	RC	0	1	08RD 15RO	1	0	1.13346219063	193.0	352.0	191	357	1
2.7	2015_May_04_1236	s	s	3	1	Capacity	63	ABS	0	2	16RD 08RO	0	1	2.36546111107	None	None	None	None	1
2.7	2015_May_04_1236	s	s	3	1	Capacity	64	RC	0	2	15RD 08RO	1	0	3.31652903557	364.0	-390.0	357	-383	1
2.7	2015_May_04_1236	s	s	3	1	Capacity	1	ABS	1	0	08VC 16MC	0	1	4.82274198532	None	None	None	None	1
2.7	2015_May_04_1236	s	s	3	1	Capacity	2	RC	1	0	08VC 15MC	1	0	4.95474982262	-294.0	329.0	-297	333	1
2.7	2015_May_04_1236	s	s	3	1	Capacity	3	ABS	2	0	16VC 08MC	0	1	3.75163412094	None	None	None	None	1
2.7	2015_May_04_1236	s	s	3	1	Capacity	4	RC	2	0	15VC 08MC	1	0	2.12993502617	183.0	-195.0	192	-189	1
2.7	2015_May_04_1236	s	s	3	1	Capacity	5	ABS	2	0	16VC 08MC	0	1	6.12006306648	None	None	None	None	1
2.7	2015_May_04_1236	s	s	3	1	Capacity	6	ABS	1	0	08VC 16MC	0	1	8.34497690201	None	None	None	None	1
2.7	2015_May_04_1236	s	s	3	1	Capacity	7	RC	2	0	15VC 08MC	1	0	1.36465215683	-433.0	302.0	-432	290	1
2.7	2015_May_04_1236	s	s	3	1	Capacity	8	RC	1	0	08VC 15MC	1	0	4.06407499313	503.0	220.0	496	228	1
2.7	2015_May_04_1236	s	s	3	1	Capacity	9	ABS	2	0	16VC 08MC	0	1	4.86895012856	None	None	None	None	1
2.7	2015_May_04_1236	s	s	3	1	Capacity	10	RC	1	0	08VC 15MC	1	0	1.49425196648	169.0	-248.0	180	-244	1
2.7	2015_May_04_1236	s	s	3	1	Capacity	11	ABS	1	0	08VC 16MC	0	1	7.42668581009	None	None	None	None	1
2.7	2015_May_04_1236	s	s	3	1	Capacity	12	RC	2	0	15VC 08MC	1	0	1.89480400085	314.0	-205.0	322	-202	1
2.7	2015_May_04_1236	s	s	3	1	Capacity	13	ABS	2	0	16VC 08MC	0	1	3.73072195053	None	None	None	None	1
2.7	2015_May_04_1236	s	s	3	1	Capacity	14	ABS	1	0	08VC 16MC	0	1	8.04719209671	None	None	None	None	1
2.7	2015_May_04_1236	s	s	3	1	Capacity	15	RC	2	0	15VC 08MC	1	0	1.7885260582	-174.0	313.0	-169	306	1
2.7	2015_May_04_1236	s	s	3	1	Capacity	16	RC	1	0	08VC 15MC	1	0	1.32370305061	-248.0	-28.0	-235	-19	1
2.7	2015_May_04_1236	s	s	3	1	Capacity	17	ABS	2	0	16VC 08MC	0	1	3.49524497986	None	None	None	None	1
2.7	2015_May_04_1236	s	s	3	1	Capacity	18	RC	2	0	15VC 08MC	1	0	0.915182828903	-358.0	-185.0	-357	-191	1
2.7	2015_May_04_1236	s	s	3	1	Capacity	19	RC	1	0	08VC 15MC	1	0	1.92967796326	-1.0	-385.0	-6	-382	1
2.7	2015_May_04_1236	s	s	3	1	Capacity	20	ABS	1	0	08VC 16MC	0	1	5.48142385483	None	None	None	None	1
2.7	2015_May_04_1236	s	s	3	1	Capacity	21	ABS	1	0	08VC 16MC	0	1	5.53811812401	None	None	None	None	1
2.7	2015_May_04_1236	s	s	3	1	Capacity	22	ABS	2	0	16VC 08MC	0	1	3.0362830162	None	None	None	None	1
2.7	2015_May_04_1236	s	s	3	1	Capacity	23	RC	1	0	08VC 15MC	1	0	1.43543505669	-223.0	66.0	-228	66	1
2.7	2015_May_04_1236	s	s	3	1	Capacity	24	RC	2	0	15VC 08MC	1	0	1.49043798447	115.0	372.0	122	374	1
2.7	2015_May_04_1236	s	s	3	1	Capacity	25	ABS	1	0	08VC 16MC	0	1	3.14789795876	None	None	None	None	1
2.7	2015_May_04_1236	s	s	3	1	Capacity	26	RC	2	0	15VC 08MC	1	0	0.795531988144	284.0	-108.0	288	-101	1
2.7	2015_May_04_1236	s	s	3	1	Capacity	27	RC	1	0	08VC 15MC	1	0	2.04354000092	-392.0	-307.0	-392	-304	1
2.7	2015_May_04_1236	s	s	3	1	Capacity	28	ABS	2	0	16VC 08MC	0	1	1.56486582756	None	None	None	None	1
2.7	2015_May_04_1236	s	s	3	1	Capacity	29	ABS	1	0	08VC 16MC	0	1	2.15399599075	None	None	None	None	1
2.7	2015_May_04_1236	s	s	3	1	Capacity	30	ABS	2	0	16VC 08MC	0	1	2.00026106834	None	None	None	None	1
2.7	2015_May_04_1236	s	s	3	1	Capacity	31	RC	1	0	08VC 15MC	1	0	1.03909301758	-461.0	349.0	-457	339	1
2.7	2015_May_04_1236	s	s	3	1	Capacity	32	RC	2	0	15VC 08MC	1	0	1.51781487465	451.0	131.0	455	136	1
2.7	2015_May_04_1236	s	s	3	1	Capacity	33	ABS	1	0	08VC 16MC	0	1	1.9149980545	None	None	None	None	1
2.7	2015_May_04_1236	s	s	3	1	Capacity	34	RC	1	0	08VC 15MC	1	0	0.858628034592	-438.0	368.0	-444	369	1
2.7	2015_May_04_1236	s	s	3	1	Capacity	35	ABS	2	0	16VC 08MC	0	1	2.43294787407	None	None	None	None	1
2.7	2015_May_04_1236	s	s	3	1	Capacity	36	RC	2	0	15VC 08MC	1	0	1.06809520721	141.0	-104.0	147	-103	1
2.7	2015_May_04_1236	s	s	3	1	Capacity	37	RC	1	0	08VC 15MC	1	0	1.17407608032	-198.0	-378.0	-197	-374	1
2.7	2015_May_04_1236	s	s	3	1	Capacity	38	ABS	1	0	08VC 16MC	0	1	2.52780413628	None	None	None	None	1
2.7	2015_May_04_1236	s	s	3	1	Capacity	39	RC	2	0	15VC 08MC	1	0	2.09479880333	-33.0	350.0	-25	350	1
2.7	2015_May_04_1236	s	s	3	1	Capacity	40	ABS	2	0	16VC 08MC	0	1	2.04443097115	None	None	None	None	1
2.7	2015_May_04_1236	s	s	3	1	Capacity	41	ABS	2	0	16VC 08MC	0	1	2.54206991196	None	None	None	None	1
2.7	2015_May_04_1236	s	s	3	1	Capacity	42	RC	1	0	08VC 15MC	1	0	1.38340997696	-249.0	-303.0	-253	-298	1
2.7	2015_May_04_1236	s	s	3	1	Capacity	43	RC	2	0	15VC 08MC	1	0	0.984250068665	-461.0	403.0	-460	405	1
2.7	2015_May_04_1236	s	s	3	1	Capacity	44	ABS	1	0	08VC 16MC	0	1	2.15332102776	None	None	None	None	1
2.7	2015_May_04_1236	s	s	3	1	Capacity	45	RC	1	0	08VC 15MC	1	0	0.688344955444	-98.0	85.0	-94	87	1
2.7	2015_May_04_1236	s	s	3	1	Capacity	46	RC	2	0	15VC 08MC	1	0	0.744444131851	-441.0	-155.0	-428	-150	1
2.7	2015_May_04_1236	s	s	3	1	Capacity	47	ABS	2	0	16VC 08MC	0	1	2.12713289261	None	None	None	None	1
2.7	2015_May_04_1236	s	s	3	1	Capacity	48	ABS	1	0	08VC 16MC	0	1	1.68270301819	None	None	None	None	1
2.7	2015_May_04_1236	s	s	3	1	Capacity	49	ABS	1	0	08VC 16MC	0	1	2.10641407967	None	None	None	None	1
2.7	2015_May_04_1236	s	s	3	1	Capacity	50	RC	1	0	08VC 15MC	1	0	1.63549304008	487.0	-135.0	494	-130	1
2.7	2015_May_04_1236	s	s	3	1	Capacity	51	ABS	2	0	16VC 08MC	0	1	2.70232605934	None	None	None	None	1
2.7	2015_May_04_1236	s	s	3	1	Capacity	52	RC	2	0	15VC 08MC	1	0	0.893980026245	318.0	364.0	322	358	1
2.7	2015_May_04_1236	s	s	3	1	Capacity	53	ABS	2	0	16VC 08MC	0	1	1.64744400978	None	None	None	None	1
2.7	2015_May_04_1236	s	s	3	1	Capacity	54	ABS	1	0	08VC 16MC	0	1	4.04335212708	None	None	None	None	1
2.7	2015_May_04_1236	s	s	3	1	Capacity	55	RC	1	0	08VC 15MC	1	0	0.819655895233	-428.0	303.0	-427	302	1
2.7	2015_May_04_1236	s	s	3	1	Capacity	56	RC	2	0	15VC 08MC	1	0	1.37376713753	-334.0	-243.0	-339	-245	1
2.7	2015_May_04_1236	s	s	3	1	Capacity	57	RC	2	0	15VC 08MC	1	0	1.17631292343	129.0	-192.0	130	-186	1
2.7	2015_May_04_1236	s	s	3	1	Capacity	58	RC	1	0	08VC 15MC	1	0	0.69425702095	-314.0	-135.0	-316	-145	1
2.7	2015_May_04_1236	s	s	3	1	Capacity	59	ABS	1	0	08VC 16MC	0	1	1.87694907188	None	None	None	None	1
2.7	2015_May_04_1236	s	s	3	1	Capacity	60	ABS	2	0	16VC 08MC	0	1	1.68934297562	None	None	None	None	1
2.7	2015_May_04_1236	s	s	3	1	Capacity	61	ABS	2	0	16VC 08MC	0	1	1.28933596611	None	None	None	None	1
2.7	2015_May_04_1236	s	s	3	1	Capacity	62	RC	2	0	15VC 08MC	1	0	0.682124853134	-408.0	-188.0	-396	-187	1
2.7	2015_May_04_1236	s	s	3	1	Capacity	63	ABS	1	0	08VC 16MC	0	1	2.23056411743	None	None	None	None	1
2.7	2015_May_04_1236	s	s	3	1	Capacity	64	RC	1	0	08VC 15MC	1	0	0.917727947235	194.0	121.0	204	121	1
2.7	2015_May_04_1236	s	s	3	1	SIC	1	RC	1	2	02VD 02VO 02VC 09MD 02MO 02MC 02RD 02RO	1	0	2.18855404854	527.0	320.0	533	323	1
2.7	2015_May_04_1236	s	s	3	1	SIC	2	ABS	1	1	02VD 02VO 02VC 02MD 10MO 02MC 02RD 02RO	0	1	7.07960700989	None	None	None	None	1
2.7	2015_May_04_1236	s	s	3	1	SIC	3	RC	1	0	02VD 02VO 02VC 02MD 02MO 09MC 02RD 02RO	1	0	3.13962197304	66.0	-332.0	74	-326	1
2.7	2015_May_04_1236	s	s	3	1	SIC	4	ABS	2	0	02VD 02VO 10VC 02MD 02MO 02MC 02RD 02RO	0	1	3.37752199173	None	None	None	None	1
2.7	2015_May_04_1236	s	s	3	1	SIC	5	ABS	2	2	10VD 02VO 02VC 02MD 02MO 02MC 02RD 02RO	0	1	2.68986606598	None	None	None	None	1
2.7	2015_May_04_1236	s	s	3	1	SIC	6	ABS	2	1	02VD 10VO 02VC 02MD 02MO 02MC 02RD 02RO	0	1	2.20718812943	None	None	None	None	1
2.7	2015_May_04_1236	s	s	3	1	SIC	7	ABS	0	2	02VD 02VO 02VC 02MD 02MO 02MC 10RD 02RO	0	1	2.58918619156	None	None	None	None	1
2.7	2015_May_04_1236	s	s	3	1	SIC	8	RC	0	2	02VD 02VO 02VC 02MD 02MO 02MC 09RD 02RO	1	0	2.33628606796	291.0	380.0	293	385	1
2.7	2015_May_04_1236	s	s	3	1	SIC	9	RC	2	1	02VD 09VO 02VC 02MD 02MO 02MC 02RD 02RO	1	0	0.882128000259	-201.0	284.0	-198	290	1
2.7	2015_May_04_1236	s	s	3	1	SIC	10	RC	1	1	02VD 02VO 02VC 02MD 09MO 02MC 02RD 02RO	1	0	1.47679901123	391.0	366.0	390	370	1
2.7	2015_May_04_1236	s	s	3	1	SIC	11	RC	2	2	09VD 02VO 02VC 02MD 02MO 02MC 02RD 02RO	1	0	1.31210589409	487.0	77.0	487	87	1
2.7	2015_May_04_1236	s	s	3	1	SIC	12	RC	0	1	02VD 02VO 02VC 02MD 02MO 02MC 02RD 09RO	1	0	2.99796390533	343.0	-384.0	341	-384	1
2.7	2015_May_04_1236	s	s	3	1	SIC	13	ABS	0	1	02VD 02VO 02VC 02MD 02MO 02MC 02RD 10RO	0	1	4.24575209618	None	None	None	None	1
2.7	2015_May_04_1236	s	s	3	1	SIC	14	RC	2	0	02VD 02VO 09VC 02MD 02MO 02MC 02RD 02RO	1	0	1.65903186798	530.0	270.0	529	261	1
2.7	2015_May_04_1236	s	s	3	1	SIC	15	ABS	1	0	02VD 02VO 02VC 02MD 02MO 10MC 02RD 02RO	0	1	3.30192804337	None	None	None	None	1
2.7	2015_May_04_1236	s	s	3	1	SIC	16	ABS	1	2	02VD 02VO 02VC 10MD 02MO 02MC 02RD 02RO	0	1	2.00771689415	None	None	None	None	1
2.7	2015_May_04_1236	s	s	3	1	SIC	17	ABS	1	0	02VD 02VO 02VC 02MD 02MO 10MC 02RD 02RO	0	1	3.77772879601	None	None	None	None	1
2.7	2015_May_04_1236	s	s	3	1	SIC	18	RC	1	0	02VD 02VO 02VC 02MD 02MO 09MC 02RD 02RO	1	0	1.45473909378	-130.0	-110.0	-130	-108	1
2.7	2015_May_04_1236	s	s	3	1	SIC	19	ABS	1	1	02VD 02VO 02VC 02MD 10MO 02MC 02RD 02RO	0	1	5.87977790833	None	None	None	None	1
2.7	2015_May_04_1236	s	s	3	1	SIC	20	RC	0	1	02VD 02VO 02VC 02MD 02MO 02MC 02RD 09RO	1	0	2.54181814194	439.0	-103.0	437	-103	1
2.7	2015_May_04_1236	s	s	3	1	SIC	21	ABS	2	2	10VD 02VO 02VC 02MD 02MO 02MC 02RD 02RO	0	1	2.50642704964	None	None	None	None	1
2.7	2015_May_04_1236	s	s	3	1	SIC	22	ABS	0	1	02VD 02VO 02VC 02MD 02MO 02MC 02RD 10RO	0	1	4.26038694382	None	None	None	None	1
2.7	2015_May_04_1236	s	s	3	1	SIC	23	RC	2	2	09VD 02VO 02VC 02MD 02MO 02MC 02RD 02RO	1	0	1.05576610565	-227.0	191.0	-220	190	1
2.7	2015_May_04_1236	s	s	3	1	SIC	24	ABS	2	0	02VD 02VO 10VC 02MD 02MO 02MC 02RD 02RO	0	1	2.50167298317	None	None	None	None	1
2.7	2015_May_04_1236	s	s	3	1	SIC	25	RC	1	1	02VD 02VO 02VC 02MD 09MO 02MC 02RD 02RO	1	0	2.51814508438	399.0	357.0	396	352	1
2.7	2015_May_04_1236	s	s	3	1	SIC	26	ABS	1	2	02VD 02VO 02VC 10MD 02MO 02MC 02RD 02RO	0	1	2.09157705307	None	None	None	None	1
2.7	2015_May_04_1236	s	s	3	1	SIC	27	ABS	0	2	02VD 02VO 02VC 02MD 02MO 02MC 10RD 02RO	1	0	2.13640904427	None	None	69	133	0
2.7	2015_May_04_1236	s	s	3	1	SIC	28	RC	2	0	02VD 02VO 09VC 02MD 02MO 02MC 02RD 02RO	1	0	1.49415111542	-30.0	-329.0	-38	-333	1
2.7	2015_May_04_1236	s	s	3	1	SIC	29	RC	1	2	02VD 02VO 02VC 09MD 02MO 02MC 02RD 02RO	1	0	2.54187703133	-238.0	-370.0	-236	-365	1
2.7	2015_May_04_1236	s	s	3	1	SIC	30	RC	2	1	02VD 09VO 02VC 02MD 02MO 02MC 02RD 02RO	1	0	1.18407201767	-289.0	-106.0	-284	-107	1
2.7	2015_May_04_1236	s	s	3	1	SIC	31	RC	0	2	02VD 02VO 02VC 02MD 02MO 02MC 09RD 02RO	1	0	1.24717020988	-475.0	133.0	-484	130	1
2.7	2015_May_04_1236	s	s	3	1	SIC	32	ABS	2	1	02VD 10VO 02VC 02MD 02MO 02MC 02RD 02RO	0	1	3.06770205498	None	None	None	None	1
2.7	2015_May_04_1236	s	s	3	1	SIC	33	RC	0	1	02VD 02VO 02VC 02MD 02MO 02MC 02RD 09RO	1	0	2.2794418335	90.0	-324.0	86	-326	1
2.7	2015_May_04_1236	s	s	3	1	SIC	34	ABS	2	1	02VD 10VO 02VC 02MD 02MO 02MC 02RD 02RO	0	1	3.33656001091	None	None	None	None	1
2.7	2015_May_04_1236	s	s	3	1	SIC	35	RC	1	0	02VD 02VO 02VC 02MD 02MO 09MC 02RD 02RO	1	0	0.902924060822	75.0	113.0	74	108	1
2.7	2015_May_04_1236	s	s	3	1	SIC	36	RC	2	1	02VD 09VO 02VC 02MD 02MO 02MC 02RD 02RO	1	0	2.32984900475	491.0	-343.0	493	-334	1
2.7	2015_May_04_1236	s	s	3	1	SIC	37	ABS	2	2	10VD 02VO 02VC 02MD 02MO 02MC 02RD 02RO	0	1	2.53008389473	None	None	None	None	1
2.7	2015_May_04_1236	s	s	3	1	SIC	38	RC	1	2	02VD 02VO 02VC 09MD 02MO 02MC 02RD 02RO	1	0	0.976217985153	-388.0	28.0	-389	34	1
2.7	2015_May_04_1236	s	s	3	1	SIC	39	ABS	1	2	02VD 02VO 02VC 10MD 02MO 02MC 02RD 02RO	1	0	1.21849513054	None	None	-83	-347	0
2.7	2015_May_04_1236	s	s	3	1	SIC	40	RC	2	2	09VD 02VO 02VC 02MD 02MO 02MC 02RD 02RO	1	0	1.2705540657	514.0	-65.0	512	-69	1
2.7	2015_May_04_1236	s	s	3	1	SIC	41	RC	1	1	02VD 02VO 02VC 02MD 09MO 02MC 02RD 02RO	1	0	0.905739068985	-349.0	141.0	-355	148	1
2.7	2015_May_04_1236	s	s	3	1	SIC	42	ABS	2	0	02VD 02VO 10VC 02MD 02MO 02MC 02RD 02RO	0	1	2.45558190346	None	None	None	None	1
2.7	2015_May_04_1236	s	s	3	1	SIC	43	ABS	1	1	02VD 02VO 02VC 02MD 10MO 02MC 02RD 02RO	0	1	4.27212405205	None	None	None	None	1
2.7	2015_May_04_1236	s	s	3	1	SIC	44	ABS	0	1	02VD 02VO 02VC 02MD 02MO 02MC 02RD 10RO	0	1	4.35501289368	None	None	None	None	1
2.7	2015_May_04_1236	s	s	3	1	SIC	45	ABS	0	2	02VD 02VO 02VC 02MD 02MO 02MC 10RD 02RO	0	1	3.18589496613	None	None	None	None	1
2.7	2015_May_04_1236	s	s	3	1	SIC	46	RC	0	2	02VD 02VO 02VC 02MD 02MO 02MC 09RD 02RO	1	0	1.12931513786	-358.0	332.0	-354	334	1
2.7	2015_May_04_1236	s	s	3	1	SIC	47	RC	2	0	02VD 02VO 09VC 02MD 02MO 02MC 02RD 02RO	1	0	0.995054006577	-498.0	343.0	-498	338	1
2.7	2015_May_04_1236	s	s	3	1	SIC	48	ABS	1	0	02VD 02VO 02VC 02MD 02MO 10MC 02RD 02RO	0	1	3.70448184013	None	None	None	None	1
2.7	2015_May_04_1236	s	s	3	1	SIC	49	RC	0	2	02VD 02VO 02VC 02MD 02MO 02MC 09RD 02RO	1	0	1.34479403496	-511.0	145.0	-508	148	1
2.7	2015_May_04_1236	s	s	3	1	SIC	50	RC	2	1	02VD 09VO 02VC 02MD 02MO 02MC 02RD 02RO	1	0	1.80944800377	129.0	324.0	122	329	1
2.7	2015_May_04_1236	s	s	3	1	SIC	51	RC	1	2	02VD 02VO 02VC 09MD 02MO 02MC 02RD 02RO	1	0	0.717299938202	-269.0	7.0	-269	3	1
2.7	2015_May_04_1236	s	s	3	1	SIC	52	ABS	2	1	02VD 10VO 02VC 02MD 02MO 02MC 02RD 02RO	0	1	2.78632903099	None	None	None	None	1
2.7	2015_May_04_1236	s	s	3	1	SIC	53	ABS	2	2	10VD 02VO 02VC 02MD 02MO 02MC 02RD 02RO	0	1	1.6913869381	None	None	None	None	1
2.7	2015_May_04_1236	s	s	3	1	SIC	54	RC	1	1	02VD 02VO 02VC 02MD 09MO 02MC 02RD 02RO	1	0	1.55310916901	365.0	-54.0	374	-53	1
2.7	2015_May_04_1236	s	s	3	1	SIC	55	ABS	1	1	02VD 02VO 02VC 02MD 10MO 02MC 02RD 02RO	0	1	3.5516679287	None	None	None	None	1
2.7	2015_May_04_1236	s	s	3	1	SIC	56	ABS	1	0	02VD 02VO 02VC 02MD 02MO 10MC 02RD 02RO	0	1	4.47235608101	None	None	None	None	1
2.7	2015_May_04_1236	s	s	3	1	SIC	57	RC	2	2	09VD 02VO 02VC 02MD 02MO 02MC 02RD 02RO	1	0	1.27055501938	54.0	-1.0	49	0	1
2.7	2015_May_04_1236	s	s	3	1	SIC	58	ABS	2	0	02VD 02VO 10VC 02MD 02MO 02MC 02RD 02RO	0	1	3.64830183983	None	None	None	None	1
2.7	2015_May_04_1236	s	s	3	1	SIC	59	ABS	1	2	02VD 02VO 02VC 10MD 02MO 02MC 02RD 02RO	0	1	2.63028287888	None	None	None	None	1
2.7	2015_May_04_1236	s	s	3	1	SIC	60	RC	2	0	02VD 02VO 09VC 02MD 02MO 02MC 02RD 02RO	1	0	0.982462882996	-117.0	-170.0	-120	-164	1
2.7	2015_May_04_1236	s	s	3	1	SIC	61	ABS	0	2	02VD 02VO 02VC 02MD 02MO 02MC 10RD 02RO	0	1	2.20963597298	None	None	None	None	1
2.7	2015_May_04_1236	s	s	3	1	SIC	62	RC	1	0	02VD 02VO 02VC 02MD 02MO 09MC 02RD 02RO	1	0	0.788020133972	-240.0	198.0	-244	195	1
2.7	2015_May_04_1236	s	s	3	1	SIC	63	RC	0	1	02VD 02VO 02VC 02MD 02MO 02MC 02RD 09RO	1	0	0.935727119446	-355.0	-95.0	-358	-96	1
2.7	2015_May_04_1236	s	s	3	1	SIC	64	ABS	0	1	02VD 02VO 02VC 02MD 02MO 02MC 02RD 10RO	0	1	3.73076915741	None	None	None	None	1
2.7	2015_May_04_1236	s	s	3	1	SIC	65	RC	2	0	02VD 02VO 09VC 02MD 02MO 02MC 02RD 02RO	1	0	1.34788894653	-531.0	257.0	-543	260	1
2.7	2015_May_04_1236	s	s	3	1	SIC	66	ABS	0	1	02VD 02VO 02VC 02MD 02MO 02MC 02RD 10RO	0	1	4.43716001511	None	None	None	None	1
2.7	2015_May_04_1236	s	s	3	1	SIC	67	ABS	1	2	02VD 02VO 02VC 10MD 02MO 02MC 02RD 02RO	0	1	2.89495301247	None	None	None	None	1
2.7	2015_May_04_1236	s	s	3	1	SIC	68	ABS	2	0	02VD 02VO 10VC 02MD 02MO 02MC 02RD 02RO	0	1	2.9066991806	None	None	None	None	1
2.7	2015_May_04_1236	s	s	3	1	SIC	69	RC	2	1	02VD 09VO 02VC 02MD 02MO 02MC 02RD 02RO	1	0	3.17731404305	209.0	32.0	214	37	1
2.7	2015_May_04_1236	s	s	3	1	SIC	70	RC	0	2	02VD 02VO 02VC 02MD 02MO 02MC 09RD 02RO	1	0	1.97088909149	492.0	-355.0	500	-349	1
2.7	2015_May_04_1236	s	s	3	1	SIC	71	RC	1	2	02VD 02VO 02VC 09MD 02MO 02MC 02RD 02RO	1	0	0.830305099487	-243.0	78.0	-236	76	1
2.7	2015_May_04_1236	s	s	3	1	SIC	72	ABS	2	2	10VD 02VO 02VC 02MD 02MO 02MC 02RD 02RO	0	1	2.24238395691	None	None	None	None	1
2.7	2015_May_04_1236	s	s	3	1	SIC	73	RC	0	1	02VD 02VO 02VC 02MD 02MO 02MC 02RD 09RO	1	0	0.670255184174	-263.0	146.0	-259	152	1
2.7	2015_May_04_1236	s	s	3	1	SIC	74	RC	2	2	09VD 02VO 02VC 02MD 02MO 02MC 02RD 02RO	1	0	0.776193857193	-223.0	222.0	-230	228	1
2.7	2015_May_04_1236	s	s	3	1	SIC	75	ABS	1	0	02VD 02VO 02VC 02MD 02MO 10MC 02RD 02RO	0	1	3.23131012917	None	None	None	None	1
2.7	2015_May_04_1236	s	s	3	1	SIC	76	ABS	2	1	02VD 10VO 02VC 02MD 02MO 02MC 02RD 02RO	0	1	2.63606095314	None	None	None	None	1
2.7	2015_May_04_1236	s	s	3	1	SIC	77	RC	1	1	02VD 02VO 02VC 02MD 09MO 02MC 02RD 02RO	1	0	1.82114815712	-165.0	-73.0	-165	-64	1
2.7	2015_May_04_1236	s	s	3	1	SIC	78	RC	1	0	02VD 02VO 02VC 02MD 02MO 09MC 02RD 02RO	1	0	1.57172107697	-31.0	-260.0	-37	-258	1
2.7	2015_May_04_1236	s	s	3	1	SIC	79	ABS	1	1	02VD 02VO 02VC 02MD 10MO 02MC 02RD 02RO	0	1	3.50689005852	None	None	None	None	1
2.7	2015_May_04_1236	s	s	3	1	SIC	80	ABS	0	2	02VD 02VO 02VC 02MD 02MO 02MC 10RD 02RO	0	1	2.79820799828	None	None	None	None	1
2.7	2015_May_04_1236	s	s	3	1	SIC	81	ABS	1	1	02VD 02VO 02VC 02MD 10MO 02MC 02RD 02RO	0	1	3.012830019	None	None	None	None	1
2.7	2015_May_04_1236	s	s	3	1	SIC	82	RC	2	2	09VD 02VO 02VC 02MD 02MO 02MC 02RD 02RO	1	0	1.18823504448	285.0	372.0	288	368	1
2.7	2015_May_04_1236	s	s	3	1	SIC	83	RC	2	0	02VD 02VO 09VC 02MD 02MO 02MC 02RD 02RO	1	0	1.13613891602	-230.0	103.0	-225	99	1
2.7	2015_May_04_1236	s	s	3	1	SIC	84	ABS	0	1	02VD 02VO 02VC 02MD 02MO 02MC 02RD 10RO	0	1	3.56316184998	None	None	None	None	1
2.7	2015_May_04_1236	s	s	3	1	SIC	85	RC	0	1	02VD 02VO 02VC 02MD 02MO 02MC 02RD 09RO	1	0	0.855204105377	61.0	184.0	64	187	1
2.7	2015_May_04_1236	s	s	3	1	SIC	86	RC	1	2	02VD 02VO 02VC 09MD 02MO 02MC 02RD 02RO	1	0	1.07039403915	-371.0	243.0	-363	244	1
2.7	2015_May_04_1236	s	s	3	1	SIC	87	ABS	2	2	10VD 02VO 02VC 02MD 02MO 02MC 02RD 02RO	0	1	2.4161260128	None	None	None	None	1
2.7	2015_May_04_1236	s	s	3	1	SIC	88	ABS	1	0	02VD 02VO 02VC 02MD 02MO 10MC 02RD 02RO	0	1	2.85394787788	None	None	None	None	1
2.7	2015_May_04_1236	s	s	3	1	SIC	89	ABS	1	2	02VD 02VO 02VC 10MD 02MO 02MC 02RD 02RO	0	1	2.22768092155	None	None	None	None	1
2.7	2015_May_04_1236	s	s	3	1	SIC	90	ABS	2	1	02VD 10VO 02VC 02MD 02MO 02MC 02RD 02RO	0	1	2.01221895218	None	None	None	None	1
2.7	2015_May_04_1236	s	s	3	1	SIC	91	ABS	2	0	02VD 02VO 10VC 02MD 02MO 02MC 02RD 02RO	0	1	2.01221013069	None	None	None	None	1
2.7	2015_May_04_1236	s	s	3	1	SIC	92	RC	2	1	02VD 09VO 02VC 02MD 02MO 02MC 02RD 02RO	1	0	0.797044992447	-66.0	379.0	-63	379	1
2.7	2015_May_04_1236	s	s	3	1	SIC	93	RC	1	1	02VD 02VO 02VC 02MD 09MO 02MC 02RD 02RO	1	0	1.55906009674	19.0	-265.0	26	-268	1
2.7	2015_May_04_1236	s	s	3	1	SIC	94	RC	0	2	02VD 02VO 02VC 02MD 02MO 02MC 09RD 02RO	1	0	0.888381004333	-163.0	146.0	-158	148	1
2.7	2015_May_04_1236	s	s	3	1	SIC	95	RC	1	0	02VD 02VO 02VC 02MD 02MO 09MC 02RD 02RO	1	0	0.830477952957	167.0	178.0	170	168	1
2.7	2015_May_04_1236	s	s	3	1	SIC	96	ABS	0	2	02VD 02VO 02VC 02MD 02MO 02MC 10RD 02RO	0	1	2.82431101799	None	None	None	None	1
2.7	2015_May_04_1236	s	s	3	1	SIC	97	RC	1	2	02VD 02VO 02VC 09MD 02MO 02MC 02RD 02RO	1	0	0.699671983719	141.0	87.0	149	86	1
2.7	2015_May_04_1236	s	s	3	1	SIC	98	RC	1	1	02VD 02VO 02VC 02MD 09MO 02MC 02RD 02RO	1	0	2.16000699997	-348.0	360.0	-343	361	1
2.7	2015_May_04_1236	s	s	3	1	SIC	99	ABS	0	2	02VD 02VO 02VC 02MD 02MO 02MC 10RD 02RO	0	1	2.9376502037	None	None	None	None	1
2.7	2015_May_04_1236	s	s	3	1	SIC	100	ABS	1	1	02VD 02VO 02VC 02MD 10MO 02MC 02RD 02RO	0	1	3.43340206146	None	None	None	None	1
2.7	2015_May_04_1236	s	s	3	1	SIC	101	ABS	2	2	10VD 02VO 02VC 02MD 02MO 02MC 02RD 02RO	0	1	1.80659914017	None	None	None	None	1
2.7	2015_May_04_1236	s	s	3	1	SIC	102	RC	1	0	02VD 02VO 02VC 02MD 02MO 09MC 02RD 02RO	1	0	1.12932014465	-455.0	380.0	-447	387	1
2.7	2015_May_04_1236	s	s	3	1	SIC	103	RC	0	1	02VD 02VO 02VC 02MD 02MO 02MC 02RD 09RO	1	0	2.34872508049	-145.0	-284.0	-141	-291	1
2.7	2015_May_04_1236	s	s	3	1	SIC	104	RC	2	0	02VD 02VO 09VC 02MD 02MO 02MC 02RD 02RO	1	0	1.51778006554	-61.0	137.0	-58	140	1
2.7	2015_May_04_1236	s	s	3	1	SIC	105	RC	2	2	09VD 02VO 02VC 02MD 02MO 02MC 02RD 02RO	1	0	0.702751159668	-79.0	-22.0	-78	-19	1
2.7	2015_May_04_1236	s	s	3	1	SIC	106	ABS	2	0	02VD 02VO 10VC 02MD 02MO 02MC 02RD 02RO	0	1	1.61996889114	None	None	None	None	1
2.7	2015_May_04_1236	s	s	3	1	SIC	107	ABS	0	1	02VD 02VO 02VC 02MD 02MO 02MC 02RD 10RO	0	1	3.266299963	None	None	None	None	1
2.7	2015_May_04_1236	s	s	3	1	SIC	108	RC	2	1	02VD 09VO 02VC 02MD 02MO 02MC 02RD 02RO	1	0	2.42427301407	372.0	-221.0	376	-222	1
2.7	2015_May_04_1236	s	s	3	1	SIC	109	ABS	2	1	02VD 10VO 02VC 02MD 02MO 02MC 02RD 02RO	0	1	2.23555612564	None	None	None	None	1
2.7	2015_May_04_1236	s	s	3	1	SIC	110	RC	0	2	02VD 02VO 02VC 02MD 02MO 02MC 09RD 02RO	1	0	0.635384082794	-243.0	-69.0	-245	-62	1
2.7	2015_May_04_1236	s	s	3	1	SIC	111	ABS	1	2	02VD 02VO 02VC 10MD 02MO 02MC 02RD 02RO	0	1	2.12445116043	None	None	None	None	1
2.7	2015_May_04_1236	s	s	3	1	SIC	112	ABS	1	0	02VD 02VO 02VC 02MD 02MO 10MC 02RD 02RO	0	1	2.5361790657	None	None	None	None	1
2.7	2015_May_04_1236	s	s	3	1	SIC	113	RC	2	2	09VD 02VO 02VC 02MD 02MO 02MC 02RD 02RO	1	0	0.664371013641	-230.0	204.0	-224	206	1
2.7	2015_May_04_1236	s	s	3	1	SIC	114	RC	0	2	02VD 02VO 02VC 02MD 02MO 02MC 09RD 02RO	1	0	0.926520109177	-155.0	-243.0	-162	-242	1
2.7	2015_May_04_1236	s	s	3	1	SIC	115	RC	0	1	02VD 02VO 02VC 02MD 02MO 02MC 02RD 09RO	1	0	0.573650121689	101.0	-43.0	109	-36	1
2.7	2015_May_04_1236	s	s	3	1	SIC	116	ABS	1	1	02VD 02VO 02VC 02MD 10MO 02MC 02RD 02RO	0	1	2.63060498238	None	None	None	None	1
2.7	2015_May_04_1236	s	s	3	1	SIC	117	ABS	2	1	02VD 10VO 02VC 02MD 02MO 02MC 02RD 02RO	0	1	2.27728390694	None	None	None	None	1
2.7	2015_May_04_1236	s	s	3	1	SIC	118	ABS	0	1	02VD 02VO 02VC 02MD 02MO 02MC 02RD 10RO	0	1	4.76354312897	None	None	None	None	1
2.7	2015_May_04_1236	s	s	3	1	SIC	119	RC	2	1	02VD 09VO 02VC 02MD 02MO 02MC 02RD 02RO	1	0	0.740900993347	-115.0	218.0	-122	215	1
2.7	2015_May_04_1236	s	s	3	1	SIC	120	RC	1	2	02VD 02VO 02VC 09MD 02MO 02MC 02RD 02RO	1	0	1.75682711601	395.0	408.0	396	415	1
2.7	2015_May_04_1236	s	s	3	1	SIC	121	ABS	2	2	10VD 02VO 02VC 02MD 02MO 02MC 02RD 02RO	0	1	2.48301792145	None	None	None	None	1
2.7	2015_May_04_1236	s	s	3	1	SIC	122	RC	1	1	02VD 02VO 02VC 02MD 09MO 02MC 02RD 02RO	1	0	1.52145409584	248.0	236.0	256	235	1
2.7	2015_May_04_1236	s	s	3	1	SIC	123	ABS	2	0	02VD 02VO 10VC 02MD 02MO 02MC 02RD 02RO	0	1	2.24759912491	None	None	None	None	1
2.7	2015_May_04_1236	s	s	3	1	SIC	124	RC	1	0	02VD 02VO 02VC 02MD 02MO 09MC 02RD 02RO	1	0	1.65912795067	-476.0	-278.0	-467	-273	1
2.7	2015_May_04_1236	s	s	3	1	SIC	125	ABS	1	2	02VD 02VO 02VC 10MD 02MO 02MC 02RD 02RO	0	1	2.12711119652	None	None	None	None	1
2.7	2015_May_04_1236	s	s	3	1	SIC	126	ABS	1	0	02VD 02VO 02VC 02MD 02MO 10MC 02RD 02RO	0	1	2.76189017296	None	None	None	None	1
2.7	2015_May_04_1236	s	s	3	1	SIC	127	RC	2	0	02VD 02VO 09VC 02MD 02MO 02MC 02RD 02RO	1	0	0.784734010696	265.0	93.0	269	101	1
2.7	2015_May_04_1236	s	s	3	1	SIC	128	ABS	0	2	02VD 02VO 02VC 02MD 02MO 02MC 10RD 02RO	0	1	2.21919298172	None	None	None	None	1
2.7	2015_May_04_1236	s	s	3	1	SIC	129	ABS	2	0	02VD 02VO 10VC 02MD 02MO 02MC 02RD 02RO	0	1	2.32739400864	None	None	None	None	1
2.7	2015_May_04_1236	s	s	3	1	SIC	130	ABS	1	0	02VD 02VO 02VC 02MD 02MO 10MC 02RD 02RO	0	1	3.68949794769	None	None	None	None	1
2.7	2015_May_04_1236	s	s	3	1	SIC	131	ABS	1	1	02VD 02VO 02VC 02MD 10MO 02MC 02RD 02RO	0	1	4.17213797569	None	None	None	None	1
2.7	2015_May_04_1236	s	s	3	1	SIC	132	ABS	0	1	02VD 02VO 02VC 02MD 02MO 02MC 02RD 10RO	0	1	4.96662187576	None	None	None	None	1
2.7	2015_May_04_1236	s	s	3	1	SIC	133	RC	1	0	02VD 02VO 02VC 02MD 02MO 09MC 02RD 02RO	1	0	1.28232812881	-268.0	-315.0	-261	-312	1
2.7	2015_May_04_1236	s	s	3	1	SIC	134	RC	2	1	02VD 09VO 02VC 02MD 02MO 02MC 02RD 02RO	1	0	1.4067800045	409.0	-251.0	401	-242	1
2.7	2015_May_04_1236	s	s	3	1	SIC	135	RC	1	1	02VD 02VO 02VC 02MD 09MO 02MC 02RD 02RO	1	0	0.843560934067	125.0	-43.0	120	-42	1
2.7	2015_May_04_1236	s	s	3	1	SIC	136	ABS	1	2	02VD 02VO 02VC 10MD 02MO 02MC 02RD 02RO	0	1	2.31265711784	None	None	None	None	1
2.7	2015_May_04_1236	s	s	3	1	SIC	137	ABS	0	2	02VD 02VO 02VC 02MD 02MO 02MC 10RD 02RO	0	1	2.714220047	None	None	None	None	1
2.7	2015_May_04_1236	s	s	3	1	SIC	138	RC	0	2	02VD 02VO 02VC 02MD 02MO 02MC 09RD 02RO	1	0	2.00038599968	384.0	-87.0	389	-80	1
2.7	2015_May_04_1236	s	s	3	1	SIC	139	RC	2	0	02VD 02VO 09VC 02MD 02MO 02MC 02RD 02RO	1	0	0.905701875687	-73.0	-103.0	-76	-104	1
2.7	2015_May_04_1236	s	s	3	1	SIC	140	RC	1	2	02VD 02VO 02VC 09MD 02MO 02MC 02RD 02RO	1	0	0.964664936066	240.0	180.0	237	177	1
2.7	2015_May_04_1236	s	s	3	1	SIC	141	ABS	2	2	10VD 02VO 02VC 02MD 02MO 02MC 02RD 02RO	0	1	1.82118797302	None	None	None	None	1
2.7	2015_May_04_1236	s	s	3	1	SIC	142	ABS	2	1	02VD 10VO 02VC 02MD 02MO 02MC 02RD 02RO	0	1	2.09145092964	None	None	None	None	1
2.7	2015_May_04_1236	s	s	3	1	SIC	143	RC	0	1	02VD 02VO 02VC 02MD 02MO 02MC 02RD 09RO	1	0	1.60822200775	152.0	197.0	435	393	0
2.7	2015_May_04_1236	s	s	3	1	SIC	144	RC	2	2	09VD 02VO 02VC 02MD 02MO 02MC 02RD 02RO	1	0	0.976534128189	-384.0	254.0	-379	255	1
2.7	2015_May_04_1236	s	s	3	1	SIC	145	ABS	1	0	02VD 02VO 02VC 02MD 02MO 10MC 02RD 02RO	0	1	3.31871795654	None	None	None	None	1
2.7	2015_May_04_1236	s	s	3	1	SIC	146	ABS	1	1	02VD 02VO 02VC 02MD 10MO 02MC 02RD 02RO	0	1	3.28006100655	None	None	None	None	1
2.7	2015_May_04_1236	s	s	3	1	SIC	147	RC	2	2	09VD 02VO 02VC 02MD 02MO 02MC 02RD 02RO	1	0	1.97683382034	410.0	319.0	407	323	1
2.7	2015_May_04_1236	s	s	3	1	SIC	148	ABS	2	0	02VD 02VO 10VC 02MD 02MO 02MC 02RD 02RO	0	1	2.93616199493	None	None	None	None	1
2.7	2015_May_04_1236	s	s	3	1	SIC	149	RC	1	0	02VD 02VO 02VC 02MD 02MO 09MC 02RD 02RO	1	0	1.45661306381	79.0	-129.0	78	-127	1
2.7	2015_May_04_1236	s	s	3	1	SIC	150	ABS	2	1	02VD 10VO 02VC 02MD 02MO 02MC 02RD 02RO	0	1	1.95063209534	None	None	None	None	1
2.7	2015_May_04_1236	s	s	3	1	SIC	151	ABS	1	2	02VD 02VO 02VC 10MD 02MO 02MC 02RD 02RO	0	1	2.64408612251	None	None	None	None	1
2.7	2015_May_04_1236	s	s	3	1	SIC	152	ABS	0	1	02VD 02VO 02VC 02MD 02MO 02MC 02RD 10RO	0	1	4.06023192406	None	None	None	None	1
2.7	2015_May_04_1236	s	s	3	1	SIC	153	RC	1	2	02VD 02VO 02VC 09MD 02MO 02MC 02RD 02RO	1	0	1.68246984482	-262.0	-294.0	-262	-289	1
2.7	2015_May_04_1236	s	s	3	1	SIC	154	ABS	2	2	10VD 02VO 02VC 02MD 02MO 02MC 02RD 02RO	0	1	2.32986187935	None	None	None	None	1
2.7	2015_May_04_1236	s	s	3	1	SIC	155	RC	1	1	02VD 02VO 02VC 02MD 09MO 02MC 02RD 02RO	1	0	2.1390619278	217.0	-407.0	213	-411	1
2.7	2015_May_04_1236	s	s	3	1	SIC	156	RC	0	2	02VD 02VO 02VC 02MD 02MO 02MC 09RD 02RO	1	0	2.05948901176	238.0	256.0	227	262	1
2.7	2015_May_04_1236	s	s	3	1	SIC	157	RC	0	1	02VD 02VO 02VC 02MD 02MO 02MC 02RD 09RO	1	0	1.28233003616	-438.0	155.0	-438	157	1
2.7	2015_May_04_1236	s	s	3	1	SIC	158	RC	2	1	02VD 09VO 02VC 02MD 02MO 02MC 02RD 02RO	1	0	0.902178049088	-469.0	3.0	-457	7	1
2.7	2015_May_04_1236	s	s	3	1	SIC	159	RC	2	0	02VD 02VO 09VC 02MD 02MO 02MC 02RD 02RO	1	0	2.20046591759	390.0	-179.0	394	-181	1
2.7	2015_May_04_1236	s	s	3	1	SIC	160	ABS	0	2	02VD 02VO 02VC 02MD 02MO 02MC 10RD 02RO	0	1	2.21822285652	None	None	None	None	1
2.7	2015_May_04_1236	s	s	3	1	SIC	161	RC	1	2	02VD 02VO 02VC 09MD 02MO 02MC 02RD 02RO	1	0	1.34799981117	361.0	84.0	369	83	1
2.7	2015_May_04_1236	s	s	3	1	SIC	162	ABS	2	0	02VD 02VO 10VC 02MD 02MO 02MC 02RD 02RO	0	1	2.00647497177	None	None	None	None	1
2.7	2015_May_04_1236	s	s	3	1	SIC	163	RC	0	1	02VD 02VO 02VC 02MD 02MO 02MC 02RD 09RO	1	0	1.99391102791	-14.0	-126.0	-19	-122	1
2.7	2015_May_04_1236	s	s	3	1	SIC	164	RC	2	1	02VD 09VO 02VC 02MD 02MO 02MC 02RD 02RO	1	0	0.717902898788	-105.0	197.0	-93	203	1
2.7	2015_May_04_1236	s	s	3	1	SIC	165	ABS	0	1	02VD 02VO 02VC 02MD 02MO 02MC 02RD 10RO	0	1	3.96971821785	None	None	None	None	1
2.7	2015_May_04_1236	s	s	3	1	SIC	166	RC	1	1	02VD 02VO 02VC 02MD 09MO 02MC 02RD 02RO	1	0	2.1298019886	-21.0	-185.0	-22	-178	1
2.7	2015_May_04_1236	s	s	3	1	SIC	167	ABS	0	2	02VD 02VO 02VC 02MD 02MO 02MC 10RD 02RO	0	1	2.36513209343	None	None	None	None	1
2.7	2015_May_04_1236	s	s	3	1	SIC	168	ABS	1	0	02VD 02VO 02VC 02MD 02MO 10MC 02RD 02RO	0	1	2.98608398438	None	None	None	None	1
2.7	2015_May_04_1236	s	s	3	1	SIC	169	ABS	2	1	02VD 10VO 02VC 02MD 02MO 02MC 02RD 02RO	0	1	1.94782400131	None	None	None	None	1
2.7	2015_May_04_1236	s	s	3	1	SIC	170	ABS	1	2	02VD 02VO 02VC 10MD 02MO 02MC 02RD 02RO	0	1	1.82371783257	None	None	None	None	1
2.7	2015_May_04_1236	s	s	3	1	SIC	171	RC	0	2	02VD 02VO 02VC 02MD 02MO 02MC 09RD 02RO	1	0	0.905618906021	-218.0	-124.0	-220	-124	1
2.7	2015_May_04_1236	s	s	3	1	SIC	172	RC	2	0	02VD 02VO 09VC 02MD 02MO 02MC 02RD 02RO	1	0	0.819806098938	-340.0	-40.0	-344	-47	1
2.7	2015_May_04_1236	s	s	3	1	SIC	173	RC	2	2	09VD 02VO 02VC 02MD 02MO 02MC 02RD 02RO	1	0	0.682065010071	48.0	202.0	62	208	1
2.7	2015_May_04_1236	s	s	3	1	SIC	174	ABS	1	1	02VD 02VO 02VC 02MD 10MO 02MC 02RD 02RO	0	1	2.73385095596	None	None	None	None	1
2.7	2015_May_04_1236	s	s	3	1	SIC	175	RC	1	0	02VD 02VO 02VC 02MD 02MO 09MC 02RD 02RO	1	0	1.2542757988	-513.0	-179.0	-520	-179	1
2.7	2015_May_04_1236	s	s	3	1	SIC	176	ABS	2	2	10VD 02VO 02VC 02MD 02MO 02MC 02RD 02RO	0	1	1.97691392899	None	None	None	None	1
2.7	2015_May_04_1236	s	s	3	1	SIC	177	ABS	2	0	02VD 02VO 10VC 02MD 02MO 02MC 02RD 02RO	0	1	2.78901791573	None	None	None	None	1
2.7	2015_May_04_1236	s	s	3	1	SIC	178	ABS	0	1	02VD 02VO 02VC 02MD 02MO 02MC 02RD 10RO	0	1	3.27993607521	None	None	None	None	1
2.7	2015_May_04_1236	s	s	3	1	SIC	179	RC	0	1	02VD 02VO 02VC 02MD 02MO 02MC 02RD 09RO	1	0	0.677200078964	-189.0	7.0	-180	4	1
2.7	2015_May_04_1236	s	s	3	1	SIC	180	RC	0	2	02VD 02VO 02VC 02MD 02MO 02MC 09RD 02RO	1	0	2.04734802246	510.0	14.0	512	20	1
2.7	2015_May_04_1236	s	s	3	1	SIC	181	ABS	2	1	02VD 10VO 02VC 02MD 02MO 02MC 02RD 02RO	0	1	2.03045296669	None	None	None	None	1
2.7	2015_May_04_1236	s	s	3	1	SIC	182	ABS	1	2	02VD 02VO 02VC 10MD 02MO 02MC 02RD 02RO	0	1	1.86873483658	None	None	None	None	1
2.7	2015_May_04_1236	s	s	3	1	SIC	183	RC	1	2	02VD 02VO 02VC 09MD 02MO 02MC 02RD 02RO	1	0	1.77718305588	32.0	-321.0	32	-321	1
2.7	2015_May_04_1236	s	s	3	1	SIC	184	RC	2	0	02VD 02VO 09VC 02MD 02MO 02MC 02RD 02RO	1	0	1.50339388847	180.0	-155.0	182	-152	1
2.7	2015_May_04_1236	s	s	3	1	SIC	185	ABS	1	0	02VD 02VO 02VC 02MD 02MO 10MC 02RD 02RO	0	1	2.43010497093	None	None	None	None	1
2.7	2015_May_04_1236	s	s	3	1	SIC	186	RC	1	0	02VD 02VO 02VC 02MD 02MO 09MC 02RD 02RO	1	0	3.08694696426	-319.0	-369.0	-324	-365	1
2.7	2015_May_04_1236	s	s	3	1	SIC	187	ABS	2	2	10VD 02VO 02VC 02MD 02MO 02MC 02RD 02RO	0	1	1.55300998688	None	None	None	None	1
2.7	2015_May_04_1236	s	s	3	1	SIC	188	ABS	0	2	02VD 02VO 02VC 02MD 02MO 02MC 10RD 02RO	0	1	2.38545799255	None	None	None	None	1
2.7	2015_May_04_1236	s	s	3	1	SIC	189	ABS	1	1	02VD 02VO 02VC 02MD 10MO 02MC 02RD 02RO	0	1	3.11359810829	None	None	None	None	1
2.7	2015_May_04_1236	s	s	3	1	SIC	190	RC	2	1	02VD 09VO 02VC 02MD 02MO 02MC 02RD 02RO	1	0	1.60619401932	-102.0	345.0	-93	354	1
2.7	2015_May_04_1236	s	s	3	1	SIC	191	RC	1	1	02VD 02VO 02VC 02MD 09MO 02MC 02RD 02RO	1	0	0.903064012527	-533.0	118.0	-535	117	1
2.7	2015_May_04_1236	s	s	3	1	SIC	192	RC	2	2	09VD 02VO 02VC 02MD 02MO 02MC 02RD 02RO	1	0	0.794642925262	-67.0	192.0	-58	195	1
2.7	2015_May_04_1236	s	s	3	1	SIC	193	RC	0	1	02VD 02VO 02VC 02MD 02MO 02MC 02RD 09RO	1	0	2.21595215797	393.0	60.0	391	62	1
2.7	2015_May_04_1236	s	s	3	1	SIC	194	RC	0	2	02VD 02VO 02VC 02MD 02MO 02MC 09RD 02RO	1	0	0.867958068848	-401.0	-105.0	-408	-109	1
2.7	2015_May_04_1236	s	s	3	1	SIC	195	ABS	1	1	02VD 02VO 02VC 02MD 10MO 02MC 02RD 02RO	1	0	2.18869495392	None	None	-410	57	0
2.7	2015_May_04_1236	s	s	3	1	SIC	196	ABS	1	0	02VD 02VO 02VC 02MD 02MO 10MC 02RD 02RO	0	1	3.02067112923	None	None	None	None	1
2.7	2015_May_04_1236	s	s	3	1	SIC	197	ABS	2	0	02VD 02VO 10VC 02MD 02MO 02MC 02RD 02RO	0	1	1.75352406502	None	None	None	None	1
2.7	2015_May_04_1236	s	s	3	1	SIC	198	RC	1	1	02VD 02VO 02VC 02MD 09MO 02MC 02RD 02RO	1	0	0.806881189346	-149.0	293.0	-136	296	1
2.7	2015_May_04_1236	s	s	3	1	SIC	199	RC	2	1	02VD 09VO 02VC 02MD 02MO 02MC 02RD 02RO	1	0	3.75447297096	408.0	-242.0	407	-241	1
2.7	2015_May_04_1236	s	s	3	1	SIC	200	ABS	1	2	02VD 02VO 02VC 10MD 02MO 02MC 02RD 02RO	0	1	1.64341306686	None	None	None	None	1
2.7	2015_May_04_1236	s	s	3	1	SIC	201	RC	2	2	09VD 02VO 02VC 02MD 02MO 02MC 02RD 02RO	1	0	1.835958004	307.0	144.0	313	150	1
2.7	2015_May_04_1236	s	s	3	1	SIC	202	RC	1	0	02VD 02VO 02VC 02MD 02MO 09MC 02RD 02RO	1	0	2.92788600922	-307.0	-25.0	-304	-18	1
2.7	2015_May_04_1236	s	s	3	1	SIC	203	ABS	0	1	02VD 02VO 02VC 02MD 02MO 02MC 02RD 10RO	0	1	2.82436704636	None	None	None	None	1
2.7	2015_May_04_1236	s	s	3	1	SIC	204	ABS	2	1	02VD 10VO 02VC 02MD 02MO 02MC 02RD 02RO	0	1	2.05582714081	None	None	None	None	1
2.7	2015_May_04_1236	s	s	3	1	SIC	205	RC	1	2	02VD 02VO 02VC 09MD 02MO 02MC 02RD 02RO	1	0	0.620463132858	-43.0	22.0	-32	32	1
2.7	2015_May_04_1236	s	s	3	1	SIC	206	ABS	2	2	10VD 02VO 02VC 02MD 02MO 02MC 02RD 02RO	0	1	1.53636097908	None	None	None	None	1
2.7	2015_May_04_1236	s	s	3	1	SIC	207	ABS	0	2	02VD 02VO 02VC 02MD 02MO 02MC 10RD 02RO	0	1	2.10054397583	None	None	None	None	1
2.7	2015_May_04_1236	s	s	3	1	SIC	208	RC	2	0	02VD 02VO 09VC 02MD 02MO 02MC 02RD 02RO	1	0	1.58336400986	400.0	-313.0	403	-310	1
2.7	2015_May_04_1236	s	s	3	1	SIC	209	ABS	1	0	02VD 02VO 02VC 02MD 02MO 10MC 02RD 02RO	0	1	2.98639893532	None	None	None	None	1
2.7	2015_May_04_1236	s	s	3	1	SIC	210	RC	1	1	02VD 02VO 02VC 02MD 09MO 02MC 02RD 02RO	1	0	1.07724308968	179.0	-190.0	191	-189	1
2.7	2015_May_04_1236	s	s	3	1	SIC	211	RC	1	0	02VD 02VO 02VC 02MD 02MO 09MC 02RD 02RO	1	0	0.799680948257	-204.0	98.0	-201	92	1
2.7	2015_May_04_1236	s	s	3	1	SIC	212	RC	2	0	02VD 02VO 09VC 02MD 02MO 02MC 02RD 02RO	1	0	1.79650402069	510.0	-244.0	517	-236	1
2.7	2015_May_04_1236	s	s	3	1	SIC	213	ABS	2	2	10VD 02VO 02VC 02MD 02MO 02MC 02RD 02RO	1	0	2.24753093719	None	None	-348	-265	0
2.7	2015_May_04_1236	s	s	3	1	SIC	214	ABS	1	2	02VD 02VO 02VC 10MD 02MO 02MC 02RD 02RO	0	1	1.64727687836	None	None	None	None	1
2.7	2015_May_04_1236	s	s	3	1	SIC	215	ABS	2	1	02VD 10VO 02VC 02MD 02MO 02MC 02RD 02RO	0	1	2.19752192497	None	None	None	None	1
2.7	2015_May_04_1236	s	s	3	1	SIC	216	ABS	1	1	02VD 02VO 02VC 02MD 10MO 02MC 02RD 02RO	0	1	3.2716190815	None	None	None	None	1
2.7	2015_May_04_1236	s	s	3	1	SIC	217	RC	2	1	02VD 09VO 02VC 02MD 02MO 02MC 02RD 02RO	0	1	2.18058609962	-153.0	157.0	None	None	0
2.7	2015_May_04_1236	s	s	3	1	SIC	218	RC	2	2	09VD 02VO 02VC 02MD 02MO 02MC 02RD 02RO	1	0	2.05288910866	452.0	-153.0	454	-157	1
2.7	2015_May_04_1236	s	s	3	1	SIC	219	RC	1	2	02VD 02VO 02VC 09MD 02MO 02MC 02RD 02RO	1	0	1.38266086578	416.0	68.0	418	74	1
2.7	2015_May_04_1236	s	s	3	1	SIC	220	ABS	2	0	02VD 02VO 10VC 02MD 02MO 02MC 02RD 02RO	0	1	2.07717204094	None	None	None	None	1
2.7	2015_May_04_1236	s	s	3	1	SIC	221	RC	0	2	02VD 02VO 02VC 02MD 02MO 02MC 09RD 02RO	1	0	1.96511983871	386.0	370.0	392	368	1
2.7	2015_May_04_1236	s	s	3	1	SIC	222	ABS	0	2	02VD 02VO 02VC 02MD 02MO 02MC 10RD 02RO	0	1	2.19681596756	None	None	None	None	1
2.7	2015_May_04_1236	s	s	3	1	SIC	223	RC	0	1	02VD 02VO 02VC 02MD 02MO 02MC 02RD 09RO	1	0	1.39999699593	183.0	35.0	181	38	1
2.7	2015_May_04_1236	s	s	3	1	SIC	224	ABS	0	1	02VD 02VO 02VC 02MD 02MO 02MC 02RD 10RO	0	1	3.05946493149	None	None	None	None	1
2.7	2015_May_04_1236	s	s	3	1	SIC	225	RC	1	0	02VD 02VO 02VC 02MD 02MO 09MC 02RD 02RO	1	0	3.17256903648	464.0	285.0	467	282	1
2.7	2015_May_04_1236	s	s	3	1	SIC	226	ABS	2	1	02VD 10VO 02VC 02MD 02MO 02MC 02RD 02RO	0	1	2.51536488533	None	None	None	None	1
2.7	2015_May_04_1236	s	s	3	1	SIC	227	RC	0	1	02VD 02VO 02VC 02MD 02MO 02MC 02RD 09RO	1	0	0.950020074844	-144.0	-12.0	-140	-10	1
2.7	2015_May_04_1236	s	s	3	1	SIC	228	ABS	0	1	02VD 02VO 02VC 02MD 02MO 02MC 02RD 10RO	0	1	3.36943888664	None	None	None	None	1
2.7	2015_May_04_1236	s	s	3	1	SIC	229	RC	2	2	09VD 02VO 02VC 02MD 02MO 02MC 02RD 02RO	1	0	1.03526902199	-96.0	265.0	-92	266	1
2.7	2015_May_04_1236	s	s	3	1	SIC	230	RC	1	1	02VD 02VO 02VC 02MD 09MO 02MC 02RD 02RO	1	0	1.67076396942	-109.0	398.0	-116	404	1
2.7	2015_May_04_1236	s	s	3	1	SIC	231	ABS	1	1	02VD 02VO 02VC 02MD 10MO 02MC 02RD 02RO	0	1	2.89481687546	None	None	None	None	1
2.7	2015_May_04_1236	s	s	3	1	SIC	232	ABS	2	0	02VD 02VO 10VC 02MD 02MO 02MC 02RD 02RO	0	1	2.5391368866	None	None	None	None	1
2.7	2015_May_04_1236	s	s	3	1	SIC	233	RC	2	1	02VD 09VO 02VC 02MD 02MO 02MC 02RD 02RO	1	0	1.80712985992	165.0	-377.0	169	-375	1
2.7	2015_May_04_1236	s	s	3	1	SIC	234	RC	2	0	02VD 02VO 09VC 02MD 02MO 02MC 02RD 02RO	1	0	0.929135799408	-142.0	402.0	-146	399	1
2.7	2015_May_04_1236	s	s	3	1	SIC	235	ABS	1	0	02VD 02VO 02VC 02MD 02MO 10MC 02RD 02RO	0	1	1.97225213051	None	None	None	None	1
2.7	2015_May_04_1236	s	s	3	1	SIC	236	ABS	1	2	02VD 02VO 02VC 10MD 02MO 02MC 02RD 02RO	0	1	2.05489397049	None	None	None	None	1
2.7	2015_May_04_1236	s	s	3	1	SIC	237	ABS	2	2	10VD 02VO 02VC 02MD 02MO 02MC 02RD 02RO	0	1	2.54168510437	None	None	None	None	1
2.7	2015_May_04_1236	s	s	3	1	SIC	238	ABS	0	2	02VD 02VO 02VC 02MD 02MO 02MC 10RD 02RO	0	1	2.45934796333	None	None	None	None	1
2.7	2015_May_04_1236	s	s	3	1	SIC	239	RC	0	2	02VD 02VO 02VC 02MD 02MO 02MC 09RD 02RO	1	0	0.788034915924	-149.0	163.0	-145	159	1
2.7	2015_May_04_1236	s	s	3	1	SIC	240	RC	1	2	02VD 02VO 02VC 09MD 02MO 02MC 02RD 02RO	1	0	0.90562415123	136.0	324.0	133	317	1
2.7	2015_May_04_1236	s	s	3	1	SIC	241	RC	2	2	09VD 02VO 02VC 02MD 02MO 02MC 02RD 02RO	1	0	5.60768890381	-240.0	205.0	-243	204	1
2.7	2015_May_04_1236	s	s	3	1	SIC	242	RC	2	1	02VD 09VO 02VC 02MD 02MO 02MC 02RD 02RO	1	0	6.99117183685	-486.0	4.0	-490	12	1
2.7	2015_May_04_1236	s	s	3	1	SIC	243	RC	2	0	02VD 02VO 09VC 02MD 02MO 02MC 02RD 02RO	1	0	4.3970811367	152.0	145.0	153	141	1
2.7	2015_May_04_1236	s	s	3	1	SIC	244	ABS	1	0	02VD 02VO 02VC 02MD 02MO 10MC 02RD 02RO	0	1	3.58931899071	None	None	None	None	1
2.7	2015_May_04_1236	s	s	3	1	SIC	245	ABS	2	2	10VD 02VO 02VC 02MD 02MO 02MC 02RD 02RO	0	1	2.43586802483	None	None	None	None	1
2.7	2015_May_04_1236	s	s	3	1	SIC	246	RC	1	0	02VD 02VO 02VC 02MD 02MO 09MC 02RD 02RO	1	0	1.36484599113	-346.0	352.0	-343	352	1
2.7	2015_May_04_1236	s	s	3	1	SIC	247	RC	0	1	02VD 02VO 02VC 02MD 02MO 02MC 02RD 09RO	1	0	1.8474240303	-151.0	-110.0	-150	-111	1
2.7	2015_May_04_1236	s	s	3	1	SIC	248	ABS	0	1	02VD 02VO 02VC 02MD 02MO 02MC 02RD 10RO	0	1	2.81256890297	None	None	None	None	1
2.7	2015_May_04_1236	s	s	3	1	SIC	249	ABS	1	2	02VD 02VO 02VC 10MD 02MO 02MC 02RD 02RO	0	1	2.13874197006	None	None	None	None	1
2.7	2015_May_04_1236	s	s	3	1	SIC	250	ABS	2	1	02VD 10VO 02VC 02MD 02MO 02MC 02RD 02RO	0	1	1.89114499092	None	None	None	None	1
2.7	2015_May_04_1236	s	s	3	1	SIC	251	RC	1	2	02VD 02VO 02VC 09MD 02MO 02MC 02RD 02RO	1	0	1.6319000721	360.0	-268.0	362	-268	1
2.7	2015_May_04_1236	s	s	3	1	SIC	252	ABS	2	0	02VD 02VO 10VC 02MD 02MO 02MC 02RD 02RO	0	1	1.93721389771	None	None	None	None	1
2.7	2015_May_04_1236	s	s	3	1	SIC	253	ABS	1	1	02VD 02VO 02VC 02MD 10MO 02MC 02RD 02RO	0	1	2.977435112	None	None	None	None	1
2.7	2015_May_04_1236	s	s	3	1	SIC	254	RC	1	1	02VD 02VO 02VC 02MD 09MO 02MC 02RD 02RO	1	0	2.68300700188	361.0	283.0	362	285	1
2.7	2015_May_04_1236	s	s	3	1	SIC	255	RC	0	2	02VD 02VO 02VC 02MD 02MO 02MC 09RD 02RO	1	0	0.856040000916	-83.0	122.0	-87	127	1
2.7	2015_May_04_1236	s	s	3	1	SIC	256	ABS	0	2	02VD 02VO 02VC 02MD 02MO 02MC 10RD 02RO	0	1	1.76238012314	None	None	None	None	1
2.7	2015_May_04_1236	s	s	3	1	SIC	257	RC	0	2	02VD 02VO 02VC 02MD 02MO 02MC 09RD 02RO	1	0	2.40741801262	439.0	-409.0	448	-407	1
2.7	2015_May_04_1236	s	s	3	1	SIC	258	RC	2	1	02VD 09VO 02VC 02MD 02MO 02MC 02RD 02RO	1	0	1.81251001358	-280.0	-153.0	-288	-153	1
2.7	2015_May_04_1236	s	s	3	1	SIC	259	ABS	1	2	02VD 02VO 02VC 10MD 02MO 02MC 02RD 02RO	0	1	1.60012888908	None	None	None	None	1
2.7	2015_May_04_1236	s	s	3	1	SIC	260	ABS	0	2	02VD 02VO 02VC 02MD 02MO 02MC 10RD 02RO	0	1	2.77209591866	None	None	None	None	1
2.7	2015_May_04_1236	s	s	3	1	SIC	261	ABS	1	0	02VD 02VO 02VC 02MD 02MO 10MC 02RD 02RO	0	1	2.55102205276	None	None	None	None	1
2.7	2015_May_04_1236	s	s	3	1	SIC	262	RC	1	0	02VD 02VO 02VC 02MD 02MO 09MC 02RD 02RO	1	0	1.83320808411	388.0	-238.0	387	-244	1
2.7	2015_May_04_1236	s	s	3	1	SIC	263	ABS	0	1	02VD 02VO 02VC 02MD 02MO 02MC 02RD 10RO	0	1	3.79535913467	None	None	None	None	1
2.7	2015_May_04_1236	s	s	3	1	SIC	264	ABS	2	0	02VD 02VO 10VC 02MD 02MO 02MC 02RD 02RO	0	1	1.79510402679	None	None	None	None	1
2.7	2015_May_04_1236	s	s	3	1	SIC	265	RC	2	0	02VD 02VO 09VC 02MD 02MO 02MC 02RD 02RO	1	0	1.97233486176	231.0	-1.0	233	4	1
2.7	2015_May_04_1236	s	s	3	1	SIC	266	RC	1	2	02VD 02VO 02VC 09MD 02MO 02MC 02RD 02RO	1	0	1.57654690742	446.0	-234.0	449	-230	1
2.7	2015_May_04_1236	s	s	3	1	SIC	267	ABS	2	2	10VD 02VO 02VC 02MD 02MO 02MC 02RD 02RO	0	1	1.67991995811	None	None	None	None	1
2.7	2015_May_04_1236	s	s	3	1	SIC	268	RC	0	1	02VD 02VO 02VC 02MD 02MO 02MC 02RD 09RO	1	0	1.52363395691	429.0	2.0	428	7	1
2.7	2015_May_04_1236	s	s	3	1	SIC	269	RC	1	1	02VD 02VO 02VC 02MD 09MO 02MC 02RD 02RO	1	0	1.18513298035	-504.0	-352.0	-509	-344	1
2.7	2015_May_04_1236	s	s	3	1	SIC	270	ABS	1	1	02VD 02VO 02VC 02MD 10MO 02MC 02RD 02RO	0	1	2.28956818581	None	None	None	None	1
2.7	2015_May_04_1236	s	s	3	1	SIC	271	ABS	2	1	02VD 10VO 02VC 02MD 02MO 02MC 02RD 02RO	0	1	1.83569407463	None	None	None	None	1
2.7	2015_May_04_1236	s	s	3	1	SIC	272	RC	2	2	09VD 02VO 02VC 02MD 02MO 02MC 02RD 02RO	1	0	0.587998151779	-354.0	331.0	-365	332	1
2.7	2015_May_04_1236	s	s	3	1	SIC	273	ABS	2	0	02VD 02VO 10VC 02MD 02MO 02MC 02RD 02RO	0	1	2.17694592476	None	None	None	None	1
2.7	2015_May_04_1236	s	s	3	1	SIC	274	ABS	1	1	02VD 02VO 02VC 02MD 10MO 02MC 02RD 02RO	0	1	2.3148329258	None	None	None	None	1
2.7	2015_May_04_1236	s	s	3	1	SIC	275	RC	1	2	02VD 02VO 02VC 09MD 02MO 02MC 02RD 02RO	1	0	0.960749149323	-197.0	-29.0	-184	-26	1
2.7	2015_May_04_1236	s	s	3	1	SIC	276	RC	2	1	02VD 09VO 02VC 02MD 02MO 02MC 02RD 02RO	1	0	0.654963970184	21.0	118.0	32	120	1
2.7	2015_May_04_1236	s	s	3	1	SIC	277	ABS	2	1	02VD 10VO 02VC 02MD 02MO 02MC 02RD 02RO	0	1	2.1063580513	None	None	None	None	1
2.7	2015_May_04_1236	s	s	3	1	SIC	278	ABS	2	2	10VD 02VO 02VC 02MD 02MO 02MC 02RD 02RO	0	1	2.22401309013	None	None	None	None	1
2.7	2015_May_04_1236	s	s	3	1	SIC	279	ABS	1	0	02VD 02VO 02VC 02MD 02MO 10MC 02RD 02RO	0	1	2.82424902916	None	None	None	None	1
2.7	2015_May_04_1236	s	s	3	1	SIC	280	RC	0	1	02VD 02VO 02VC 02MD 02MO 02MC 02RD 09RO	1	0	1.03526902199	-317.0	107.0	-321	115	1
2.7	2015_May_04_1236	s	s	3	1	SIC	281	RC	1	1	02VD 02VO 02VC 02MD 09MO 02MC 02RD 02RO	1	0	1.88003396988	298.0	-342.0	296	-339	1
2.7	2015_May_04_1236	s	s	3	1	SIC	282	RC	1	0	02VD 02VO 02VC 02MD 02MO 09MC 02RD 02RO	1	0	1.09396910667	-320.0	-1.0	-314	1	1
2.7	2015_May_04_1236	s	s	3	1	SIC	283	RC	2	0	02VD 02VO 09VC 02MD 02MO 02MC 02RD 02RO	1	0	0.996732950211	-277.0	-336.0	-277	-337	1
2.7	2015_May_04_1236	s	s	3	1	SIC	284	ABS	0	1	02VD 02VO 02VC 02MD 02MO 02MC 02RD 10RO	0	1	3.19612503052	None	None	None	None	1
2.7	2015_May_04_1236	s	s	3	1	SIC	285	RC	0	2	02VD 02VO 02VC 02MD 02MO 02MC 09RD 02RO	1	0	1.02351117134	261.0	60.0	267	65	1
2.7	2015_May_04_1236	s	s	3	1	SIC	286	ABS	1	2	02VD 02VO 02VC 10MD 02MO 02MC 02RD 02RO	0	1	2.21827292442	None	None	None	None	1
2.7	2015_May_04_1236	s	s	3	1	SIC	287	ABS	0	2	02VD 02VO 02VC 02MD 02MO 02MC 10RD 02RO	0	1	2.44272994995	None	None	None	None	1
2.7	2015_May_04_1236	s	s	3	1	SIC	288	RC	2	2	09VD 02VO 02VC 02MD 02MO 02MC 02RD 02RO	1	0	0.856015920639	-191.0	2.0	-198	0	1
2.7	2015_May_04_1236	s	s	3	1	SIC	289	ABS	1	2	02VD 02VO 02VC 10MD 02MO 02MC 02RD 02RO	0	1	1.7294049263	None	None	None	None	1
2.7	2015_May_04_1236	s	s	3	1	SIC	290	ABS	2	1	02VD 10VO 02VC 02MD 02MO 02MC 02RD 02RO	0	1	1.55316901207	None	None	None	None	1
2.7	2015_May_04_1236	s	s	3	1	SIC	291	ABS	2	0	02VD 02VO 10VC 02MD 02MO 02MC 02RD 02RO	0	1	2.23289680481	None	None	None	None	1
2.7	2015_May_04_1236	s	s	3	1	SIC	292	RC	2	0	02VD 02VO 09VC 02MD 02MO 02MC 02RD 02RO	1	0	0.678277015686	-100.0	386.0	-105	386	1
2.7	2015_May_04_1236	s	s	3	1	SIC	293	ABS	2	2	10VD 02VO 02VC 02MD 02MO 02MC 02RD 02RO	0	1	1.63002300262	None	None	None	None	1
2.7	2015_May_04_1236	s	s	3	1	SIC	294	RC	0	1	02VD 02VO 02VC 02MD 02MO 02MC 02RD 09RO	1	0	1.02096486092	-191.0	309.0	-184	315	1
2.7	2015_May_04_1236	s	s	3	1	SIC	295	RC	1	1	02VD 02VO 02VC 02MD 09MO 02MC 02RD 02RO	1	0	1.38544416428	457.0	196.0	460	194	1
2.7	2015_May_04_1236	s	s	3	1	SIC	296	RC	2	1	02VD 09VO 02VC 02MD 02MO 02MC 02RD 02RO	1	0	0.997381925583	-431.0	-348.0	-427	-356	1
2.7	2015_May_04_1236	s	s	3	1	SIC	297	RC	1	2	02VD 02VO 02VC 09MD 02MO 02MC 02RD 02RO	1	0	1.29407906532	-110.0	361.0	-113	362	1
2.7	2015_May_04_1236	s	s	3	1	SIC	298	ABS	0	2	02VD 02VO 02VC 02MD 02MO 02MC 10RD 02RO	0	1	2.10368680954	None	None	None	None	1
2.7	2015_May_04_1236	s	s	3	1	SIC	299	ABS	1	0	02VD 02VO 02VC 02MD 02MO 10MC 02RD 02RO	0	1	3.05691695213	None	None	None	None	1
2.7	2015_May_04_1236	s	s	3	1	SIC	300	RC	1	0	02VD 02VO 02VC 02MD 02MO 09MC 02RD 02RO	1	0	1.07984900475	-299.0	-141.0	-292	-140	1
2.7	2015_May_04_1236	s	s	3	1	SIC	301	RC	2	2	09VD 02VO 02VC 02MD 02MO 02MC 02RD 02RO	1	0	1.09038591385	-488.0	150.0	-492	146	1
2.7	2015_May_04_1236	s	s	3	1	SIC	302	RC	0	2	02VD 02VO 02VC 02MD 02MO 02MC 09RD 02RO	1	0	2.15313100815	52.0	296.0	54	302	1
2.7	2015_May_04_1236	s	s	3	1	SIC	303	ABS	1	1	02VD 02VO 02VC 02MD 10MO 02MC 02RD 02RO	0	1	2.62417197227	None	None	None	None	1
2.7	2015_May_04_1236	s	s	3	1	SIC	304	ABS	0	1	02VD 02VO 02VC 02MD 02MO 02MC 02RD 10RO	0	1	3.018201828	None	None	None	None	1
2.7	2015_May_04_1236	s	s	3	1	SIC	305	RC	1	1	02VD 02VO 02VC 02MD 09MO 02MC 02RD 02RO	1	0	1.86821293831	-374.0	-251.0	-381	-257	1
2.7	2015_May_04_1236	s	s	3	1	SIC	306	ABS	1	0	02VD 02VO 02VC 02MD 02MO 10MC 02RD 02RO	0	1	2.84375	None	None	None	None	1
2.7	2015_May_04_1236	s	s	3	1	SIC	307	ABS	1	1	02VD 02VO 02VC 02MD 10MO 02MC 02RD 02RO	0	1	2.84410905838	None	None	None	None	1
2.7	2015_May_04_1236	s	s	3	1	SIC	308	ABS	1	2	02VD 02VO 02VC 10MD 02MO 02MC 02RD 02RO	0	1	1.91796517372	None	None	None	None	1
2.7	2015_May_04_1236	s	s	3	1	SIC	309	ABS	2	0	02VD 02VO 10VC 02MD 02MO 02MC 02RD 02RO	0	1	1.62126708031	None	None	None	None	1
2.7	2015_May_04_1236	s	s	3	1	SIC	310	RC	1	0	02VD 02VO 02VC 02MD 02MO 09MC 02RD 02RO	1	0	1.9151289463	479.0	-212.0	479	-219	1
2.7	2015_May_04_1236	s	s	3	1	SIC	311	RC	1	2	02VD 02VO 02VC 09MD 02MO 02MC 02RD 02RO	1	0	1.54494094849	20.0	-394.0	26	-395	1
2.7	2015_May_04_1236	s	s	3	1	SIC	312	RC	2	2	09VD 02VO 02VC 02MD 02MO 02MC 02RD 02RO	1	0	1.22994303703	462.0	-85.0	473	-84	1
2.7	2015_May_04_1236	s	s	3	1	SIC	313	RC	2	1	02VD 09VO 02VC 02MD 02MO 02MC 02RD 02RO	1	0	0.912239789963	-319.0	-251.0	-309	-251	1
2.7	2015_May_04_1236	s	s	3	1	SIC	314	ABS	0	2	02VD 02VO 02VC 02MD 02MO 02MC 10RD 02RO	0	1	1.54957699776	None	None	None	None	1
2.7	2015_May_04_1236	s	s	3	1	SIC	315	ABS	2	2	10VD 02VO 02VC 02MD 02MO 02MC 02RD 02RO	0	1	1.5839369297	None	None	None	None	1
2.7	2015_May_04_1236	s	s	3	1	SIC	316	RC	0	1	02VD 02VO 02VC 02MD 02MO 02MC 02RD 09RO	1	0	2.76547598839	508.0	403.0	500	409	1
2.7	2015_May_04_1236	s	s	3	1	SIC	317	ABS	2	1	02VD 10VO 02VC 02MD 02MO 02MC 02RD 02RO	0	1	1.7848470211	None	None	None	None	1
2.7	2015_May_04_1236	s	s	3	1	SIC	318	ABS	0	1	02VD 02VO 02VC 02MD 02MO 02MC 02RD 10RO	0	1	3.5659570694	None	None	None	None	1
2.7	2015_May_04_1236	s	s	3	1	SIC	319	RC	2	0	02VD 02VO 09VC 02MD 02MO 02MC 02RD 02RO	1	0	1.29418087006	149.0	-210.0	155	-204	1
2.7	2015_May_04_1236	s	s	3	1	SIC	320	RC	0	2	02VD 02VO 02VC 02MD 02MO 02MC 09RD 02RO	1	0	0.666934013367	-239.0	186.0	-244	190	1
2.7	2015_May_04_1236	s	s	3	1	SIC	321	RC	1	2	02VD 02VO 02VC 09MD 02MO 02MC 02RD 02RO	1	0	0.576133012772	-162.0	194.0	-161	187	1
2.7	2015_May_04_1236	s	s	3	1	SIC	322	RC	2	1	02VD 09VO 02VC 02MD 02MO 02MC 02RD 02RO	1	0	1.21729803085	49.0	173.0	49	175	1
2.7	2015_May_04_1236	s	s	3	1	SIC	323	RC	0	2	02VD 02VO 02VC 02MD 02MO 02MC 09RD 02RO	1	0	2.05951404572	-301.0	-352.0	-300	-352	1
2.7	2015_May_04_1236	s	s	3	1	SIC	324	RC	0	1	02VD 02VO 02VC 02MD 02MO 02MC 02RD 09RO	1	0	3.17468714714	-81.0	407.0	-80	409	1
2.7	2015_May_04_1236	s	s	3	1	SIC	325	ABS	0	2	02VD 02VO 02VC 02MD 02MO 02MC 10RD 02RO	0	1	1.74150395393	None	None	None	None	1
2.7	2015_May_04_1236	s	s	3	1	SIC	326	ABS	2	0	02VD 02VO 10VC 02MD 02MO 02MC 02RD 02RO	0	1	1.31484484673	None	None	None	None	1
2.7	2015_May_04_1236	s	s	3	1	SIC	327	RC	1	0	02VD 02VO 02VC 02MD 02MO 09MC 02RD 02RO	1	0	2.18615818024	390.0	111.0	398	110	1
2.7	2015_May_04_1236	s	s	3	1	SIC	328	RC	2	2	09VD 02VO 02VC 02MD 02MO 02MC 02RD 02RO	1	0	1.3925139904	265.0	238.0	251	244	1
2.7	2015_May_04_1236	s	s	3	1	SIC	329	RC	1	1	02VD 02VO 02VC 02MD 09MO 02MC 02RD 02RO	1	0	1.25330305099	-290.0	-255.0	-292	-257	1
2.7	2015_May_04_1236	s	s	3	1	SIC	330	ABS	2	2	10VD 02VO 02VC 02MD 02MO 02MC 02RD 02RO	0	1	2.42147898674	None	None	None	None	1
2.7	2015_May_04_1236	s	s	3	1	SIC	331	ABS	1	0	02VD 02VO 02VC 02MD 02MO 10MC 02RD 02RO	0	1	2.50656104088	None	None	None	None	1
2.7	2015_May_04_1236	s	s	3	1	SIC	332	ABS	1	2	02VD 02VO 02VC 10MD 02MO 02MC 02RD 02RO	0	1	2.22398900986	None	None	None	None	1
2.7	2015_May_04_1236	s	s	3	1	SIC	333	RC	2	0	02VD 02VO 09VC 02MD 02MO 02MC 02RD 02RO	1	0	0.655964851379	25.0	118.0	35	127	1
2.7	2015_May_04_1236	s	s	3	1	SIC	334	ABS	2	1	02VD 10VO 02VC 02MD 02MO 02MC 02RD 02RO	0	1	1.92479801178	None	None	None	None	1
2.7	2015_May_04_1236	s	s	3	1	SIC	335	ABS	1	1	02VD 02VO 02VC 02MD 10MO 02MC 02RD 02RO	0	1	2.18604111671	None	None	None	None	1
2.7	2015_May_04_1236	s	s	3	1	SIC	336	ABS	0	1	02VD 02VO 02VC 02MD 02MO 02MC 02RD 10RO	0	1	2.56525492668	None	None	None	None	1
2.7	2015_May_04_1236	s	s	3	1	SIC	337	ABS	2	2	10VD 02VO 02VC 02MD 02MO 02MC 02RD 02RO	0	1	1.94156694412	None	None	None	None	1
2.7	2015_May_04_1236	s	s	3	1	SIC	338	RC	1	1	02VD 02VO 02VC 02MD 09MO 02MC 02RD 02RO	1	0	0.682258844376	-203.0	227.0	-200	227	1
2.7	2015_May_04_1236	s	s	3	1	SIC	339	RC	1	0	02VD 02VO 02VC 02MD 02MO 09MC 02RD 02RO	1	0	2.372797966	-293.0	-352.0	-298	-348	1
2.7	2015_May_04_1236	s	s	3	1	SIC	340	RC	1	2	02VD 02VO 02VC 09MD 02MO 02MC 02RD 02RO	1	0	1.27106904984	-44.0	-244.0	-41	-235	1
2.7	2015_May_04_1236	s	s	3	1	SIC	341	ABS	1	1	02VD 02VO 02VC 02MD 10MO 02MC 02RD 02RO	0	1	2.03954005241	None	None	None	None	1
2.7	2015_May_04_1236	s	s	3	1	SIC	342	ABS	0	2	02VD 02VO 02VC 02MD 02MO 02MC 10RD 02RO	0	1	2.04751610756	None	None	None	None	1
2.7	2015_May_04_1236	s	s	3	1	SIC	343	ABS	1	0	02VD 02VO 02VC 02MD 02MO 10MC 02RD 02RO	0	1	2.6892619133	None	None	None	None	1
2.7	2015_May_04_1236	s	s	3	1	SIC	344	RC	0	2	02VD 02VO 02VC 02MD 02MO 02MC 09RD 02RO	1	0	1.36149311066	342.0	-132.0	347	-127	1
2.7	2015_May_04_1236	s	s	3	1	SIC	345	ABS	2	1	02VD 10VO 02VC 02MD 02MO 02MC 02RD 02RO	0	1	1.75323200226	None	None	None	None	1
2.7	2015_May_04_1236	s	s	3	1	SIC	346	ABS	2	0	02VD 02VO 10VC 02MD 02MO 02MC 02RD 02RO	0	1	1.83560395241	None	None	None	None	1
2.7	2015_May_04_1236	s	s	3	1	SIC	347	ABS	1	2	02VD 02VO 02VC 10MD 02MO 02MC 02RD 02RO	0	1	1.82376790047	None	None	None	None	1
2.7	2015_May_04_1236	s	s	3	1	SIC	348	RC	2	1	02VD 09VO 02VC 02MD 02MO 02MC 02RD 02RO	1	0	2.07786011696	332.0	-387.0	337	-388	1
2.7	2015_May_04_1236	s	s	3	1	SIC	349	RC	2	0	02VD 02VO 09VC 02MD 02MO 02MC 02RD 02RO	1	0	0.929672002792	270.0	-406.0	270	-400	1
2.7	2015_May_04_1236	s	s	3	1	SIC	350	ABS	0	1	02VD 02VO 02VC 02MD 02MO 02MC 02RD 10RO	0	1	2.25932097435	None	None	None	None	1
2.7	2015_May_04_1236	s	s	3	1	SIC	351	RC	0	1	02VD 02VO 02VC 02MD 02MO 02MC 02RD 09RO	1	0	1.66612911224	403.0	-179.0	409	-173	1
2.7	2015_May_04_1236	s	s	3	1	SIC	352	RC	2	2	09VD 02VO 02VC 02MD 02MO 02MC 02RD 02RO	1	0	1.07826900482	320.0	73.0	313	73	1
2.7	2015_May_04_1236	s	s	3	1	SIC	353	RC	0	1	02VD 02VO 02VC 02MD 02MO 02MC 02RD 09RO	1	0	1.90178513527	-222.0	-211.0	-218	-202	1
2.7	2015_May_04_1236	s	s	3	1	SIC	354	RC	1	0	02VD 02VO 02VC 02MD 02MO 09MC 02RD 02RO	1	0	1.4211461544	524.0	95.0	525	97	1
2.7	2015_May_04_1236	s	s	3	1	SIC	355	RC	1	1	02VD 02VO 02VC 02MD 09MO 02MC 02RD 02RO	1	0	1.91066598892	99.0	-228.0	95	-225	1
2.7	2015_May_04_1236	s	s	3	1	SIC	356	ABS	1	2	02VD 02VO 02VC 10MD 02MO 02MC 02RD 02RO	0	1	2.00921607018	None	None	None	None	1
2.7	2015_May_04_1236	s	s	3	1	SIC	357	RC	2	0	02VD 02VO 09VC 02MD 02MO 02MC 02RD 02RO	1	0	0.867088794708	-189.0	-241.0	-187	-238	1
2.7	2015_May_04_1236	s	s	3	1	SIC	358	RC	1	2	02VD 02VO 02VC 09MD 02MO 02MC 02RD 02RO	1	0	1.13311910629	420.0	-8.0	410	-3	1
2.7	2015_May_04_1236	s	s	3	1	SIC	359	ABS	1	0	02VD 02VO 02VC 02MD 02MO 10MC 02RD 02RO	0	1	2.12587094307	None	None	None	None	1
2.7	2015_May_04_1236	s	s	3	1	SIC	360	ABS	0	2	02VD 02VO 02VC 02MD 02MO 02MC 10RD 02RO	0	1	1.62374901772	None	None	None	None	1
2.7	2015_May_04_1236	s	s	3	1	SIC	361	ABS	1	1	02VD 02VO 02VC 02MD 10MO 02MC 02RD 02RO	0	1	2.43564105034	None	None	None	None	1
2.7	2015_May_04_1236	s	s	3	1	SIC	362	ABS	0	1	02VD 02VO 02VC 02MD 02MO 02MC 02RD 10RO	0	1	2.99572896957	None	None	None	None	1
2.7	2015_May_04_1236	s	s	3	1	SIC	363	RC	2	1	02VD 09VO 02VC 02MD 02MO 02MC 02RD 02RO	1	0	1.22078084946	134.0	317.0	145	326	1
2.7	2015_May_04_1236	s	s	3	1	SIC	364	RC	2	2	09VD 02VO 02VC 02MD 02MO 02MC 02RD 02RO	1	0	0.891839981079	-25.0	350.0	-33	349	1
2.7	2015_May_04_1236	s	s	3	1	SIC	365	ABS	2	0	02VD 02VO 10VC 02MD 02MO 02MC 02RD 02RO	0	1	1.15293312073	None	None	None	None	1
2.7	2015_May_04_1236	s	s	3	1	SIC	366	RC	0	2	02VD 02VO 02VC 02MD 02MO 02MC 09RD 02RO	1	0	0.726177930832	-495.0	134.0	-505	134	1
2.7	2015_May_04_1236	s	s	3	1	SIC	367	ABS	2	2	10VD 02VO 02VC 02MD 02MO 02MC 02RD 02RO	0	1	1.6797170639	None	None	None	None	1
2.7	2015_May_04_1236	s	s	3	1	SIC	368	ABS	2	1	02VD 10VO 02VC 02MD 02MO 02MC 02RD 02RO	0	1	2.47854089737	None	None	None	None	1
2.7	2015_May_04_1236	s	s	3	1	SIC	369	RC	0	2	02VD 02VO 02VC 02MD 02MO 02MC 09RD 02RO	1	0	0.893975019455	94.0	-6.0	96	0	1
2.7	2015_May_04_1236	s	s	3	1	SIC	370	ABS	2	2	10VD 02VO 02VC 02MD 02MO 02MC 02RD 02RO	0	1	1.74129581451	None	None	None	None	1
2.7	2015_May_04_1236	s	s	3	1	SIC	371	RC	2	0	02VD 02VO 09VC 02MD 02MO 02MC 02RD 02RO	1	0	1.0234079361	505.0	4.0	513	0	1
2.7	2015_May_04_1236	s	s	3	1	SIC	372	ABS	2	0	02VD 02VO 10VC 02MD 02MO 02MC 02RD 02RO	0	1	1.56145119667	None	None	None	None	1
2.7	2015_May_04_1236	s	s	3	1	SIC	373	RC	1	2	02VD 02VO 02VC 09MD 02MO 02MC 02RD 02RO	1	0	0.71467089653	-35.0	9.0	-27	16	1
2.7	2015_May_04_1236	s	s	3	1	SIC	374	RC	2	1	02VD 09VO 02VC 02MD 02MO 02MC 02RD 02RO	1	0	0.685838937759	-148.0	-193.0	-139	-192	1
2.7	2015_May_04_1236	s	s	3	1	SIC	375	ABS	1	2	02VD 02VO 02VC 10MD 02MO 02MC 02RD 02RO	0	1	1.70609998703	None	None	None	None	1
2.7	2015_May_04_1236	s	s	3	1	SIC	376	RC	0	1	02VD 02VO 02VC 02MD 02MO 02MC 02RD 09RO	1	0	2.11804103851	258.0	-199.0	258	-199	1
2.7	2015_May_04_1236	s	s	3	1	SIC	377	ABS	1	0	02VD 02VO 02VC 02MD 02MO 10MC 02RD 02RO	0	1	2.82423400879	None	None	None	None	1
2.7	2015_May_04_1236	s	s	3	1	SIC	378	ABS	2	1	02VD 10VO 02VC 02MD 02MO 02MC 02RD 02RO	0	1	1.43545913696	None	None	None	None	1
2.7	2015_May_04_1236	s	s	3	1	SIC	379	ABS	0	2	02VD 02VO 02VC 02MD 02MO 02MC 10RD 02RO	0	1	2.16209316254	None	None	None	None	1
2.7	2015_May_04_1236	s	s	3	1	SIC	380	ABS	0	1	02VD 02VO 02VC 02MD 02MO 02MC 02RD 10RO	0	1	2.63089895248	None	None	None	None	1
2.7	2015_May_04_1236	s	s	3	1	SIC	381	RC	2	2	09VD 02VO 02VC 02MD 02MO 02MC 02RD 02RO	1	0	0.549845933914	-100.0	140.0	-90	143	1
2.7	2015_May_04_1236	s	s	3	1	SIC	382	RC	1	0	02VD 02VO 02VC 02MD 02MO 09MC 02RD 02RO	1	0	1.69168591499	-326.0	-16.0	-337	-13	1
2.7	2015_May_04_1236	s	s	3	1	SIC	383	RC	1	1	02VD 02VO 02VC 02MD 09MO 02MC 02RD 02RO	1	0	1.48239207268	382.0	196.0	378	203	1
2.7	2015_May_04_1236	s	s	3	1	SIC	384	ABS	1	1	02VD 02VO 02VC 02MD 10MO 02MC 02RD 02RO	0	1	2.49475502968	None	None	None	None	1
2.7	2015_May_04_1236	s	s	3	1	SIC	385	RC	0	2	02VD 02VO 02VC 02MD 02MO 02MC 09RD 02RO	1	0	1.38581109047	333.0	280.0	326	288	1
2.7	2015_May_04_1236	s	s	3	1	SIC	386	RC	0	1	02VD 02VO 02VC 02MD 02MO 02MC 02RD 09RO	1	0	0.925024986267	-252.0	-127.0	-250	-137	1
2.7	2015_May_04_1236	s	s	3	1	SIC	387	ABS	2	0	02VD 02VO 10VC 02MD 02MO 02MC 02RD 02RO	0	1	2.17454409599	None	None	None	None	1
2.7	2015_May_04_1236	s	s	3	1	SIC	388	ABS	2	2	10VD 02VO 02VC 02MD 02MO 02MC 02RD 02RO	0	1	1.99230003357	None	None	None	None	1
2.7	2015_May_04_1236	s	s	3	1	SIC	389	RC	2	1	02VD 09VO 02VC 02MD 02MO 02MC 02RD 02RO	1	0	0.78796005249	-44.0	-79.0	-41	-91	1
2.7	2015_May_04_1236	s	s	3	1	SIC	390	RC	2	2	09VD 02VO 02VC 02MD 02MO 02MC 02RD 02RO	1	0	0.976314067841	315.0	-170.0	311	-170	1
2.7	2015_May_04_1236	s	s	3	1	SIC	391	RC	1	0	02VD 02VO 02VC 02MD 02MO 09MC 02RD 02RO	1	0	0.552579164505	-234.0	236.0	-241	242	1
2.7	2015_May_04_1236	s	s	3	1	SIC	392	ABS	1	2	02VD 02VO 02VC 10MD 02MO 02MC 02RD 02RO	1	0	0.976572036743	None	None	279	-155	0
2.7	2015_May_04_1236	s	s	3	1	SIC	393	ABS	0	1	02VD 02VO 02VC 02MD 02MO 02MC 02RD 10RO	0	1	3.01974701881	None	None	None	None	1
2.7	2015_May_04_1236	s	s	3	1	SIC	394	RC	1	1	02VD 02VO 02VC 02MD 09MO 02MC 02RD 02RO	1	0	0.917860984802	-387.0	255.0	-397	263	1
2.7	2015_May_04_1236	s	s	3	1	SIC	395	ABS	2	1	02VD 10VO 02VC 02MD 02MO 02MC 02RD 02RO	0	1	1.91438317299	None	None	None	None	1
2.7	2015_May_04_1236	s	s	3	1	SIC	396	ABS	1	0	02VD 02VO 02VC 02MD 02MO 10MC 02RD 02RO	0	1	2.55039715767	None	None	None	None	1
2.7	2015_May_04_1236	s	s	3	1	SIC	397	RC	1	2	02VD 02VO 02VC 09MD 02MO 02MC 02RD 02RO	1	0	1.1464099884	377.0	-335.0	-436	32	0
2.7	2015_May_04_1236	s	s	3	1	SIC	398	ABS	0	2	02VD 02VO 02VC 02MD 02MO 02MC 10RD 02RO	0	1	2.74174714088	None	None	None	None	1
2.7	2015_May_04_1236	s	s	3	1	SIC	399	RC	2	0	02VD 02VO 09VC 02MD 02MO 02MC 02RD 02RO	1	0	1.89190888405	5.0	-176.0	5	-171	1
2.7	2015_May_04_1236	s	s	3	1	SIC	400	ABS	1	1	02VD 02VO 02VC 02MD 10MO 02MC 02RD 02RO	0	1	2.38536405563	None	None	None	None	1
2.7	2015_May_04_1236	s	s	3	1	SIC	401	RC	2	1	02VD 09VO 02VC 02MD 02MO 02MC 02RD 02RO	1	0	0.811573028564	-489.0	-201.0	-495	-207	1
2.7	2015_May_04_1236	s	s	3	1	SIC	402	RC	2	2	09VD 02VO 02VC 02MD 02MO 02MC 02RD 02RO	1	0	1.16455793381	-110.0	-385.0	-112	-383	1
2.7	2015_May_04_1236	s	s	3	1	SIC	403	ABS	2	0	02VD 02VO 10VC 02MD 02MO 02MC 02RD 02RO	0	1	1.86578702927	None	None	None	None	1
2.7	2015_May_04_1236	s	s	3	1	SIC	404	RC	1	2	02VD 02VO 02VC 09MD 02MO 02MC 02RD 02RO	1	0	1.24389195442	147.0	-25.0	150	-30	1
2.7	2015_May_04_1236	s	s	3	1	SIC	405	ABS	1	1	02VD 02VO 02VC 02MD 10MO 02MC 02RD 02RO	0	1	2.47998285294	None	None	None	None	1
2.7	2015_May_04_1236	s	s	3	1	SIC	406	ABS	1	2	02VD 02VO 02VC 10MD 02MO 02MC 02RD 02RO	0	1	1.72441196442	None	None	None	None	1
2.7	2015_May_04_1236	s	s	3	1	SIC	407	ABS	0	2	02VD 02VO 02VC 02MD 02MO 02MC 10RD 02RO	0	1	2.02401304245	None	None	None	None	1
2.7	2015_May_04_1236	s	s	3	1	SIC	408	ABS	2	1	02VD 10VO 02VC 02MD 02MO 02MC 02RD 02RO	0	1	1.69097590446	None	None	None	None	1
2.7	2015_May_04_1236	s	s	3	1	SIC	409	RC	2	0	02VD 02VO 09VC 02MD 02MO 02MC 02RD 02RO	1	0	1.1690928936	76.0	261.0	72	256	1
2.7	2015_May_04_1236	s	s	3	1	SIC	410	RC	0	2	02VD 02VO 02VC 02MD 02MO 02MC 09RD 02RO	1	0	1.33319687843	-20.0	-204.0	-23	-208	1
2.7	2015_May_04_1236	s	s	3	1	SIC	411	RC	1	0	02VD 02VO 02VC 02MD 02MO 09MC 02RD 02RO	1	0	1.84471607208	286.0	260.0	286	256	1
2.7	2015_May_04_1236	s	s	3	1	SIC	412	ABS	1	0	02VD 02VO 02VC 02MD 02MO 10MC 02RD 02RO	0	1	3.03306794167	None	None	None	None	1
2.7	2015_May_04_1236	s	s	3	1	SIC	413	RC	1	1	02VD 02VO 02VC 02MD 09MO 02MC 02RD 02RO	1	0	0.705603837967	35.0	124.0	33	126	1
2.7	2015_May_04_1236	s	s	3	1	SIC	414	ABS	0	1	02VD 02VO 02VC 02MD 02MO 02MC 02RD 10RO	0	1	3.39789295197	None	None	None	None	1
2.7	2015_May_04_1236	s	s	3	1	SIC	415	ABS	2	2	10VD 02VO 02VC 02MD 02MO 02MC 02RD 02RO	0	1	2.06730413437	None	None	None	None	1
2.7	2015_May_04_1236	s	s	3	1	SIC	416	RC	0	1	02VD 02VO 02VC 02MD 02MO 02MC 02RD 09RO	1	0	1.93875479698	402.0	-254.0	409	-255	1
2.7	2015_May_04_1236	s	s	3	1	SIC	417	RC	1	1	02VD 02VO 02VC 02MD 09MO 02MC 02RD 02RO	1	0	1.7414329052	-300.0	-384.0	-294	-390	1
2.7	2015_May_04_1236	s	s	3	1	SIC	418	RC	2	0	02VD 02VO 09VC 02MD 02MO 02MC 02RD 02RO	1	0	0.982485055923	-393.0	-215.0	-396	-222	1
2.7	2015_May_04_1236	s	s	3	1	SIC	419	ABS	1	0	02VD 02VO 02VC 02MD 02MO 10MC 02RD 02RO	0	1	3.35394692421	None	None	None	None	1
2.7	2015_May_04_1236	s	s	3	1	SIC	420	RC	2	1	02VD 09VO 02VC 02MD 02MO 02MC 02RD 02RO	1	0	1.96869492531	496.0	202.0	498	201	1
2.7	2015_May_04_1236	s	s	3	1	SIC	421	ABS	2	2	10VD 02VO 02VC 02MD 02MO 02MC 02RD 02RO	0	1	1.95332598686	None	None	None	None	1
2.7	2015_May_04_1236	s	s	3	1	SIC	422	ABS	2	0	02VD 02VO 10VC 02MD 02MO 02MC 02RD 02RO	0	1	2.45952010155	None	None	None	None	1
2.7	2015_May_04_1236	s	s	3	1	SIC	423	ABS	1	2	02VD 02VO 02VC 10MD 02MO 02MC 02RD 02RO	0	1	1.41187596321	None	None	None	None	1
2.7	2015_May_04_1236	s	s	3	1	SIC	424	RC	2	2	09VD 02VO 02VC 02MD 02MO 02MC 02RD 02RO	1	0	0.675727844238	-209.0	13.0	-206	7	1
2.7	2015_May_04_1236	s	s	3	1	SIC	425	RC	1	0	02VD 02VO 02VC 02MD 02MO 09MC 02RD 02RO	1	0	1.72696685791	-503.0	-189.0	-495	-180	1
2.7	2015_May_04_1236	s	s	3	1	SIC	426	ABS	1	1	02VD 02VO 02VC 02MD 10MO 02MC 02RD 02RO	0	1	2.27117800713	None	None	None	None	1
2.7	2015_May_04_1236	s	s	3	1	SIC	427	ABS	0	2	02VD 02VO 02VC 02MD 02MO 02MC 10RD 02RO	0	1	1.83561491966	None	None	None	None	1
2.7	2015_May_04_1236	s	s	3	1	SIC	428	RC	0	2	02VD 02VO 02VC 02MD 02MO 02MC 09RD 02RO	1	0	1.35886311531	393.0	-253.0	389	-260	1
2.7	2015_May_04_1236	s	s	3	1	SIC	429	RC	0	1	02VD 02VO 02VC 02MD 02MO 02MC 02RD 09RO	1	0	0.678881883621	-226.0	97.0	-233	97	1
2.7	2015_May_04_1236	s	s	3	1	SIC	430	ABS	2	1	02VD 10VO 02VC 02MD 02MO 02MC 02RD 02RO	0	1	2.02388596535	None	None	None	None	1
2.7	2015_May_04_1236	s	s	3	1	SIC	431	ABS	0	1	02VD 02VO 02VC 02MD 02MO 02MC 02RD 10RO	0	1	3.36576294899	None	None	None	None	1
2.7	2015_May_04_1236	s	s	3	1	SIC	432	RC	1	2	02VD 02VO 02VC 09MD 02MO 02MC 02RD 02RO	1	0	1.85426998138	351.0	408.0	349	410	1
2.7	2015_May_04_1236	s	s	3	1	SIC	433	RC	2	1	02VD 09VO 02VC 02MD 02MO 02MC 02RD 02RO	1	0	0.75995016098	-13.0	283.0	-5	277	1
2.7	2015_May_04_1236	s	s	3	1	SIC	434	ABS	0	2	02VD 02VO 02VC 02MD 02MO 02MC 10RD 02RO	0	1	1.66534590721	None	None	None	None	1
2.7	2015_May_04_1236	s	s	3	1	SIC	435	RC	2	2	09VD 02VO 02VC 02MD 02MO 02MC 02RD 02RO	1	0	0.764975070953	230.0	-157.0	227	-155	1
2.7	2015_May_04_1236	s	s	3	1	SIC	436	ABS	1	2	02VD 02VO 02VC 10MD 02MO 02MC 02RD 02RO	0	1	1.95095801353	None	None	None	None	1
2.7	2015_May_04_1236	s	s	3	1	SIC	437	ABS	2	0	02VD 02VO 10VC 02MD 02MO 02MC 02RD 02RO	0	1	1.9388999939	None	None	None	None	1
2.7	2015_May_04_1236	s	s	3	1	SIC	438	RC	1	2	02VD 02VO 02VC 09MD 02MO 02MC 02RD 02RO	1	0	0.712468862534	-405.0	-214.0	-415	-216	1
2.7	2015_May_04_1236	s	s	3	1	SIC	439	ABS	0	1	02VD 02VO 02VC 02MD 02MO 02MC 02RD 10RO	0	1	3.75156211853	None	None	None	None	1
2.7	2015_May_04_1236	s	s	3	1	SIC	440	ABS	1	0	02VD 02VO 02VC 02MD 02MO 10MC 02RD 02RO	0	1	2.05651712418	None	None	None	None	1
2.7	2015_May_04_1236	s	s	3	1	SIC	441	RC	2	0	02VD 02VO 09VC 02MD 02MO 02MC 02RD 02RO	1	0	1.95306706429	-454.0	-215.0	-452	-218	1
2.7	2015_May_04_1236	s	s	3	1	SIC	442	ABS	1	1	02VD 02VO 02VC 02MD 10MO 02MC 02RD 02RO	0	1	3.74914813042	None	None	None	None	1
2.7	2015_May_04_1236	s	s	3	1	SIC	443	RC	1	0	02VD 02VO 02VC 02MD 02MO 09MC 02RD 02RO	1	0	1.66807103157	25.0	381.0	33	380	1
2.7	2015_May_04_1236	s	s	3	1	SIC	444	ABS	2	2	10VD 02VO 02VC 02MD 02MO 02MC 02RD 02RO	0	1	2.49052810669	None	None	None	None	1
2.7	2015_May_04_1236	s	s	3	1	SIC	445	ABS	2	1	02VD 10VO 02VC 02MD 02MO 02MC 02RD 02RO	0	1	2.12644600868	None	None	None	None	1
2.7	2015_May_04_1236	s	s	3	1	SIC	446	RC	0	2	02VD 02VO 02VC 02MD 02MO 02MC 09RD 02RO	1	0	0.988009929657	16.0	-211.0	24	-211	1
2.7	2015_May_04_1236	s	s	3	1	SIC	447	RC	0	1	02VD 02VO 02VC 02MD 02MO 02MC 02RD 09RO	1	0	0.846927881241	-231.0	263.0	-231	260	1
2.7	2015_May_04_1236	s	s	3	1	SIC	448	RC	1	1	02VD 02VO 02VC 02MD 09MO 02MC 02RD 02RO	1	0	2.79464411736	-369.0	273.0	-367	275	1
2.7	2015_May_04_1236	s	s	3	1	SIC	449	RC	2	0	02VD 02VO 09VC 02MD 02MO 02MC 02RD 02RO	1	0	1.08215808868	462.0	-193.0	469	-191	1
2.7	2015_May_04_1236	s	s	3	1	SIC	450	ABS	1	0	02VD 02VO 02VC 02MD 02MO 10MC 02RD 02RO	0	1	1.76175999641	None	None	None	None	1
2.7	2015_May_04_1236	s	s	3	1	SIC	451	ABS	2	0	02VD 02VO 10VC 02MD 02MO 02MC 02RD 02RO	0	1	1.69430613518	None	None	None	None	1
2.7	2015_May_04_1236	s	s	3	1	SIC	452	RC	1	1	02VD 02VO 02VC 02MD 09MO 02MC 02RD 02RO	1	0	1.0324139595	294.0	61.0	294	66	1
2.7	2015_May_04_1236	s	s	3	1	SIC	453	ABS	2	1	02VD 10VO 02VC 02MD 02MO 02MC 02RD 02RO	0	1	1.27081489563	None	None	None	None	1
2.7	2015_May_04_1236	s	s	3	1	SIC	454	RC	2	1	02VD 09VO 02VC 02MD 02MO 02MC 02RD 02RO	1	0	1.61191296577	-486.0	-375.0	-494	-370	1
2.7	2015_May_04_1236	s	s	3	1	SIC	455	RC	1	2	02VD 02VO 02VC 09MD 02MO 02MC 02RD 02RO	1	0	1.11737895012	1.0	-307.0	9	-310	1
2.7	2015_May_04_1236	s	s	3	1	SIC	456	RC	2	2	09VD 02VO 02VC 02MD 02MO 02MC 02RD 02RO	1	0	0.785318136215	115.0	-281.0	118	-289	1
2.7	2015_May_04_1236	s	s	3	1	SIC	457	RC	0	1	02VD 02VO 02VC 02MD 02MO 02MC 02RD 09RO	1	0	1.19667196274	-374.0	-255.0	-376	-260	1
2.7	2015_May_04_1236	s	s	3	1	SIC	458	ABS	2	2	10VD 02VO 02VC 02MD 02MO 02MC 02RD 02RO	0	1	1.9269900322	None	None	None	None	1
2.7	2015_May_04_1236	s	s	3	1	SIC	459	ABS	1	2	02VD 02VO 02VC 10MD 02MO 02MC 02RD 02RO	0	1	1.57388591766	None	None	None	None	1
2.7	2015_May_04_1236	s	s	3	1	SIC	460	ABS	0	2	02VD 02VO 02VC 02MD 02MO 02MC 10RD 02RO	0	1	2.27114200592	None	None	None	None	1
2.7	2015_May_04_1236	s	s	3	1	SIC	461	ABS	0	1	02VD 02VO 02VC 02MD 02MO 02MC 02RD 10RO	0	1	3.1537759304	None	None	None	None	1
2.7	2015_May_04_1236	s	s	3	1	SIC	462	RC	0	2	02VD 02VO 02VC 02MD 02MO 02MC 09RD 02RO	1	0	1.43261313438	-409.0	-172.0	-409	-178	1
2.7	2015_May_04_1236	s	s	3	1	SIC	463	RC	1	0	02VD 02VO 02VC 02MD 02MO 09MC 02RD 02RO	1	0	0.717335939407	59.0	-65.0	66	-64	1
2.7	2015_May_04_1236	s	s	3	1	SIC	464	ABS	1	1	02VD 02VO 02VC 02MD 10MO 02MC 02RD 02RO	0	1	1.78851699829	None	None	None	None	1
2.7	2015_May_04_1236	s	s	3	1	SIC	465	ABS	0	2	02VD 02VO 02VC 02MD 02MO 02MC 10RD 02RO	0	1	2.85665488243	None	None	None	None	1
2.7	2015_May_04_1236	s	s	3	1	SIC	466	RC	2	1	02VD 09VO 02VC 02MD 02MO 02MC 02RD 02RO	1	0	1.13776707649	-289.0	-164.0	-290	-164	1
2.7	2015_May_04_1236	s	s	3	1	SIC	467	RC	1	0	02VD 02VO 02VC 02MD 02MO 09MC 02RD 02RO	1	0	0.667159080505	72.0	101.0	66	97	1
2.7	2015_May_04_1236	s	s	3	1	SIC	468	RC	1	1	02VD 02VO 02VC 02MD 09MO 02MC 02RD 02RO	1	0	1.1529610157	443.0	308.0	450	312	1
2.7	2015_May_04_1236	s	s	3	1	SIC	469	RC	0	1	02VD 02VO 02VC 02MD 02MO 02MC 02RD 09RO	1	0	1.34137678146	91.0	271.0	83	276	1
2.7	2015_May_04_1236	s	s	3	1	SIC	470	ABS	2	2	10VD 02VO 02VC 02MD 02MO 02MC 02RD 02RO	0	1	1.78849887848	None	None	None	None	1
2.7	2015_May_04_1236	s	s	3	1	SIC	471	ABS	0	1	02VD 02VO 02VC 02MD 02MO 02MC 02RD 10RO	0	1	3.98415493965	None	None	None	None	1
2.7	2015_May_04_1236	s	s	3	1	SIC	472	RC	0	2	02VD 02VO 02VC 02MD 02MO 02MC 09RD 02RO	1	0	2.00402402878	476.0	196.0	480	203	1
2.7	2015_May_04_1236	s	s	3	1	SIC	473	RC	2	0	02VD 02VO 09VC 02MD 02MO 02MC 02RD 02RO	1	0	1.07618808746	33.0	-327.0	31	-324	1
2.7	2015_May_04_1236	s	s	3	1	SIC	474	RC	2	2	09VD 02VO 02VC 02MD 02MO 02MC 02RD 02RO	1	0	0.78314614296	-480.0	-44.0	-479	-42	1
2.7	2015_May_04_1236	s	s	3	1	SIC	475	ABS	1	0	02VD 02VO 02VC 02MD 02MO 10MC 02RD 02RO	0	1	2.60910606384	None	None	None	None	1
2.7	2015_May_04_1236	s	s	3	1	SIC	476	ABS	1	2	02VD 02VO 02VC 10MD 02MO 02MC 02RD 02RO	1	0	1.64512014389	None	None	302	-367	0
2.7	2015_May_04_1236	s	s	3	1	SIC	477	ABS	2	0	02VD 02VO 10VC 02MD 02MO 02MC 02RD 02RO	0	1	2.24196910858	None	None	None	None	1
2.7	2015_May_04_1236	s	s	3	1	SIC	478	RC	1	2	02VD 02VO 02VC 09MD 02MO 02MC 02RD 02RO	1	0	0.867137908936	-493.0	-127.0	-503	-124	1
2.7	2015_May_04_1236	s	s	3	1	SIC	479	ABS	1	1	02VD 02VO 02VC 02MD 10MO 02MC 02RD 02RO	0	1	2.32757592201	None	None	None	None	1
2.7	2015_May_04_1236	s	s	3	1	SIC	480	ABS	2	1	02VD 10VO 02VC 02MD 02MO 02MC 02RD 02RO	0	1	1.83549809456	None	None	None	None	1
