Version	Date	Stimuli	Method	Subject	Session	Condition	Trial	Target	Channel1	Channel2	Distractors	LMouseButton	RMouseButton	RT	TargetX	TargetY	ResponseX	ResponseY	Correct
2.7	2015_May_07_1236	s	s	3	3	Capacity	1	ABS	2	0	16VC 08MC	0	1	1.85911989212	None	None	None	None	1
2.7	2015_May_07_1236	s	s	3	3	Capacity	2	RC	2	0	15VC 08MC	1	0	3.60171508789	-378.0	-195.0	-379	-192	1
2.7	2015_May_07_1236	s	s	3	3	Capacity	3	RC	1	0	08VC 15MC	1	0	1.63088583946	-327.0	-2.0	-324	-3	1
2.7	2015_May_07_1236	s	s	3	3	Capacity	4	ABS	1	0	08VC 16MC	0	1	3.09490704536	None	None	None	None	1
2.7	2015_May_07_1236	s	s	3	3	Capacity	5	RC	2	0	15VC 08MC	1	0	1.40907597542	536.0	74.0	528	76	1
2.7	2015_May_07_1236	s	s	3	3	Capacity	6	RC	1	0	08VC 15MC	1	0	0.705645084381	43.0	-112.0	44	-111	1
2.7	2015_May_07_1236	s	s	3	3	Capacity	7	ABS	1	0	08VC 16MC	0	1	2.7184548378	None	None	None	None	1
2.7	2015_May_07_1236	s	s	3	3	Capacity	8	ABS	2	0	16VC 08MC	0	1	1.71792912483	None	None	None	None	1
2.7	2015_May_07_1236	s	s	3	3	Capacity	9	ABS	1	0	08VC 16MC	0	1	2.54849386215	None	None	None	None	1
2.7	2015_May_07_1236	s	s	3	3	Capacity	10	RC	1	0	08VC 15MC	1	0	1.12381505966	-7.0	298.0	-4	295	1
2.7	2015_May_07_1236	s	s	3	3	Capacity	11	RC	2	0	15VC 08MC	1	0	1.04692196846	-33.0	-108.0	-31	-104	1
2.7	2015_May_07_1236	s	s	3	3	Capacity	12	ABS	2	0	16VC 08MC	0	1	1.00898194313	None	None	None	None	1
2.7	2015_May_07_1236	s	s	3	3	Capacity	13	RC	2	0	15VC 08MC	1	0	1.2891600132	285.0	10.0	287	14	1
2.7	2015_May_07_1236	s	s	3	3	Capacity	14	RC	1	0	08VC 15MC	1	0	1.38828396797	-538.0	298.0	-544	303	1
2.7	2015_May_07_1236	s	s	3	3	Capacity	15	ABS	2	0	16VC 08MC	0	1	1.53405189514	None	None	None	None	1
2.7	2015_May_07_1236	s	s	3	3	Capacity	16	ABS	1	0	08VC 16MC	0	1	1.98621201515	None	None	None	None	1
2.7	2015_May_07_1236	s	s	3	3	Capacity	17	RC	1	0	08VC 15MC	1	0	1.07844400406	269.0	376.0	272	379	1
2.7	2015_May_07_1236	s	s	3	3	Capacity	18	ABS	1	0	08VC 16MC	0	1	2.00713515282	None	None	None	None	1
2.7	2015_May_07_1236	s	s	3	3	Capacity	19	ABS	2	0	16VC 08MC	0	1	1.59544920921	None	None	None	None	1
2.7	2015_May_07_1236	s	s	3	3	Capacity	20	RC	2	0	15VC 08MC	1	0	0.805648088455	297.0	136.0	290	137	1
2.7	2015_May_07_1236	s	s	3	3	Capacity	21	ABS	2	0	16VC 08MC	0	1	1.08215904236	None	None	None	None	1
2.7	2015_May_07_1236	s	s	3	3	Capacity	22	RC	2	0	15VC 08MC	1	0	1.0823071003	3.0	-149.0	5	-149	1
2.7	2015_May_07_1236	s	s	3	3	Capacity	23	RC	1	0	08VC 15MC	1	0	0.682435035706	20.0	-138.0	29	-129	1
2.7	2015_May_07_1236	s	s	3	3	Capacity	24	ABS	1	0	08VC 16MC	0	1	1.30241990089	None	None	None	None	1
2.7	2015_May_07_1236	s	s	3	3	Capacity	25	RC	1	0	08VC 15MC	1	0	1.34803795815	346.0	-237.0	353	-235	1
2.7	2015_May_07_1236	s	s	3	3	Capacity	26	ABS	2	0	16VC 08MC	0	1	2.1252989769	None	None	None	None	1
2.7	2015_May_07_1236	s	s	3	3	Capacity	27	ABS	1	0	08VC 16MC	0	1	1.50601387024	None	None	None	None	1
2.7	2015_May_07_1236	s	s	3	3	Capacity	28	RC	2	0	15VC 08MC	1	0	0.630094051361	-530.0	-104.0	-523	-107	1
2.7	2015_May_07_1236	s	s	3	3	Capacity	29	RC	1	0	08VC 15MC	1	0	0.594171047211	-102.0	24.0	-98	20	1
2.7	2015_May_07_1236	s	s	3	3	Capacity	30	ABS	1	0	08VC 16MC	0	1	1.31774687767	None	None	None	None	1
2.7	2015_May_07_1236	s	s	3	3	Capacity	31	RC	2	0	15VC 08MC	1	0	1.03252911568	296.0	149.0	290	155	1
2.7	2015_May_07_1236	s	s	3	3	Capacity	32	ABS	2	0	16VC 08MC	0	1	1.80027318001	None	None	None	None	1
2.7	2015_May_07_1236	s	s	3	3	Capacity	33	ABS	2	0	16VC 08MC	0	1	0.917486906052	None	None	None	None	1
2.7	2015_May_07_1236	s	s	3	3	Capacity	34	ABS	1	0	08VC 16MC	0	1	1.50608110428	None	None	None	None	1
2.7	2015_May_07_1236	s	s	3	3	Capacity	35	RC	1	0	08VC 15MC	1	0	0.634860992432	-231.0	-214.0	-236	-218	1
2.7	2015_May_07_1236	s	s	3	3	Capacity	36	RC	2	0	15VC 08MC	0	1	1.14900302887	506.0	343.0	None	None	0
2.7	2015_May_07_1236	s	s	3	3	Capacity	37	ABS	1	0	08VC 16MC	0	1	1.38596105576	None	None	None	None	1
2.7	2015_May_07_1236	s	s	3	3	Capacity	38	RC	1	0	08VC 15MC	1	0	0.705636024475	-539.0	-361.0	-536	-357	1
2.7	2015_May_07_1236	s	s	3	3	Capacity	39	ABS	2	0	16VC 08MC	0	1	1.48240685463	None	None	None	None	1
2.7	2015_May_07_1236	s	s	3	3	Capacity	40	RC	2	0	15VC 08MC	1	0	0.714411973953	270.0	-253.0	278	-250	1
2.7	2015_May_07_1236	s	s	3	3	Capacity	41	ABS	1	0	08VC 16MC	0	1	1.3412091732	None	None	None	None	1
2.7	2015_May_07_1236	s	s	3	3	Capacity	42	RC	1	0	08VC 15MC	1	0	0.525063991547	-151.0	-63.0	-152	-59	1
2.7	2015_May_07_1236	s	s	3	3	Capacity	43	ABS	2	0	16VC 08MC	0	1	1.49409914017	None	None	None	None	1
2.7	2015_May_07_1236	s	s	3	3	Capacity	44	RC	2	0	15VC 08MC	1	0	0.968369007111	436.0	-60.0	433	-60	1
2.7	2015_May_07_1236	s	s	3	3	Capacity	45	RC	1	0	08VC 15MC	1	0	0.725983142853	-71.0	388.0	-69	383	1
2.7	2015_May_07_1236	s	s	3	3	Capacity	46	ABS	2	0	16VC 08MC	0	1	1.57089018822	None	None	None	None	1
2.7	2015_May_07_1236	s	s	3	3	Capacity	47	RC	2	0	15VC 08MC	1	0	0.564385890961	-40.0	-65.0	-36	-77	1
2.7	2015_May_07_1236	s	s	3	3	Capacity	48	ABS	1	0	08VC 16MC	0	1	1.46829485893	None	None	None	None	1
2.7	2015_May_07_1236	s	s	3	3	Capacity	49	RC	1	0	08VC 15MC	1	0	0.538170099258	-12.0	188.0	-3	195	1
2.7	2015_May_07_1236	s	s	3	3	Capacity	50	RC	2	0	15VC 08MC	1	0	0.618124008179	-250.0	208.0	-246	210	1
2.7	2015_May_07_1236	s	s	3	3	Capacity	51	ABS	1	0	08VC 16MC	0	1	0.98818898201	None	None	None	None	1
2.7	2015_May_07_1236	s	s	3	3	Capacity	52	ABS	2	0	16VC 08MC	0	1	1.03257012367	None	None	None	None	1
2.7	2015_May_07_1236	s	s	3	3	Capacity	53	ABS	1	0	08VC 16MC	1	0	1.3882830143	None	None	-187	-32	0
2.7	2015_May_07_1236	s	s	3	3	Capacity	54	ABS	2	0	16VC 08MC	0	1	0.823267936707	None	None	None	None	1
2.7	2015_May_07_1236	s	s	3	3	Capacity	55	RC	2	0	15VC 08MC	1	0	0.867037057877	-374.0	-324.0	-378	-322	1
2.7	2015_May_07_1236	s	s	3	3	Capacity	56	RC	1	0	08VC 15MC	1	0	0.787999868393	-408.0	270.0	-409	265	1
2.7	2015_May_07_1236	s	s	3	3	Capacity	57	ABS	1	0	08VC 16MC	0	1	0.999802827835	None	None	None	None	1
2.7	2015_May_07_1236	s	s	3	3	Capacity	58	RC	1	0	08VC 15MC	1	0	0.587842941284	-372.0	-145.0	-365	-145	1
2.7	2015_May_07_1236	s	s	3	3	Capacity	59	ABS	2	0	16VC 08MC	0	1	1.02338790894	None	None	None	None	1
2.7	2015_May_07_1236	s	s	3	3	Capacity	60	RC	2	0	15VC 08MC	1	0	1.5228638649	444.0	179.0	447	178	1
2.7	2015_May_07_1236	s	s	3	3	Capacity	61	ABS	1	0	08VC 16MC	0	1	1.14989709854	None	None	None	None	1
2.7	2015_May_07_1236	s	s	3	3	Capacity	62	RC	2	0	15VC 08MC	1	0	1.08239197731	58.0	-282.0	61	-276	1
2.7	2015_May_07_1236	s	s	3	3	Capacity	63	ABS	2	0	16VC 08MC	0	1	1.2352809906	None	None	None	None	1
2.7	2015_May_07_1236	s	s	3	3	Capacity	64	RC	1	0	08VC 15MC	0	1	0.799850940704	314.0	219.0	None	None	0
2.7	2015_May_07_1236	s	s	3	3	Capacity	1	RC	0	1	08RD 15RO	1	0	0.923662900925	-302.0	398.0	-304	402	1
2.7	2015_May_07_1236	s	s	3	3	Capacity	2	ABS	0	2	16RD 08RO	0	1	1.83299016953	None	None	None	None	1
2.7	2015_May_07_1236	s	s	3	3	Capacity	3	RC	0	2	15RD 08RO	1	0	2.00859594345	-508.0	258.0	-502	263	1
2.7	2015_May_07_1236	s	s	3	3	Capacity	4	ABS	0	1	08RD 16RO	0	1	2.80069613457	None	None	None	None	1
2.7	2015_May_07_1236	s	s	3	3	Capacity	5	RC	0	2	15RD 08RO	1	0	1.92504286766	-365.0	123.0	-373	126	1
2.7	2015_May_07_1236	s	s	3	3	Capacity	6	ABS	0	2	16RD 08RO	0	1	2.6477458477	None	None	None	None	1
2.7	2015_May_07_1236	s	s	3	3	Capacity	7	ABS	0	1	08RD 16RO	0	1	3.1773109436	None	None	None	None	1
2.7	2015_May_07_1236	s	s	3	3	Capacity	8	RC	0	1	08RD 15RO	1	0	1.06816506386	-176.0	380.0	-175	378	1
2.7	2015_May_07_1236	s	s	3	3	Capacity	9	RC	0	1	08RD 15RO	1	0	2.45937585831	-185.0	-168.0	-183	-167	1
2.7	2015_May_07_1236	s	s	3	3	Capacity	10	ABS	0	2	16RD 08RO	0	1	2.09455800056	None	None	None	None	1
2.7	2015_May_07_1236	s	s	3	3	Capacity	11	RC	0	2	15RD 08RO	1	0	1.33701777458	-453.0	0.0	-490	-347	0
2.7	2015_May_07_1236	s	s	3	3	Capacity	12	ABS	0	1	08RD 16RO	0	1	3.77775478363	None	None	None	None	1
2.7	2015_May_07_1236	s	s	3	3	Capacity	13	ABS	0	1	08RD 16RO	0	1	3.44234395027	None	None	None	None	1
2.7	2015_May_07_1236	s	s	3	3	Capacity	14	RC	0	2	15RD 08RO	1	0	1.31770801544	363.0	234.0	356	236	1
2.7	2015_May_07_1236	s	s	3	3	Capacity	15	RC	0	1	08RD 15RO	1	0	2.11285805702	18.0	-257.0	23	-256	1
2.7	2015_May_07_1236	s	s	3	3	Capacity	16	ABS	0	2	16RD 08RO	0	1	1.65907406807	None	None	None	None	1
2.7	2015_May_07_1236	s	s	3	3	Capacity	17	ABS	0	2	16RD 08RO	0	1	1.69800615311	None	None	None	None	1
2.7	2015_May_07_1236	s	s	3	3	Capacity	18	RC	0	1	08RD 15RO	1	0	1.35290598869	216.0	116.0	222	113	1
2.7	2015_May_07_1236	s	s	3	3	Capacity	19	RC	0	2	15RD 08RO	1	0	1.2201499939	-353.0	301.0	-348	299	1
2.7	2015_May_07_1236	s	s	3	3	Capacity	20	ABS	0	1	08RD 16RO	0	1	3.22181391716	None	None	None	None	1
2.7	2015_May_07_1236	s	s	3	3	Capacity	21	ABS	0	2	16RD 08RO	0	1	2.53665304184	None	None	None	None	1
2.7	2015_May_07_1236	s	s	3	3	Capacity	22	ABS	0	1	08RD 16RO	0	1	4.36351108551	None	None	None	None	1
2.7	2015_May_07_1236	s	s	3	3	Capacity	23	RC	0	1	08RD 15RO	1	0	0.61910700798	-33.0	197.0	-34	198	1
2.7	2015_May_07_1236	s	s	3	3	Capacity	24	RC	0	2	15RD 08RO	1	0	1.96871805191	120.0	-285.0	115	-276	1
2.7	2015_May_07_1236	s	s	3	3	Capacity	25	RC	0	1	08RD 15RO	1	0	1.91263222694	357.0	-78.0	363	-76	1
2.7	2015_May_07_1236	s	s	3	3	Capacity	26	ABS	0	2	16RD 08RO	0	1	2.63158106804	None	None	None	None	1
2.7	2015_May_07_1236	s	s	3	3	Capacity	27	RC	0	2	15RD 08RO	1	0	0.688129901886	-357.0	257.0	-362	265	1
2.7	2015_May_07_1236	s	s	3	3	Capacity	28	ABS	0	1	08RD 16RO	0	1	3.34219503403	None	None	None	None	1
2.7	2015_May_07_1236	s	s	3	3	Capacity	29	RC	0	2	15RD 08RO	1	0	2.16003394127	-265.0	-398.0	-274	-399	1
2.7	2015_May_07_1236	s	s	3	3	Capacity	30	ABS	0	2	16RD 08RO	0	1	2.44283103943	None	None	None	None	1
2.7	2015_May_07_1236	s	s	3	3	Capacity	31	RC	0	1	08RD 15RO	1	0	0.994435071945	-372.0	-356.0	-370	-355	1
2.7	2015_May_07_1236	s	s	3	3	Capacity	32	ABS	0	1	08RD 16RO	0	1	3.14197182655	None	None	None	None	1
2.7	2015_May_07_1236	s	s	3	3	Capacity	33	ABS	0	2	16RD 08RO	0	1	2.75364589691	None	None	None	None	1
2.7	2015_May_07_1236	s	s	3	3	Capacity	34	RC	0	2	15RD 08RO	1	0	0.832372903824	-342.0	-227.0	-335	-228	1
2.7	2015_May_07_1236	s	s	3	3	Capacity	35	RC	0	1	08RD 15RO	1	0	1.49412298203	534.0	39.0	536	39	1
2.7	2015_May_07_1236	s	s	3	3	Capacity	36	ABS	0	1	08RD 16RO	0	1	3.58460593224	None	None	None	None	1
2.7	2015_May_07_1236	s	s	3	3	Capacity	37	RC	0	2	15RD 08RO	0	1	2.17697906494	-87.0	-228.0	None	None	0
2.7	2015_May_07_1236	s	s	3	3	Capacity	38	RC	0	1	08RD 15RO	1	0	1.20727586746	329.0	91.0	335	84	1
2.7	2015_May_07_1236	s	s	3	3	Capacity	39	ABS	0	1	08RD 16RO	0	1	2.76543688774	None	None	None	None	1
2.7	2015_May_07_1236	s	s	3	3	Capacity	40	ABS	0	2	16RD 08RO	0	1	2.18868899345	None	None	None	None	1
2.7	2015_May_07_1236	s	s	3	3	Capacity	41	RC	0	2	15RD 08RO	1	0	1.03168916702	-25.0	128.0	-25	128	1
2.7	2015_May_07_1236	s	s	3	3	Capacity	42	RC	0	1	08RD 15RO	1	0	2.86660480499	-486.0	251.0	-481	251	1
2.7	2015_May_07_1236	s	s	3	3	Capacity	43	ABS	0	2	16RD 08RO	0	1	1.87917304039	None	None	None	None	1
2.7	2015_May_07_1236	s	s	3	3	Capacity	44	ABS	0	1	08RD 16RO	0	1	4.31456017494	None	None	None	None	1
2.7	2015_May_07_1236	s	s	3	3	Capacity	45	RC	0	1	08RD 15RO	1	0	3.59622907639	-425.0	87.0	-426	84	1
2.7	2015_May_07_1236	s	s	3	3	Capacity	46	RC	0	2	15RD 08RO	1	0	2.17692112923	-318.0	383.0	-317	382	1
2.7	2015_May_07_1236	s	s	3	3	Capacity	47	ABS	0	1	08RD 16RO	0	1	3.7489991188	None	None	None	None	1
2.7	2015_May_07_1236	s	s	3	3	Capacity	48	ABS	0	2	16RD 08RO	0	1	1.67076802254	None	None	None	None	1
2.7	2015_May_07_1236	s	s	3	3	Capacity	49	ABS	0	2	16RD 08RO	0	1	2.34860491753	None	None	None	None	1
2.7	2015_May_07_1236	s	s	3	3	Capacity	50	RC	0	2	15RD 08RO	1	0	0.988540887833	91.0	136.0	93	141	1
2.7	2015_May_07_1236	s	s	3	3	Capacity	51	ABS	0	1	08RD 16RO	0	1	2.67821288109	None	None	None	None	1
2.7	2015_May_07_1236	s	s	3	3	Capacity	52	RC	0	1	08RD 15RO	0	1	3.19659209251	127.0	183.0	None	None	0
2.7	2015_May_07_1236	s	s	3	3	Capacity	53	ABS	0	1	08RD 16RO	0	1	4.7973959446	None	None	None	None	1
2.7	2015_May_07_1236	s	s	3	3	Capacity	54	RC	0	2	15RD 08RO	1	0	0.956510066986	93.0	82.0	89	76	1
2.7	2015_May_07_1236	s	s	3	3	Capacity	55	RC	0	1	08RD 15RO	1	0	2.27854895592	-511.0	-49.0	-509	-53	1
2.7	2015_May_07_1236	s	s	3	3	Capacity	56	ABS	0	2	16RD 08RO	0	1	2.99827003479	None	None	None	None	1
2.7	2015_May_07_1236	s	s	3	3	Capacity	57	ABS	0	2	16RD 08RO	0	1	2.61965608597	None	None	None	None	1
2.7	2015_May_07_1236	s	s	3	3	Capacity	58	RC	0	2	15RD 08RO	1	0	4.06023311615	285.0	299.0	283	303	1
2.7	2015_May_07_1236	s	s	3	3	Capacity	59	RC	0	1	08RD 15RO	1	0	0.925740003586	262.0	224.0	271	221	1
2.7	2015_May_07_1236	s	s	3	3	Capacity	60	ABS	0	1	08RD 16RO	0	1	2.9136660099	None	None	None	None	1
2.7	2015_May_07_1236	s	s	3	3	Capacity	61	ABS	0	1	08RD 16RO	0	1	2.82216405869	None	None	None	None	1
2.7	2015_May_07_1236	s	s	3	3	Capacity	62	RC	0	2	15RD 08RO	0	1	2.95379900932	37.0	-168.0	None	None	0
2.7	2015_May_07_1236	s	s	3	3	Capacity	63	ABS	0	2	16RD 08RO	0	1	2.76208901405	None	None	None	None	1
2.7	2015_May_07_1236	s	s	3	3	Capacity	64	RC	0	1	08RD 15RO	1	0	0.846909999847	-240.0	276.0	-235	278	1
2.7	2015_May_07_1236	s	s	3	3	SIC	1	RC	1	2	02VD 02VO 02VC 09MD 02MO 02MC 02RD 02RO	1	0	1.05873203278	142.0	-23.0	141	-36	1
2.7	2015_May_07_1236	s	s	3	3	SIC	2	RC	2	1	02VD 09VO 02VC 02MD 02MO 02MC 02RD 02RO	1	0	0.853517055511	-120.0	394.0	-122	395	1
2.7	2015_May_07_1236	s	s	3	3	SIC	3	RC	2	0	02VD 02VO 09VC 02MD 02MO 02MC 02RD 02RO	1	0	0.687602043152	-290.0	265.0	-279	266	1
2.7	2015_May_07_1236	s	s	3	3	SIC	4	ABS	0	1	02VD 02VO 02VC 02MD 02MO 02MC 02RD 10RO	1	0	3.04229688644	None	None	507	-379	0
2.7	2015_May_07_1236	s	s	3	3	SIC	5	ABS	2	0	02VD 02VO 10VC 02MD 02MO 02MC 02RD 02RO	0	1	1.84737896919	None	None	None	None	1
2.7	2015_May_07_1236	s	s	3	3	SIC	6	ABS	2	2	10VD 02VO 02VC 02MD 02MO 02MC 02RD 02RO	0	1	1.74143791199	None	None	None	None	1
2.7	2015_May_07_1236	s	s	3	3	SIC	7	ABS	2	1	02VD 10VO 02VC 02MD 02MO 02MC 02RD 02RO	0	1	1.42998409271	None	None	None	None	1
2.7	2015_May_07_1236	s	s	3	3	SIC	8	RC	0	1	02VD 02VO 02VC 02MD 02MO 02MC 02RD 09RO	1	0	2.15343093872	455.0	-144.0	457	-139	1
2.7	2015_May_07_1236	s	s	3	3	SIC	9	ABS	1	1	02VD 02VO 02VC 02MD 10MO 02MC 02RD 02RO	0	1	2.07101893425	None	None	None	None	1
2.7	2015_May_07_1236	s	s	3	3	SIC	10	ABS	1	0	02VD 02VO 02VC 02MD 02MO 10MC 02RD 02RO	0	1	2.43593716621	None	None	None	None	1
2.7	2015_May_07_1236	s	s	3	3	SIC	11	RC	2	2	09VD 02VO 02VC 02MD 02MO 02MC 02RD 02RO	1	0	1.31267595291	437.0	86.0	429	87	1
2.7	2015_May_07_1236	s	s	3	3	SIC	12	RC	1	1	02VD 02VO 02VC 02MD 09MO 02MC 02RD 02RO	1	0	1.85434508324	475.0	348.0	471	349	1
2.7	2015_May_07_1236	s	s	3	3	SIC	13	RC	1	0	02VD 02VO 02VC 02MD 02MO 09MC 02RD 02RO	1	0	1.69071888924	140.0	-312.0	144	-307	1
2.7	2015_May_07_1236	s	s	3	3	SIC	14	ABS	0	2	02VD 02VO 02VC 02MD 02MO 02MC 10RD 02RO	0	1	2.31825590134	None	None	None	None	1
2.7	2015_May_07_1236	s	s	3	3	SIC	15	RC	0	2	02VD 02VO 02VC 02MD 02MO 02MC 09RD 02RO	1	0	1.38322710991	-48.0	246.0	-52	239	1
2.7	2015_May_07_1236	s	s	3	3	SIC	16	ABS	1	2	02VD 02VO 02VC 10MD 02MO 02MC 02RD 02RO	0	1	2.07101488113	None	None	None	None	1
2.7	2015_May_07_1236	s	s	3	3	SIC	17	RC	1	2	02VD 02VO 02VC 09MD 02MO 02MC 02RD 02RO	1	0	1.57187604904	-517.0	-93.0	-514	-96	1
2.7	2015_May_07_1236	s	s	3	3	SIC	18	ABS	0	2	02VD 02VO 02VC 02MD 02MO 02MC 10RD 02RO	1	0	2.82425999641	None	None	61	103	0
2.7	2015_May_07_1236	s	s	3	3	SIC	19	RC	2	2	09VD 02VO 02VC 02MD 02MO 02MC 02RD 02RO	1	0	1.07646107674	209.0	97.0	209	96	1
2.7	2015_May_07_1236	s	s	3	3	SIC	20	ABS	2	0	02VD 02VO 10VC 02MD 02MO 02MC 02RD 02RO	0	1	2.22410798073	None	None	None	None	1
2.7	2015_May_07_1236	s	s	3	3	SIC	21	RC	1	1	02VD 02VO 02VC 02MD 09MO 02MC 02RD 02RO	1	0	0.846857070923	6.0	-212.0	-4	-214	1
2.7	2015_May_07_1236	s	s	3	3	SIC	22	ABS	2	2	10VD 02VO 02VC 02MD 02MO 02MC 02RD 02RO	1	0	2.28286600113	None	None	88	-33	0
2.7	2015_May_07_1236	s	s	3	3	SIC	23	ABS	0	1	02VD 02VO 02VC 02MD 02MO 02MC 02RD 10RO	0	1	3.98479008675	None	None	None	None	1
2.7	2015_May_07_1236	s	s	3	3	SIC	24	RC	0	2	02VD 02VO 02VC 02MD 02MO 02MC 09RD 02RO	1	0	2.04742693901	-3.0	-403.0	-5	-408	1
2.7	2015_May_07_1236	s	s	3	3	SIC	25	RC	2	1	02VD 09VO 02VC 02MD 02MO 02MC 02RD 02RO	1	0	0.980080127716	-24.0	392.0	-18	394	1
2.7	2015_May_07_1236	s	s	3	3	SIC	26	RC	0	1	02VD 02VO 02VC 02MD 02MO 02MC 02RD 09RO	1	0	2.19600200653	400.0	-100.0	406	-100	1
2.7	2015_May_07_1236	s	s	3	3	SIC	27	ABS	1	0	02VD 02VO 02VC 02MD 02MO 10MC 02RD 02RO	0	1	2.55358791351	None	None	None	None	1
2.7	2015_May_07_1236	s	s	3	3	SIC	28	ABS	2	1	02VD 10VO 02VC 02MD 02MO 02MC 02RD 02RO	0	1	2.16884708405	None	None	None	None	1
2.7	2015_May_07_1236	s	s	3	3	SIC	29	ABS	1	1	02VD 02VO 02VC 02MD 10MO 02MC 02RD 02RO	0	1	2.20050907135	None	None	None	None	1
2.7	2015_May_07_1236	s	s	3	3	SIC	30	ABS	1	2	02VD 02VO 02VC 10MD 02MO 02MC 02RD 02RO	0	1	1.98357510567	None	None	None	None	1
2.7	2015_May_07_1236	s	s	3	3	SIC	31	RC	1	0	02VD 02VO 02VC 02MD 02MO 09MC 02RD 02RO	1	0	2.45374107361	284.0	28.0	291	21	1
2.7	2015_May_07_1236	s	s	3	3	SIC	32	RC	2	0	02VD 02VO 09VC 02MD 02MO 02MC 02RD 02RO	1	0	1.21775102615	-198.0	-229.0	-204	-236	1
2.7	2015_May_07_1236	s	s	3	3	SIC	33	RC	2	2	09VD 02VO 02VC 02MD 02MO 02MC 02RD 02RO	1	0	1.59462094307	528.0	240.0	531	245	1
2.7	2015_May_07_1236	s	s	3	3	SIC	34	RC	0	2	02VD 02VO 02VC 02MD 02MO 02MC 09RD 02RO	1	0	0.748018026352	261.0	85.0	264	83	1
2.7	2015_May_07_1236	s	s	3	3	SIC	35	RC	2	0	02VD 02VO 09VC 02MD 02MO 02MC 02RD 02RO	1	0	0.573712825775	-184.0	-63.0	-182	-62	1
2.7	2015_May_07_1236	s	s	3	3	SIC	36	ABS	2	2	10VD 02VO 02VC 02MD 02MO 02MC 02RD 02RO	0	1	2.43588995934	None	None	None	None	1
2.7	2015_May_07_1236	s	s	3	3	SIC	37	RC	2	1	02VD 09VO 02VC 02MD 02MO 02MC 02RD 02RO	1	0	0.618148088455	-243.0	-27.0	-237	-32	1
2.7	2015_May_07_1236	s	s	3	3	SIC	38	RC	1	1	02VD 02VO 02VC 02MD 09MO 02MC 02RD 02RO	1	0	0.75270986557	67.0	-146.0	64	-143	1
2.7	2015_May_07_1236	s	s	3	3	SIC	39	RC	1	2	02VD 02VO 02VC 09MD 02MO 02MC 02RD 02RO	1	0	1.44178295135	449.0	398.0	452	397	1
2.7	2015_May_07_1236	s	s	3	3	SIC	40	ABS	1	0	02VD 02VO 02VC 02MD 02MO 10MC 02RD 02RO	0	1	2.81956911087	None	None	None	None	1
2.7	2015_May_07_1236	s	s	3	3	SIC	41	ABS	2	0	02VD 02VO 10VC 02MD 02MO 02MC 02RD 02RO	0	1	1.91530799866	None	None	None	None	1
2.7	2015_May_07_1236	s	s	3	3	SIC	42	RC	0	1	02VD 02VO 02VC 02MD 02MO 02MC 02RD 09RO	1	0	0.994361877441	-81.0	-103.0	-68	-93	1
2.7	2015_May_07_1236	s	s	3	3	SIC	43	ABS	0	2	02VD 02VO 02VC 02MD 02MO 02MC 10RD 02RO	0	1	2.1493639946	None	None	None	None	1
2.7	2015_May_07_1236	s	s	3	3	SIC	44	ABS	1	2	02VD 02VO 02VC 10MD 02MO 02MC 02RD 02RO	0	1	2.0304749012	None	None	None	None	1
2.7	2015_May_07_1236	s	s	3	3	SIC	45	RC	1	0	02VD 02VO 02VC 02MD 02MO 09MC 02RD 02RO	1	0	1.12291288376	210.0	225.0	222	231	1
2.7	2015_May_07_1236	s	s	3	3	SIC	46	ABS	1	1	02VD 02VO 02VC 02MD 10MO 02MC 02RD 02RO	0	1	2.49474287033	None	None	None	None	1
2.7	2015_May_07_1236	s	s	3	3	SIC	47	ABS	0	1	02VD 02VO 02VC 02MD 02MO 02MC 02RD 10RO	0	1	3.04286503792	None	None	None	None	1
2.7	2015_May_07_1236	s	s	3	3	SIC	48	ABS	2	1	02VD 10VO 02VC 02MD 02MO 02MC 02RD 02RO	0	1	1.61825990677	None	None	None	None	1
2.7	2015_May_07_1236	s	s	3	3	SIC	49	RC	2	2	09VD 02VO 02VC 02MD 02MO 02MC 02RD 02RO	1	0	0.593947887421	-32.0	106.0	-34	107	1
2.7	2015_May_07_1236	s	s	3	3	SIC	50	RC	0	2	02VD 02VO 02VC 02MD 02MO 02MC 09RD 02RO	1	0	2.3300011158	-425.0	348.0	-425	350	1
2.7	2015_May_07_1236	s	s	3	3	SIC	51	ABS	2	2	10VD 02VO 02VC 02MD 02MO 02MC 02RD 02RO	0	1	2.18854999542	None	None	None	None	1
2.7	2015_May_07_1236	s	s	3	3	SIC	52	ABS	0	2	02VD 02VO 02VC 02MD 02MO 02MC 10RD 02RO	0	1	2.90650105476	None	None	None	None	1
2.7	2015_May_07_1236	s	s	3	3	SIC	53	ABS	1	1	02VD 02VO 02VC 02MD 10MO 02MC 02RD 02RO	0	1	3.52619409561	None	None	None	None	1
2.7	2015_May_07_1236	s	s	3	3	SIC	54	RC	1	2	02VD 02VO 02VC 09MD 02MO 02MC 02RD 02RO	1	0	2.01959300041	69.0	-257.0	74	-260	1
2.7	2015_May_07_1236	s	s	3	3	SIC	55	RC	1	0	02VD 02VO 02VC 02MD 02MO 09MC 02RD 02RO	1	0	1.17642498016	-143.0	307.0	-148	305	1
2.7	2015_May_07_1236	s	s	3	3	SIC	56	ABS	1	0	02VD 02VO 02VC 02MD 02MO 10MC 02RD 02RO	0	1	3.31076288223	None	None	None	None	1
2.7	2015_May_07_1236	s	s	3	3	SIC	57	RC	2	0	02VD 02VO 09VC 02MD 02MO 02MC 02RD 02RO	1	0	1.18824791908	182.0	-172.0	181	-177	1
2.7	2015_May_07_1236	s	s	3	3	SIC	58	RC	2	1	02VD 09VO 02VC 02MD 02MO 02MC 02RD 02RO	1	0	1.74141907692	254.0	346.0	249	347	1
2.7	2015_May_07_1236	s	s	3	3	SIC	59	ABS	1	2	02VD 02VO 02VC 10MD 02MO 02MC 02RD 02RO	0	1	2.42090678215	None	None	None	None	1
2.7	2015_May_07_1236	s	s	3	3	SIC	60	RC	0	1	02VD 02VO 02VC 02MD 02MO 02MC 02RD 09RO	1	0	1.56476402283	-518.0	-184.0	-507	-183	1
2.7	2015_May_07_1236	s	s	3	3	SIC	61	ABS	2	1	02VD 10VO 02VC 02MD 02MO 02MC 02RD 02RO	0	1	1.6710832119	None	None	None	None	1
2.7	2015_May_07_1236	s	s	3	3	SIC	62	ABS	0	1	02VD 02VO 02VC 02MD 02MO 02MC 02RD 10RO	0	1	3.13700699806	None	None	None	None	1
2.7	2015_May_07_1236	s	s	3	3	SIC	63	ABS	2	0	02VD 02VO 10VC 02MD 02MO 02MC 02RD 02RO	0	1	1.95332884789	None	None	None	None	1
2.7	2015_May_07_1236	s	s	3	3	SIC	64	RC	1	1	02VD 02VO 02VC 02MD 09MO 02MC 02RD 02RO	1	0	1.6799249649	72.0	-356.0	74	-354	1
2.7	2015_May_07_1236	s	s	3	3	SIC	65	ABS	1	1	02VD 02VO 02VC 02MD 10MO 02MC 02RD 02RO	0	1	2.1362760067	None	None	None	None	1
2.7	2015_May_07_1236	s	s	3	3	SIC	66	RC	0	1	02VD 02VO 02VC 02MD 02MO 02MC 02RD 09RO	1	0	2.51859092712	321.0	-123.0	328	-124	1
2.7	2015_May_07_1236	s	s	3	3	SIC	67	RC	2	2	09VD 02VO 02VC 02MD 02MO 02MC 02RD 02RO	1	0	2.98389005661	-15.0	-117.0	-18	-114	1
2.7	2015_May_07_1236	s	s	3	3	SIC	68	RC	2	0	02VD 02VO 09VC 02MD 02MO 02MC 02RD 02RO	1	0	0.658477067947	-267.0	168.0	-265	170	1
2.7	2015_May_07_1236	s	s	3	3	SIC	69	RC	1	1	02VD 02VO 02VC 02MD 09MO 02MC 02RD 02RO	1	0	1.0351691246	-82.0	-220.0	-71	-215	1
2.7	2015_May_07_1236	s	s	3	3	SIC	70	ABS	0	2	02VD 02VO 02VC 02MD 02MO 02MC 10RD 02RO	0	1	1.38836598396	None	None	None	None	1
2.7	2015_May_07_1236	s	s	3	3	SIC	71	RC	1	2	02VD 02VO 02VC 09MD 02MO 02MC 02RD 02RO	1	0	1.09401488304	-220.0	331.0	-211	327	1
2.7	2015_May_07_1236	s	s	3	3	SIC	72	ABS	2	0	02VD 02VO 10VC 02MD 02MO 02MC 02RD 02RO	0	1	1.34956908226	None	None	None	None	1
2.7	2015_May_07_1236	s	s	3	3	SIC	73	ABS	1	0	02VD 02VO 02VC 02MD 02MO 10MC 02RD 02RO	0	1	2.56065392494	None	None	None	None	1
2.7	2015_May_07_1236	s	s	3	3	SIC	74	RC	0	2	02VD 02VO 02VC 02MD 02MO 02MC 09RD 02RO	1	0	1.44338417053	-501.0	56.0	-507	56	1
2.7	2015_May_07_1236	s	s	3	3	SIC	75	ABS	2	1	02VD 10VO 02VC 02MD 02MO 02MC 02RD 02RO	0	1	1.77679800987	None	None	None	None	1
2.7	2015_May_07_1236	s	s	3	3	SIC	76	ABS	1	2	02VD 02VO 02VC 10MD 02MO 02MC 02RD 02RO	0	1	1.48245120049	None	None	None	None	1
2.7	2015_May_07_1236	s	s	3	3	SIC	77	RC	1	0	02VD 02VO 02VC 02MD 02MO 09MC 02RD 02RO	1	0	1.53885197639	538.0	-152.0	546	-147	1
2.7	2015_May_07_1236	s	s	3	3	SIC	78	ABS	2	2	10VD 02VO 02VC 02MD 02MO 02MC 02RD 02RO	0	1	1.82385802269	None	None	None	None	1
2.7	2015_May_07_1236	s	s	3	3	SIC	79	RC	2	1	02VD 09VO 02VC 02MD 02MO 02MC 02RD 02RO	1	0	1.16471815109	-434.0	-76.0	-439	-68	1
2.7	2015_May_07_1236	s	s	3	3	SIC	80	ABS	0	1	02VD 02VO 02VC 02MD 02MO 02MC 02RD 10RO	0	1	4.69578504562	None	None	None	None	1
2.7	2015_May_07_1236	s	s	3	3	SIC	81	RC	1	2	02VD 02VO 02VC 09MD 02MO 02MC 02RD 02RO	1	0	1.72994089127	533.0	322.0	540	325	1
2.7	2015_May_07_1236	s	s	3	3	SIC	82	ABS	1	0	02VD 02VO 02VC 02MD 02MO 10MC 02RD 02RO	0	1	2.30078411102	None	None	None	None	1
2.7	2015_May_07_1236	s	s	3	3	SIC	83	ABS	2	0	02VD 02VO 10VC 02MD 02MO 02MC 02RD 02RO	0	1	2.77730512619	None	None	None	None	1
2.7	2015_May_07_1236	s	s	3	3	SIC	84	ABS	2	1	02VD 10VO 02VC 02MD 02MO 02MC 02RD 02RO	0	1	1.94143414497	None	None	None	None	1
2.7	2015_May_07_1236	s	s	3	3	SIC	85	RC	1	0	02VD 02VO 02VC 02MD 02MO 09MC 02RD 02RO	1	0	1.20006203651	-128.0	-282.0	-124	-280	1
2.7	2015_May_07_1236	s	s	3	3	SIC	86	RC	2	2	09VD 02VO 02VC 02MD 02MO 02MC 02RD 02RO	1	0	1.88963198662	285.0	331.0	291	335	1
2.7	2015_May_07_1236	s	s	3	3	SIC	87	ABS	2	2	10VD 02VO 02VC 02MD 02MO 02MC 02RD 02RO	0	1	2.4477519989	None	None	None	None	1
2.7	2015_May_07_1236	s	s	3	3	SIC	88	ABS	1	2	02VD 02VO 02VC 10MD 02MO 02MC 02RD 02RO	0	1	1.76504993439	None	None	None	None	1
2.7	2015_May_07_1236	s	s	3	3	SIC	89	ABS	1	1	02VD 02VO 02VC 02MD 10MO 02MC 02RD 02RO	0	1	1.96510601044	None	None	None	None	1
2.7	2015_May_07_1236	s	s	3	3	SIC	90	RC	2	0	02VD 02VO 09VC 02MD 02MO 02MC 02RD 02RO	1	0	1.9298119545	452.0	169.0	441	169	1
2.7	2015_May_07_1236	s	s	3	3	SIC	91	ABS	0	1	02VD 02VO 02VC 02MD 02MO 02MC 02RD 10RO	0	1	3.40118598938	None	None	None	None	1
2.7	2015_May_07_1236	s	s	3	3	SIC	92	RC	2	1	02VD 09VO 02VC 02MD 02MO 02MC 02RD 02RO	1	0	1.47795701027	240.0	386.0	243	388	1
2.7	2015_May_07_1236	s	s	3	3	SIC	93	ABS	0	2	02VD 02VO 02VC 02MD 02MO 02MC 10RD 02RO	1	0	2.5888710022	None	None	-59	-12	0
2.7	2015_May_07_1236	s	s	3	3	SIC	94	RC	0	1	02VD 02VO 02VC 02MD 02MO 02MC 02RD 09RO	0	1	2.61248207092	-155.0	-259.0	None	None	0
2.7	2015_May_07_1236	s	s	3	3	SIC	95	RC	1	1	02VD 02VO 02VC 02MD 09MO 02MC 02RD 02RO	1	0	1.72956991196	527.0	50.0	523	47	1
2.7	2015_May_07_1236	s	s	3	3	SIC	96	RC	0	2	02VD 02VO 02VC 02MD 02MO 02MC 09RD 02RO	1	0	0.68970990181	16.0	88.0	16	86	1
2.7	2015_May_07_1236	s	s	3	3	SIC	97	RC	1	2	02VD 02VO 02VC 09MD 02MO 02MC 02RD 02RO	1	0	0.815268039703	-389.0	-138.0	-382	-143	1
2.7	2015_May_07_1236	s	s	3	3	SIC	98	ABS	2	1	02VD 10VO 02VC 02MD 02MO 02MC 02RD 02RO	0	1	1.37653303146	None	None	None	None	1
2.7	2015_May_07_1236	s	s	3	3	SIC	99	ABS	2	2	10VD 02VO 02VC 02MD 02MO 02MC 02RD 02RO	1	0	2.43016505241	None	None	-535	-22	0
2.7	2015_May_07_1236	s	s	3	3	SIC	100	ABS	2	0	02VD 02VO 10VC 02MD 02MO 02MC 02RD 02RO	0	1	1.4235959053	None	None	None	None	1
2.7	2015_May_07_1236	s	s	3	3	SIC	101	RC	2	0	02VD 02VO 09VC 02MD 02MO 02MC 02RD 02RO	1	0	1.08901596069	52.0	42.0	62	41	1
2.7	2015_May_07_1236	s	s	3	3	SIC	102	RC	2	1	02VD 09VO 02VC 02MD 02MO 02MC 02RD 02RO	1	0	1.2116060257	306.0	-385.0	306	-384	1
2.7	2015_May_07_1236	s	s	3	3	SIC	103	ABS	0	1	02VD 02VO 02VC 02MD 02MO 02MC 02RD 10RO	0	1	3.37755179405	None	None	None	None	1
2.7	2015_May_07_1236	s	s	3	3	SIC	104	RC	1	1	02VD 02VO 02VC 02MD 09MO 02MC 02RD 02RO	1	0	0.853029966354	-441.0	162.0	-438	152	1
2.7	2015_May_07_1236	s	s	3	3	SIC	105	ABS	1	0	02VD 02VO 02VC 02MD 02MO 10MC 02RD 02RO	0	1	2.7040719986	None	None	None	None	1
2.7	2015_May_07_1236	s	s	3	3	SIC	106	ABS	1	1	02VD 02VO 02VC 02MD 10MO 02MC 02RD 02RO	0	1	2.60072493553	None	None	None	None	1
2.7	2015_May_07_1236	s	s	3	3	SIC	107	RC	1	0	02VD 02VO 02VC 02MD 02MO 09MC 02RD 02RO	1	0	0.947818040848	-428.0	102.0	-433	95	1
2.7	2015_May_07_1236	s	s	3	3	SIC	108	ABS	0	2	02VD 02VO 02VC 02MD 02MO 02MC 10RD 02RO	0	1	2.92429900169	None	None	None	None	1
2.7	2015_May_07_1236	s	s	3	3	SIC	109	ABS	1	2	02VD 02VO 02VC 10MD 02MO 02MC 02RD 02RO	0	1	1.92480707169	None	None	None	None	1
2.7	2015_May_07_1236	s	s	3	3	SIC	110	RC	0	2	02VD 02VO 02VC 02MD 02MO 02MC 09RD 02RO	1	0	1.24713802338	268.0	320.0	266	324	1
2.7	2015_May_07_1236	s	s	3	3	SIC	111	RC	0	1	02VD 02VO 02VC 02MD 02MO 02MC 02RD 09RO	1	0	0.870168924332	-122.0	167.0	-128	166	1
2.7	2015_May_07_1236	s	s	3	3	SIC	112	RC	2	2	09VD 02VO 02VC 02MD 02MO 02MC 02RD 02RO	1	0	1.0186150074	114.0	181.0	116	179	1
2.7	2015_May_07_1236	s	s	3	3	SIC	113	ABS	1	0	02VD 02VO 02VC 02MD 02MO 10MC 02RD 02RO	0	1	1.75078105927	None	None	None	None	1
2.7	2015_May_07_1236	s	s	3	3	SIC	114	RC	1	0	02VD 02VO 02VC 02MD 02MO 09MC 02RD 02RO	1	0	1.69433808327	300.0	387.0	299	393	1
2.7	2015_May_07_1236	s	s	3	3	SIC	115	ABS	2	2	10VD 02VO 02VC 02MD 02MO 02MC 02RD 02RO	0	1	2.57388782501	None	None	None	None	1
2.7	2015_May_07_1236	s	s	3	3	SIC	116	RC	2	1	02VD 09VO 02VC 02MD 02MO 02MC 02RD 02RO	0	1	2.16084098816	-481.0	338.0	None	None	0
2.7	2015_May_07_1236	s	s	3	3	SIC	117	ABS	0	2	02VD 02VO 02VC 02MD 02MO 02MC 10RD 02RO	0	1	2.00742983818	None	None	None	None	1
2.7	2015_May_07_1236	s	s	3	3	SIC	118	ABS	1	2	02VD 02VO 02VC 10MD 02MO 02MC 02RD 02RO	0	1	1.57000613213	None	None	None	None	1
2.7	2015_May_07_1236	s	s	3	3	SIC	119	RC	0	1	02VD 02VO 02VC 02MD 02MO 02MC 02RD 09RO	1	0	1.20619511604	312.0	313.0	315	311	1
2.7	2015_May_07_1236	s	s	3	3	SIC	120	RC	1	1	02VD 02VO 02VC 02MD 09MO 02MC 02RD 02RO	1	0	2.20044112206	381.0	-119.0	379	-118	1
2.7	2015_May_07_1236	s	s	3	3	SIC	121	RC	2	0	02VD 02VO 09VC 02MD 02MO 02MC 02RD 02RO	1	0	0.596619129181	47.0	140.0	46	148	1
2.7	2015_May_07_1236	s	s	3	3	SIC	122	RC	1	2	02VD 02VO 02VC 09MD 02MO 02MC 02RD 02RO	1	0	0.900959968567	-77.0	-238.0	-68	-234	1
2.7	2015_May_07_1236	s	s	3	3	SIC	123	ABS	0	1	02VD 02VO 02VC 02MD 02MO 02MC 02RD 10RO	0	1	4.55462384224	None	None	None	None	1
2.7	2015_May_07_1236	s	s	3	3	SIC	124	ABS	2	1	02VD 10VO 02VC 02MD 02MO 02MC 02RD 02RO	0	1	1.95065712929	None	None	None	None	1
2.7	2015_May_07_1236	s	s	3	3	SIC	125	RC	0	2	02VD 02VO 02VC 02MD 02MO 02MC 09RD 02RO	1	0	0.623294115067	6.0	34.0	4	41	1
2.7	2015_May_07_1236	s	s	3	3	SIC	126	RC	2	2	09VD 02VO 02VC 02MD 02MO 02MC 02RD 02RO	1	0	0.72919011116	298.0	-13.0	296	-16	1
2.7	2015_May_07_1236	s	s	3	3	SIC	127	ABS	1	1	02VD 02VO 02VC 02MD 10MO 02MC 02RD 02RO	0	1	2.24755001068	None	None	None	None	1
2.7	2015_May_07_1236	s	s	3	3	SIC	128	ABS	2	0	02VD 02VO 10VC 02MD 02MO 02MC 02RD 02RO	0	1	2.12524008751	None	None	None	None	1
2.7	2015_May_07_1236	s	s	3	3	SIC	129	RC	1	0	02VD 02VO 02VC 02MD 02MO 09MC 02RD 02RO	1	0	3.76606202126	-284.0	-346.0	-279	-345	1
2.7	2015_May_07_1236	s	s	3	3	SIC	130	ABS	2	2	10VD 02VO 02VC 02MD 02MO 02MC 02RD 02RO	0	1	2.03276705742	None	None	None	None	1
2.7	2015_May_07_1236	s	s	3	3	SIC	131	ABS	2	0	02VD 02VO 10VC 02MD 02MO 02MC 02RD 02RO	0	1	1.95322489738	None	None	None	None	1
2.7	2015_May_07_1236	s	s	3	3	SIC	132	ABS	1	0	02VD 02VO 02VC 02MD 02MO 10MC 02RD 02RO	0	1	2.09494304657	None	None	None	None	1
2.7	2015_May_07_1236	s	s	3	3	SIC	133	RC	1	2	02VD 02VO 02VC 09MD 02MO 02MC 02RD 02RO	1	0	1.64455389977	475.0	193.0	479	193	1
2.7	2015_May_07_1236	s	s	3	3	SIC	134	RC	1	1	02VD 02VO 02VC 02MD 09MO 02MC 02RD 02RO	1	0	1.26695084572	-197.0	-338.0	-197	-330	1
2.7	2015_May_07_1236	s	s	3	3	SIC	135	RC	2	1	02VD 09VO 02VC 02MD 02MO 02MC 02RD 02RO	0	1	2.06291794777	246.0	242.0	None	None	0
2.7	2015_May_07_1236	s	s	3	3	SIC	136	RC	2	0	02VD 02VO 09VC 02MD 02MO 02MC 02RD 02RO	1	0	1.45893287659	-415.0	-339.0	-416	-338	1
2.7	2015_May_07_1236	s	s	3	3	SIC	137	ABS	0	2	02VD 02VO 02VC 02MD 02MO 02MC 10RD 02RO	0	1	3.15391182899	None	None	None	None	1
2.7	2015_May_07_1236	s	s	3	3	SIC	138	RC	0	1	02VD 02VO 02VC 02MD 02MO 02MC 02RD 09RO	1	0	1.42358613014	-42.0	179.0	-39	174	1
2.7	2015_May_07_1236	s	s	3	3	SIC	139	ABS	1	2	02VD 02VO 02VC 10MD 02MO 02MC 02RD 02RO	0	1	1.79652690887	None	None	None	None	1
2.7	2015_May_07_1236	s	s	3	3	SIC	140	RC	0	2	02VD 02VO 02VC 02MD 02MO 02MC 09RD 02RO	1	0	1.22983789444	246.0	375.0	249	378	1
2.7	2015_May_07_1236	s	s	3	3	SIC	141	ABS	1	1	02VD 02VO 02VC 02MD 10MO 02MC 02RD 02RO	0	1	2.01210212708	None	None	None	None	1
2.7	2015_May_07_1236	s	s	3	3	SIC	142	ABS	2	1	02VD 10VO 02VC 02MD 02MO 02MC 02RD 02RO	0	1	1.84356594086	None	None	None	None	1
2.7	2015_May_07_1236	s	s	3	3	SIC	143	RC	2	2	09VD 02VO 02VC 02MD 02MO 02MC 02RD 02RO	1	0	1.03883314133	-345.0	-33.0	-344	-38	1
2.7	2015_May_07_1236	s	s	3	3	SIC	144	ABS	0	1	02VD 02VO 02VC 02MD 02MO 02MC 02RD 10RO	0	1	3.26014709473	None	None	None	None	1
2.7	2015_May_07_1236	s	s	3	3	SIC	145	RC	2	0	02VD 02VO 09VC 02MD 02MO 02MC 02RD 02RO	1	0	1.91228199005	136.0	-156.0	141	-158	1
2.7	2015_May_07_1236	s	s	3	3	SIC	146	ABS	2	1	02VD 10VO 02VC 02MD 02MO 02MC 02RD 02RO	0	1	1.80025792122	None	None	None	None	1
2.7	2015_May_07_1236	s	s	3	3	SIC	147	ABS	1	0	02VD 02VO 02VC 02MD 02MO 10MC 02RD 02RO	0	1	2.38872694969	None	None	None	None	1
2.7	2015_May_07_1236	s	s	3	3	SIC	148	RC	1	2	02VD 02VO 02VC 09MD 02MO 02MC 02RD 02RO	1	0	1.34798789024	-373.0	-378.0	-367	-379	1
2.7	2015_May_07_1236	s	s	3	3	SIC	149	ABS	1	1	02VD 02VO 02VC 02MD 10MO 02MC 02RD 02RO	0	1	2.60069704056	None	None	None	None	1
2.7	2015_May_07_1236	s	s	3	3	SIC	150	ABS	2	2	10VD 02VO 02VC 02MD 02MO 02MC 02RD 02RO	0	1	2.95366311073	None	None	None	None	1
2.7	2015_May_07_1236	s	s	3	3	SIC	151	RC	0	1	02VD 02VO 02VC 02MD 02MO 02MC 02RD 09RO	1	0	2.84371495247	-398.0	-278.0	-404	-286	1
2.7	2015_May_07_1236	s	s	3	3	SIC	152	RC	2	2	09VD 02VO 02VC 02MD 02MO 02MC 02RD 02RO	1	0	0.623282909393	24.0	399.0	20	395	1
2.7	2015_May_07_1236	s	s	3	3	SIC	153	ABS	2	0	02VD 02VO 10VC 02MD 02MO 02MC 02RD 02RO	0	1	2.03565692902	None	None	None	None	1
2.7	2015_May_07_1236	s	s	3	3	SIC	154	ABS	1	2	02VD 02VO 02VC 10MD 02MO 02MC 02RD 02RO	0	1	2.39521384239	None	None	None	None	1
2.7	2015_May_07_1236	s	s	3	3	SIC	155	ABS	0	1	02VD 02VO 02VC 02MD 02MO 02MC 02RD 10RO	0	1	3.98961496353	None	None	None	None	1
2.7	2015_May_07_1236	s	s	3	3	SIC	156	RC	1	0	02VD 02VO 02VC 02MD 02MO 09MC 02RD 02RO	1	0	1.3177280426	-192.0	83.0	-183	87	1
2.7	2015_May_07_1236	s	s	3	3	SIC	157	ABS	0	2	02VD 02VO 02VC 02MD 02MO 02MC 10RD 02RO	0	1	2.16022801399	None	None	None	None	1
2.7	2015_May_07_1236	s	s	3	3	SIC	158	RC	2	1	02VD 09VO 02VC 02MD 02MO 02MC 02RD 02RO	1	0	1.69179105759	444.0	57.0	450	57	1
2.7	2015_May_07_1236	s	s	3	3	SIC	159	RC	0	2	02VD 02VO 02VC 02MD 02MO 02MC 09RD 02RO	1	0	0.917455196381	97.0	-194.0	95	-195	1
2.7	2015_May_07_1236	s	s	3	3	SIC	160	RC	1	1	02VD 02VO 02VC 02MD 09MO 02MC 02RD 02RO	1	0	1.57157993317	155.0	-292.0	159	-303	1
2.7	2015_May_07_1236	s	s	3	3	SIC	161	RC	1	2	02VD 02VO 02VC 09MD 02MO 02MC 02RD 02RO	1	0	1.06803607941	213.0	-225.0	218	-233	1
2.7	2015_May_07_1236	s	s	3	3	SIC	162	ABS	1	0	02VD 02VO 02VC 02MD 02MO 10MC 02RD 02RO	0	1	2.8897061348	None	None	None	None	1
2.7	2015_May_07_1236	s	s	3	3	SIC	163	ABS	2	1	02VD 10VO 02VC 02MD 02MO 02MC 02RD 02RO	0	1	1.94150304794	None	None	None	None	1
2.7	2015_May_07_1236	s	s	3	3	SIC	164	RC	1	0	02VD 02VO 02VC 02MD 02MO 09MC 02RD 02RO	1	0	0.924343109131	309.0	-132.0	301	-134	1
2.7	2015_May_07_1236	s	s	3	3	SIC	165	ABS	2	0	02VD 02VO 10VC 02MD 02MO 02MC 02RD 02RO	0	1	1.5489859581	None	None	None	None	1
2.7	2015_May_07_1236	s	s	3	3	SIC	166	ABS	0	2	02VD 02VO 02VC 02MD 02MO 02MC 10RD 02RO	0	1	1.84391999245	None	None	None	None	1
2.7	2015_May_07_1236	s	s	3	3	SIC	167	RC	0	2	02VD 02VO 02VC 02MD 02MO 02MC 09RD 02RO	1	0	1.07041501999	48.0	387.0	52	389	1
2.7	2015_May_07_1236	s	s	3	3	SIC	168	RC	2	2	09VD 02VO 02VC 02MD 02MO 02MC 02RD 02RO	1	0	0.847291946411	-169.0	-409.0	-164	-400	1
2.7	2015_May_07_1236	s	s	3	3	SIC	169	RC	1	1	02VD 02VO 02VC 02MD 09MO 02MC 02RD 02RO	1	0	2.27859807014	13.0	332.0	16	338	1
2.7	2015_May_07_1236	s	s	3	3	SIC	170	RC	2	0	02VD 02VO 09VC 02MD 02MO 02MC 02RD 02RO	1	0	0.526583909988	1.0	97.0	-2	99	1
2.7	2015_May_07_1236	s	s	3	3	SIC	171	RC	2	1	02VD 09VO 02VC 02MD 02MO 02MC 02RD 02RO	1	0	1.43533396721	477.0	-298.0	481	-294	1
2.7	2015_May_07_1236	s	s	3	3	SIC	172	ABS	2	2	10VD 02VO 02VC 02MD 02MO 02MC 02RD 02RO	0	1	1.64728403091	None	None	None	None	1
2.7	2015_May_07_1236	s	s	3	3	SIC	173	RC	0	1	02VD 02VO 02VC 02MD 02MO 02MC 02RD 09RO	1	0	2.8830499649	457.0	-94.0	455	-91	1
2.7	2015_May_07_1236	s	s	3	3	SIC	174	ABS	0	1	02VD 02VO 02VC 02MD 02MO 02MC 02RD 10RO	0	1	3.82478404045	None	None	None	None	1
2.7	2015_May_07_1236	s	s	3	3	SIC	175	ABS	1	2	02VD 02VO 02VC 10MD 02MO 02MC 02RD 02RO	0	1	1.89445900917	None	None	None	None	1
2.7	2015_May_07_1236	s	s	3	3	SIC	176	ABS	1	1	02VD 02VO 02VC 02MD 10MO 02MC 02RD 02RO	0	1	3.31288504601	None	None	None	None	1
2.7	2015_May_07_1236	s	s	3	3	SIC	177	ABS	0	2	02VD 02VO 02VC 02MD 02MO 02MC 10RD 02RO	0	1	4.94883179665	None	None	None	None	1
2.7	2015_May_07_1236	s	s	3	3	SIC	178	RC	2	1	02VD 09VO 02VC 02MD 02MO 02MC 02RD 02RO	1	0	1.50336003304	-323.0	-89.0	-310	-79	1
2.7	2015_May_07_1236	s	s	3	3	SIC	179	ABS	1	2	02VD 02VO 02VC 10MD 02MO 02MC 02RD 02RO	0	1	1.66792297363	None	None	None	None	1
2.7	2015_May_07_1236	s	s	3	3	SIC	180	ABS	1	1	02VD 02VO 02VC 02MD 10MO 02MC 02RD 02RO	0	1	2.67693209648	None	None	None	None	1
2.7	2015_May_07_1236	s	s	3	3	SIC	181	RC	0	2	02VD 02VO 02VC 02MD 02MO 02MC 09RD 02RO	1	0	1.55311608315	210.0	-334.0	218	-330	1
2.7	2015_May_07_1236	s	s	3	3	SIC	182	ABS	2	0	02VD 02VO 10VC 02MD 02MO 02MC 02RD 02RO	0	1	2.25711417198	None	None	None	None	1
2.7	2015_May_07_1236	s	s	3	3	SIC	183	ABS	2	2	10VD 02VO 02VC 02MD 02MO 02MC 02RD 02RO	0	1	1.7038640976	None	None	None	None	1
2.7	2015_May_07_1236	s	s	3	3	SIC	184	RC	1	0	02VD 02VO 02VC 02MD 02MO 09MC 02RD 02RO	1	0	0.693891048431	27.0	105.0	21	105	1
2.7	2015_May_07_1236	s	s	3	3	SIC	185	ABS	1	0	02VD 02VO 02VC 02MD 02MO 10MC 02RD 02RO	0	1	4.85514998436	None	None	None	None	1
2.7	2015_May_07_1236	s	s	3	3	SIC	186	RC	1	2	02VD 02VO 02VC 09MD 02MO 02MC 02RD 02RO	1	0	0.723920106888	-420.0	-171.0	-426	-169	1
2.7	2015_May_07_1236	s	s	3	3	SIC	187	RC	1	1	02VD 02VO 02VC 02MD 09MO 02MC 02RD 02RO	1	0	2.87145590782	403.0	128.0	412	132	1
2.7	2015_May_07_1236	s	s	3	3	SIC	188	ABS	2	1	02VD 10VO 02VC 02MD 02MO 02MC 02RD 02RO	0	1	1.55312085152	None	None	None	None	1
2.7	2015_May_07_1236	s	s	3	3	SIC	189	RC	2	2	09VD 02VO 02VC 02MD 02MO 02MC 02RD 02RO	1	0	0.629406929016	-226.0	-74.0	-222	-81	1
2.7	2015_May_07_1236	s	s	3	3	SIC	190	ABS	0	1	02VD 02VO 02VC 02MD 02MO 02MC 02RD 10RO	0	1	3.93895292282	None	None	None	None	1
2.7	2015_May_07_1236	s	s	3	3	SIC	191	RC	2	0	02VD 02VO 09VC 02MD 02MO 02MC 02RD 02RO	1	0	0.924959897995	25.0	-2.0	25	-1	1
2.7	2015_May_07_1236	s	s	3	3	SIC	192	RC	0	1	02VD 02VO 02VC 02MD 02MO 02MC 02RD 09RO	1	0	1.95071005821	362.0	-148.0	368	-142	1
2.7	2015_May_07_1236	s	s	3	3	SIC	193	RC	2	0	02VD 02VO 09VC 02MD 02MO 02MC 02RD 02RO	1	0	0.843052864075	-265.0	-400.0	-263	-395	1
2.7	2015_May_07_1236	s	s	3	3	SIC	194	RC	1	0	02VD 02VO 02VC 02MD 02MO 09MC 02RD 02RO	1	0	2.506690979	507.0	81.0	518	86	1
2.7	2015_May_07_1236	s	s	3	3	SIC	195	RC	1	2	02VD 02VO 02VC 09MD 02MO 02MC 02RD 02RO	1	0	1.40003395081	466.0	63.0	464	65	1
2.7	2015_May_07_1236	s	s	3	3	SIC	196	RC	1	1	02VD 02VO 02VC 02MD 09MO 02MC 02RD 02RO	1	0	1.51288986206	-78.0	330.0	-77	331	1
2.7	2015_May_07_1236	s	s	3	3	SIC	197	ABS	0	1	02VD 02VO 02VC 02MD 02MO 02MC 02RD 10RO	0	1	3.63386797905	None	None	None	None	1
2.7	2015_May_07_1236	s	s	3	3	SIC	198	RC	0	2	02VD 02VO 02VC 02MD 02MO 02MC 09RD 02RO	1	0	1.69175601006	451.0	-326.0	451	-324	1
2.7	2015_May_07_1236	s	s	3	3	SIC	199	RC	2	1	02VD 09VO 02VC 02MD 02MO 02MC 02RD 02RO	1	0	0.785053014755	-346.0	300.0	-343	300	1
2.7	2015_May_07_1236	s	s	3	3	SIC	200	ABS	1	0	02VD 02VO 02VC 02MD 02MO 10MC 02RD 02RO	0	1	2.20045590401	None	None	None	None	1
2.7	2015_May_07_1236	s	s	3	3	SIC	201	RC	2	2	09VD 02VO 02VC 02MD 02MO 02MC 02RD 02RO	1	0	0.843061923981	-384.0	-138.0	-387	-143	1
2.7	2015_May_07_1236	s	s	3	3	SIC	202	ABS	0	2	02VD 02VO 02VC 02MD 02MO 02MC 10RD 02RO	0	1	1.46808481216	None	None	None	None	1
2.7	2015_May_07_1236	s	s	3	3	SIC	203	ABS	2	1	02VD 10VO 02VC 02MD 02MO 02MC 02RD 02RO	0	1	1.98497009277	None	None	None	None	1
2.7	2015_May_07_1236	s	s	3	3	SIC	204	ABS	1	1	02VD 02VO 02VC 02MD 10MO 02MC 02RD 02RO	0	1	2.42065310478	None	None	None	None	1
2.7	2015_May_07_1236	s	s	3	3	SIC	205	RC	0	1	02VD 02VO 02VC 02MD 02MO 02MC 02RD 09RO	1	0	2.16261100769	-352.0	265.0	-350	263	1
2.7	2015_May_07_1236	s	s	3	3	SIC	206	ABS	2	2	10VD 02VO 02VC 02MD 02MO 02MC 02RD 02RO	0	1	2.60059499741	None	None	None	None	1
2.7	2015_May_07_1236	s	s	3	3	SIC	207	ABS	2	0	02VD 02VO 10VC 02MD 02MO 02MC 02RD 02RO	0	1	1.78589487076	None	None	None	None	1
2.7	2015_May_07_1236	s	s	3	3	SIC	208	ABS	1	2	02VD 02VO 02VC 10MD 02MO 02MC 02RD 02RO	0	1	1.92979121208	None	None	None	None	1
2.7	2015_May_07_1236	s	s	3	3	SIC	209	RC	0	1	02VD 02VO 02VC 02MD 02MO 02MC 02RD 09RO	1	0	1.76499795914	92.0	-209.0	102	-205	1
2.7	2015_May_07_1236	s	s	3	3	SIC	210	RC	2	2	09VD 02VO 02VC 02MD 02MO 02MC 02RD 02RO	1	0	1.69413304329	430.0	258.0	423	251	1
2.7	2015_May_07_1236	s	s	3	3	SIC	211	RC	1	2	02VD 02VO 02VC 09MD 02MO 02MC 02RD 02RO	1	0	0.893955945969	-336.0	291.0	-337	295	1
2.7	2015_May_07_1236	s	s	3	3	SIC	212	ABS	2	0	02VD 02VO 10VC 02MD 02MO 02MC 02RD 02RO	0	1	1.52505803108	None	None	None	None	1
2.7	2015_May_07_1236	s	s	3	3	SIC	213	ABS	1	1	02VD 02VO 02VC 02MD 10MO 02MC 02RD 02RO	0	1	2.59825491905	None	None	None	None	1
2.7	2015_May_07_1236	s	s	3	3	SIC	214	ABS	2	2	10VD 02VO 02VC 02MD 02MO 02MC 02RD 02RO	0	1	1.65415501595	None	None	None	None	1
2.7	2015_May_07_1236	s	s	3	3	SIC	215	ABS	1	2	02VD 02VO 02VC 10MD 02MO 02MC 02RD 02RO	0	1	3.71881699562	None	None	None	None	1
2.7	2015_May_07_1236	s	s	3	3	SIC	216	RC	2	0	02VD 02VO 09VC 02MD 02MO 02MC 02RD 02RO	1	0	0.776204109192	-115.0	-70.0	-109	-66	1
2.7	2015_May_07_1236	s	s	3	3	SIC	217	ABS	0	2	02VD 02VO 02VC 02MD 02MO 02MC 10RD 02RO	0	1	1.78588795662	None	None	None	None	1
2.7	2015_May_07_1236	s	s	3	3	SIC	218	RC	0	2	02VD 02VO 02VC 02MD 02MO 02MC 09RD 02RO	1	0	0.74089884758	7.0	60.0	13	52	1
2.7	2015_May_07_1236	s	s	3	3	SIC	219	ABS	1	0	02VD 02VO 02VC 02MD 02MO 10MC 02RD 02RO	0	1	1.83148694038	None	None	None	None	1
2.7	2015_May_07_1236	s	s	3	3	SIC	220	ABS	2	1	02VD 10VO 02VC 02MD 02MO 02MC 02RD 02RO	0	1	1.74126195908	None	None	None	None	1
2.7	2015_May_07_1236	s	s	3	3	SIC	221	RC	1	0	02VD 02VO 02VC 02MD 02MO 09MC 02RD 02RO	1	0	1.9624671936	314.0	-158.0	310	-153	1
2.7	2015_May_07_1236	s	s	3	3	SIC	222	ABS	0	1	02VD 02VO 02VC 02MD 02MO 02MC 02RD 10RO	0	1	2.35350990295	None	None	None	None	1
2.7	2015_May_07_1236	s	s	3	3	SIC	223	RC	2	1	02VD 09VO 02VC 02MD 02MO 02MC 02RD 02RO	1	0	1.75305914879	396.0	-132.0	406	-129	1
2.7	2015_May_07_1236	s	s	3	3	SIC	224	RC	1	1	02VD 02VO 02VC 02MD 09MO 02MC 02RD 02RO	1	0	0.805113077164	-228.0	-339.0	-217	-333	1
2.7	2015_May_07_1236	s	s	3	3	SIC	225	ABS	2	1	02VD 10VO 02VC 02MD 02MO 02MC 02RD 02RO	0	1	1.50602889061	None	None	None	None	1
2.7	2015_May_07_1236	s	s	3	3	SIC	226	RC	2	2	09VD 02VO 02VC 02MD 02MO 02MC 02RD 02RO	1	0	1.35039305687	24.0	-403.0	24	-400	1
2.7	2015_May_07_1236	s	s	3	3	SIC	227	RC	2	0	02VD 02VO 09VC 02MD 02MO 02MC 02RD 02RO	1	0	0.714773893356	126.0	-171.0	129	-169	1
2.7	2015_May_07_1236	s	s	3	3	SIC	228	ABS	0	2	02VD 02VO 02VC 02MD 02MO 02MC 10RD 02RO	0	1	2.1415169239	None	None	None	None	1
2.7	2015_May_07_1236	s	s	3	3	SIC	229	RC	0	1	02VD 02VO 02VC 02MD 02MO 02MC 02RD 09RO	1	0	1.47429704666	490.0	-183.0	492	-179	1
2.7	2015_May_07_1236	s	s	3	3	SIC	230	ABS	1	0	02VD 02VO 02VC 02MD 02MO 10MC 02RD 02RO	0	1	2.62176799774	None	None	None	None	1
2.7	2015_May_07_1236	s	s	3	3	SIC	231	ABS	2	2	10VD 02VO 02VC 02MD 02MO 02MC 02RD 02RO	0	1	2.12987184525	None	None	None	None	1
2.7	2015_May_07_1236	s	s	3	3	SIC	232	ABS	0	1	02VD 02VO 02VC 02MD 02MO 02MC 02RD 10RO	0	1	4.00146198273	None	None	None	None	1
2.7	2015_May_07_1236	s	s	3	3	SIC	233	ABS	2	0	02VD 02VO 10VC 02MD 02MO 02MC 02RD 02RO	0	1	2.05539703369	None	None	None	None	1
2.7	2015_May_07_1236	s	s	3	3	SIC	234	ABS	1	1	02VD 02VO 02VC 02MD 10MO 02MC 02RD 02RO	0	1	2.38076210022	None	None	None	None	1
2.7	2015_May_07_1236	s	s	3	3	SIC	235	RC	1	0	02VD 02VO 02VC 02MD 02MO 09MC 02RD 02RO	1	0	1.27066612244	-335.0	66.0	-330	63	1
2.7	2015_May_07_1236	s	s	3	3	SIC	236	RC	1	1	02VD 02VO 02VC 02MD 09MO 02MC 02RD 02RO	1	0	0.925452947617	-320.0	36.0	-319	30	1
2.7	2015_May_07_1236	s	s	3	3	SIC	237	RC	2	1	02VD 09VO 02VC 02MD 02MO 02MC 02RD 02RO	1	0	1.05299305916	-324.0	318.0	-326	316	1
2.7	2015_May_07_1236	s	s	3	3	SIC	238	ABS	1	2	02VD 02VO 02VC 10MD 02MO 02MC 02RD 02RO	0	1	1.91505789757	None	None	None	None	1
2.7	2015_May_07_1236	s	s	3	3	SIC	239	RC	0	2	02VD 02VO 02VC 02MD 02MO 02MC 09RD 02RO	1	0	1.50606703758	333.0	213.0	338	206	1
2.7	2015_May_07_1236	s	s	3	3	SIC	240	RC	1	2	02VD 02VO 02VC 09MD 02MO 02MC 02RD 02RO	1	0	0.752737998962	122.0	75.0	124	66	1
2.7	2015_May_07_1236	s	s	3	3	SIC	241	RC	2	2	09VD 02VO 02VC 02MD 02MO 02MC 02RD 02RO	1	0	0.764549016953	-390.0	6.0	-381	2	1
2.7	2015_May_07_1236	s	s	3	3	SIC	242	ABS	1	2	02VD 02VO 02VC 10MD 02MO 02MC 02RD 02RO	0	1	1.78852105141	None	None	None	None	1
2.7	2015_May_07_1236	s	s	3	3	SIC	243	RC	1	0	02VD 02VO 02VC 02MD 02MO 09MC 02RD 02RO	1	0	0.618493795395	-225.0	-43.0	-215	-36	1
2.7	2015_May_07_1236	s	s	3	3	SIC	244	ABS	2	0	02VD 02VO 10VC 02MD 02MO 02MC 02RD 02RO	0	1	1.6901268959	None	None	None	None	1
2.7	2015_May_07_1236	s	s	3	3	SIC	245	RC	2	1	02VD 09VO 02VC 02MD 02MO 02MC 02RD 02RO	1	0	0.737900018692	-97.0	326.0	-102	328	1
2.7	2015_May_07_1236	s	s	3	3	SIC	246	RC	0	2	02VD 02VO 02VC 02MD 02MO 02MC 09RD 02RO	1	0	0.713721990585	27.0	-153.0	25	-144	1
2.7	2015_May_07_1236	s	s	3	3	SIC	247	ABS	2	2	10VD 02VO 02VC 02MD 02MO 02MC 02RD 02RO	0	1	1.46741104126	None	None	None	None	1
2.7	2015_May_07_1236	s	s	3	3	SIC	248	RC	0	1	02VD 02VO 02VC 02MD 02MO 02MC 02RD 09RO	1	0	1.02344107628	22.0	-152.0	17	-151	1
2.7	2015_May_07_1236	s	s	3	3	SIC	249	RC	2	0	02VD 02VO 09VC 02MD 02MO 02MC 02RD 02RO	1	0	0.611467123032	-148.0	261.0	-148	256	1
2.7	2015_May_07_1236	s	s	3	3	SIC	250	RC	1	2	02VD 02VO 02VC 09MD 02MO 02MC 02RD 02RO	1	0	0.794296979904	187.0	377.0	193	375	1
2.7	2015_May_07_1236	s	s	3	3	SIC	251	RC	1	1	02VD 02VO 02VC 02MD 09MO 02MC 02RD 02RO	1	0	0.66502404213	-296.0	-194.0	-295	-199	1
2.7	2015_May_07_1236	s	s	3	3	SIC	252	ABS	1	1	02VD 02VO 02VC 02MD 10MO 02MC 02RD 02RO	0	1	2.17085409164	None	None	None	None	1
2.7	2015_May_07_1236	s	s	3	3	SIC	253	ABS	1	0	02VD 02VO 02VC 02MD 02MO 10MC 02RD 02RO	0	1	2.73010611534	None	None	None	None	1
2.7	2015_May_07_1236	s	s	3	3	SIC	254	ABS	2	1	02VD 10VO 02VC 02MD 02MO 02MC 02RD 02RO	0	1	1.71551799774	None	None	None	None	1
2.7	2015_May_07_1236	s	s	3	3	SIC	255	ABS	0	1	02VD 02VO 02VC 02MD 02MO 02MC 02RD 10RO	0	1	4.75223302841	None	None	None	None	1
2.7	2015_May_07_1236	s	s	3	3	SIC	256	ABS	0	2	02VD 02VO 02VC 02MD 02MO 02MC 10RD 02RO	0	1	2.73012900352	None	None	None	None	1
2.7	2015_May_07_1236	s	s	3	3	SIC	257	ABS	2	1	02VD 10VO 02VC 02MD 02MO 02MC 02RD 02RO	0	1	3.86013412476	None	None	None	None	1
2.7	2015_May_07_1236	s	s	3	3	SIC	258	RC	2	0	02VD 02VO 09VC 02MD 02MO 02MC 02RD 02RO	1	0	0.794764995575	143.0	-102.0	149	-97	1
2.7	2015_May_07_1236	s	s	3	3	SIC	259	ABS	0	1	02VD 02VO 02VC 02MD 02MO 02MC 02RD 10RO	0	1	3.80107593536	None	None	None	None	1
2.7	2015_May_07_1236	s	s	3	3	SIC	260	ABS	1	2	02VD 02VO 02VC 10MD 02MO 02MC 02RD 02RO	0	1	3.05455899239	None	None	None	None	1
2.7	2015_May_07_1236	s	s	3	3	SIC	261	RC	0	2	02VD 02VO 02VC 02MD 02MO 02MC 09RD 02RO	1	0	1.39577198029	-385.0	233.0	-383	239	1
2.7	2015_May_07_1236	s	s	3	3	SIC	262	ABS	2	2	10VD 02VO 02VC 02MD 02MO 02MC 02RD 02RO	0	1	1.82380795479	None	None	None	None	1
2.7	2015_May_07_1236	s	s	3	3	SIC	263	RC	1	0	02VD 02VO 02VC 02MD 02MO 09MC 02RD 02RO	1	0	1.79490804672	-141.0	309.0	-146	310	1
2.7	2015_May_07_1236	s	s	3	3	SIC	264	ABS	0	2	02VD 02VO 02VC 02MD 02MO 02MC 10RD 02RO	1	0	2.31562805176	None	None	-28	-160	0
2.7	2015_May_07_1236	s	s	3	3	SIC	265	RC	2	2	09VD 02VO 02VC 02MD 02MO 02MC 02RD 02RO	1	0	0.877352952957	-41.0	-92.0	-36	-89	1
2.7	2015_May_07_1236	s	s	3	3	SIC	266	RC	2	1	02VD 09VO 02VC 02MD 02MO 02MC 02RD 02RO	1	0	1.60779905319	505.0	-203.0	505	-206	1
2.7	2015_May_07_1236	s	s	3	3	SIC	267	ABS	1	0	02VD 02VO 02VC 02MD 02MO 10MC 02RD 02RO	0	1	2.53688979149	None	None	None	None	1
2.7	2015_May_07_1236	s	s	3	3	SIC	268	ABS	1	1	02VD 02VO 02VC 02MD 10MO 02MC 02RD 02RO	0	1	2.32997894287	None	None	None	None	1
2.7	2015_May_07_1236	s	s	3	3	SIC	269	RC	1	1	02VD 02VO 02VC 02MD 09MO 02MC 02RD 02RO	0	1	1.69814515114	-323.0	-308.0	None	None	0
2.7	2015_May_07_1236	s	s	3	3	SIC	270	ABS	2	0	02VD 02VO 10VC 02MD 02MO 02MC 02RD 02RO	0	1	1.68257308006	None	None	None	None	1
2.7	2015_May_07_1236	s	s	3	3	SIC	271	RC	0	1	02VD 02VO 02VC 02MD 02MO 02MC 02RD 09RO	1	0	2.41912698746	307.0	-339.0	314	-338	1
2.7	2015_May_07_1236	s	s	3	3	SIC	272	RC	1	2	02VD 02VO 02VC 09MD 02MO 02MC 02RD 02RO	1	0	1.27748394012	172.0	-98.0	183	-88	1
2.7	2015_May_07_1236	s	s	3	3	SIC	273	RC	0	2	02VD 02VO 02VC 02MD 02MO 02MC 09RD 02RO	1	0	1.7060739994	517.0	-257.0	515	-257	1
2.7	2015_May_07_1236	s	s	3	3	SIC	274	ABS	1	0	02VD 02VO 02VC 02MD 02MO 10MC 02RD 02RO	0	1	2.68313384056	None	None	None	None	1
2.7	2015_May_07_1236	s	s	3	3	SIC	275	RC	0	1	02VD 02VO 02VC 02MD 02MO 02MC 02RD 09RO	1	0	3.05983686447	219.0	260.0	222	268	1
2.7	2015_May_07_1236	s	s	3	3	SIC	276	ABS	1	2	02VD 02VO 02VC 10MD 02MO 02MC 02RD 02RO	0	1	1.76497507095	None	None	None	None	1
2.7	2015_May_07_1236	s	s	3	3	SIC	277	ABS	2	2	10VD 02VO 02VC 02MD 02MO 02MC 02RD 02RO	0	1	1.8355820179	None	None	None	None	1
2.7	2015_May_07_1236	s	s	3	3	SIC	278	ABS	0	1	02VD 02VO 02VC 02MD 02MO 02MC 02RD 10RO	0	1	2.38589811325	None	None	None	None	1
2.7	2015_May_07_1236	s	s	3	3	SIC	279	ABS	0	2	02VD 02VO 02VC 02MD 02MO 02MC 10RD 02RO	0	1	1.36471581459	None	None	None	None	1
2.7	2015_May_07_1236	s	s	3	3	SIC	280	RC	2	2	09VD 02VO 02VC 02MD 02MO 02MC 02RD 02RO	1	0	2.42464709282	-352.0	-128.0	-350	-123	1
2.7	2015_May_07_1236	s	s	3	3	SIC	281	RC	1	0	02VD 02VO 02VC 02MD 02MO 09MC 02RD 02RO	1	0	1.87776303291	-7.0	361.0	-9	363	1
2.7	2015_May_07_1236	s	s	3	3	SIC	282	RC	1	1	02VD 02VO 02VC 02MD 09MO 02MC 02RD 02RO	1	0	0.726109981537	8.0	-46.0	14	-48	1
2.7	2015_May_07_1236	s	s	3	3	SIC	283	ABS	1	1	02VD 02VO 02VC 02MD 10MO 02MC 02RD 02RO	0	1	2.02411913872	None	None	None	None	1
2.7	2015_May_07_1236	s	s	3	3	SIC	284	RC	2	0	02VD 02VO 09VC 02MD 02MO 02MC 02RD 02RO	1	0	1.46775984764	344.0	311.0	340	314	1
2.7	2015_May_07_1236	s	s	3	3	SIC	285	RC	1	2	02VD 02VO 02VC 09MD 02MO 02MC 02RD 02RO	1	0	1.78305315971	236.0	247.0	229	249	1
2.7	2015_May_07_1236	s	s	3	3	SIC	286	ABS	2	1	02VD 10VO 02VC 02MD 02MO 02MC 02RD 02RO	0	1	1.65354800224	None	None	None	None	1
2.7	2015_May_07_1236	s	s	3	3	SIC	287	ABS	2	0	02VD 02VO 10VC 02MD 02MO 02MC 02RD 02RO	0	1	1.37230992317	None	None	None	None	1
2.7	2015_May_07_1236	s	s	3	3	SIC	288	RC	2	1	02VD 09VO 02VC 02MD 02MO 02MC 02RD 02RO	1	0	1.09443092346	212.0	-67.0	215	-63	1
2.7	2015_May_07_1236	s	s	3	3	SIC	289	ABS	0	1	02VD 02VO 02VC 02MD 02MO 02MC 02RD 10RO	0	1	2.8686439991	None	None	None	None	1
2.7	2015_May_07_1236	s	s	3	3	SIC	290	RC	2	0	02VD 02VO 09VC 02MD 02MO 02MC 02RD 02RO	1	0	1.19506692886	51.0	-366.0	51	-363	1
2.7	2015_May_07_1236	s	s	3	3	SIC	291	ABS	1	0	02VD 02VO 02VC 02MD 02MO 10MC 02RD 02RO	0	1	2.24491286278	None	None	None	None	1
2.7	2015_May_07_1236	s	s	3	3	SIC	292	ABS	2	2	10VD 02VO 02VC 02MD 02MO 02MC 02RD 02RO	0	1	1.43210291862	None	None	None	None	1
2.7	2015_May_07_1236	s	s	3	3	SIC	293	RC	0	2	02VD 02VO 02VC 02MD 02MO 02MC 09RD 02RO	1	0	1.31546401978	361.0	367.0	358	364	1
2.7	2015_May_07_1236	s	s	3	3	SIC	294	RC	1	1	02VD 02VO 02VC 02MD 09MO 02MC 02RD 02RO	1	0	1.28231596947	138.0	38.0	137	34	1
2.7	2015_May_07_1236	s	s	3	3	SIC	295	RC	0	1	02VD 02VO 02VC 02MD 02MO 02MC 02RD 09RO	1	0	1.27421808243	-114.0	235.0	-116	235	1
2.7	2015_May_07_1236	s	s	3	3	SIC	296	ABS	0	2	02VD 02VO 02VC 02MD 02MO 02MC 10RD 02RO	0	1	1.79526686668	None	None	None	None	1
2.7	2015_May_07_1236	s	s	3	3	SIC	297	RC	1	2	02VD 02VO 02VC 09MD 02MO 02MC 02RD 02RO	1	0	1.09399199486	383.0	-259.0	375	-258	1
2.7	2015_May_07_1236	s	s	3	3	SIC	298	ABS	2	1	02VD 10VO 02VC 02MD 02MO 02MC 02RD 02RO	0	1	1.54784083366	None	None	None	None	1
2.7	2015_May_07_1236	s	s	3	3	SIC	299	ABS	1	1	02VD 02VO 02VC 02MD 10MO 02MC 02RD 02RO	0	1	1.89045095444	None	None	None	None	1
2.7	2015_May_07_1236	s	s	3	3	SIC	300	RC	2	1	02VD 09VO 02VC 02MD 02MO 02MC 02RD 02RO	1	0	1.68261098862	520.0	208.0	521	213	1
2.7	2015_May_07_1236	s	s	3	3	SIC	301	RC	1	0	02VD 02VO 02VC 02MD 02MO 09MC 02RD 02RO	1	0	0.712026119232	-99.0	32.0	-105	24	1
2.7	2015_May_07_1236	s	s	3	3	SIC	302	RC	2	2	09VD 02VO 02VC 02MD 02MO 02MC 02RD 02RO	1	0	0.882019042969	-483.0	-322.0	-488	-319	1
2.7	2015_May_07_1236	s	s	3	3	SIC	303	ABS	1	2	02VD 02VO 02VC 10MD 02MO 02MC 02RD 02RO	0	1	1.16475296021	None	None	None	None	1
2.7	2015_May_07_1236	s	s	3	3	SIC	304	ABS	2	0	02VD 02VO 10VC 02MD 02MO 02MC 02RD 02RO	0	1	1.22908616066	None	None	None	None	1
2.7	2015_May_07_1236	s	s	3	3	SIC	305	ABS	0	1	02VD 02VO 02VC 02MD 02MO 02MC 02RD 10RO	0	1	3.25175118446	None	None	None	None	1
2.7	2015_May_07_1236	s	s	3	3	SIC	306	RC	2	1	02VD 09VO 02VC 02MD 02MO 02MC 02RD 02RO	1	0	1.14783978462	-109.0	391.0	-109	395	1
2.7	2015_May_07_1236	s	s	3	3	SIC	307	ABS	2	1	02VD 10VO 02VC 02MD 02MO 02MC 02RD 02RO	0	1	1.10565304756	None	None	None	None	1
2.7	2015_May_07_1236	s	s	3	3	SIC	308	ABS	1	2	02VD 02VO 02VC 10MD 02MO 02MC 02RD 02RO	0	1	1.77164387703	None	None	None	None	1
2.7	2015_May_07_1236	s	s	3	3	SIC	309	ABS	1	1	02VD 02VO 02VC 02MD 10MO 02MC 02RD 02RO	0	1	0.799795150757	None	None	None	None	1
2.7	2015_May_07_1236	s	s	3	3	SIC	310	RC	1	2	02VD 02VO 02VC 09MD 02MO 02MC 02RD 02RO	1	0	0.882178068161	-538.0	42.0	-533	50	1
2.7	2015_May_07_1236	s	s	3	3	SIC	311	RC	0	2	02VD 02VO 02VC 02MD 02MO 02MC 09RD 02RO	1	0	0.912444114685	174.0	-148.0	181	-145	1
2.7	2015_May_07_1236	s	s	3	3	SIC	312	ABS	0	2	02VD 02VO 02VC 02MD 02MO 02MC 10RD 02RO	0	1	2.12984108925	None	None	None	None	1
2.7	2015_May_07_1236	s	s	3	3	SIC	313	RC	1	0	02VD 02VO 02VC 02MD 02MO 09MC 02RD 02RO	1	0	0.603253126144	-1.0	-44.0	-1	-47	1
2.7	2015_May_07_1236	s	s	3	3	SIC	314	ABS	2	0	02VD 02VO 10VC 02MD 02MO 02MC 02RD 02RO	0	1	1.75322699547	None	None	None	None	1
2.7	2015_May_07_1236	s	s	3	3	SIC	315	RC	1	1	02VD 02VO 02VC 02MD 09MO 02MC 02RD 02RO	1	0	1.03519916534	455.0	-94.0	467	-85	1
2.7	2015_May_07_1236	s	s	3	3	SIC	316	ABS	2	2	10VD 02VO 02VC 02MD 02MO 02MC 02RD 02RO	0	1	1.03510499001	None	None	None	None	1
2.7	2015_May_07_1236	s	s	3	3	SIC	317	ABS	1	0	02VD 02VO 02VC 02MD 02MO 10MC 02RD 02RO	1	0	2.44764494896	None	None	-29	-34	0
2.7	2015_May_07_1236	s	s	3	3	SIC	318	RC	2	0	02VD 02VO 09VC 02MD 02MO 02MC 02RD 02RO	1	0	0.713691949844	355.0	-283.0	363	-277	1
2.7	2015_May_07_1236	s	s	3	3	SIC	319	RC	2	2	09VD 02VO 02VC 02MD 02MO 02MC 02RD 02RO	1	0	1.48240208626	54.0	268.0	56	267	1
2.7	2015_May_07_1236	s	s	3	3	SIC	320	RC	0	1	02VD 02VO 02VC 02MD 02MO 02MC 02RD 09RO	1	0	2.09465193748	433.0	-54.0	426	-46	1
2.7	2015_May_07_1236	s	s	3	3	SIC	321	ABS	2	1	02VD 10VO 02VC 02MD 02MO 02MC 02RD 02RO	0	1	1.49162912369	None	None	None	None	1
2.7	2015_May_07_1236	s	s	3	3	SIC	322	RC	1	2	02VD 02VO 02VC 09MD 02MO 02MC 02RD 02RO	0	1	1.07041287422	-539.0	290.0	None	None	0
2.7	2015_May_07_1236	s	s	3	3	SIC	323	ABS	1	2	02VD 02VO 02VC 10MD 02MO 02MC 02RD 02RO	0	1	2.05275011063	None	None	None	None	1
2.7	2015_May_07_1236	s	s	3	3	SIC	324	RC	0	1	02VD 02VO 02VC 02MD 02MO 02MC 02RD 09RO	1	0	1.1148750782	-451.0	-58.0	-459	-54	1
2.7	2015_May_07_1236	s	s	3	3	SIC	325	RC	1	1	02VD 02VO 02VC 02MD 09MO 02MC 02RD 02RO	1	0	0.999927043915	-207.0	-124.0	-208	-128	1
2.7	2015_May_07_1236	s	s	3	3	SIC	326	ABS	1	0	02VD 02VO 02VC 02MD 02MO 10MC 02RD 02RO	0	1	2.56264400482	None	None	None	None	1
2.7	2015_May_07_1236	s	s	3	3	SIC	327	ABS	1	1	02VD 02VO 02VC 02MD 10MO 02MC 02RD 02RO	0	1	2.42196011543	None	None	None	None	1
2.7	2015_May_07_1236	s	s	3	3	SIC	328	RC	2	1	02VD 09VO 02VC 02MD 02MO 02MC 02RD 02RO	1	0	0.685784101486	-230.0	283.0	-226	287	1
2.7	2015_May_07_1236	s	s	3	3	SIC	329	RC	2	0	02VD 02VO 09VC 02MD 02MO 02MC 02RD 02RO	1	0	0.964622020721	-103.0	335.0	-102	343	1
2.7	2015_May_07_1236	s	s	3	3	SIC	330	ABS	2	0	02VD 02VO 10VC 02MD 02MO 02MC 02RD 02RO	0	1	1.85911917686	None	None	None	None	1
2.7	2015_May_07_1236	s	s	3	3	SIC	331	RC	2	2	09VD 02VO 02VC 02MD 02MO 02MC 02RD 02RO	1	0	0.726568937302	-273.0	57.0	-274	57	1
2.7	2015_May_07_1236	s	s	3	3	SIC	332	ABS	0	1	02VD 02VO 02VC 02MD 02MO 02MC 02RD 10RO	0	1	3.93067979813	None	None	None	None	1
2.7	2015_May_07_1236	s	s	3	3	SIC	333	ABS	2	2	10VD 02VO 02VC 02MD 02MO 02MC 02RD 02RO	0	1	1.64761209488	None	None	None	None	1
2.7	2015_May_07_1236	s	s	3	3	SIC	334	ABS	0	2	02VD 02VO 02VC 02MD 02MO 02MC 10RD 02RO	0	1	1.45914578438	None	None	None	None	1
2.7	2015_May_07_1236	s	s	3	3	SIC	335	RC	0	2	02VD 02VO 02VC 02MD 02MO 02MC 09RD 02RO	1	0	0.599625825882	-208.0	75.0	-197	76	1
2.7	2015_May_07_1236	s	s	3	3	SIC	336	RC	1	0	02VD 02VO 02VC 02MD 02MO 09MC 02RD 02RO	1	0	2.24245786667	89.0	-237.0	90	-242	1
2.7	2015_May_07_1236	s	s	3	3	SIC	337	ABS	2	0	02VD 02VO 10VC 02MD 02MO 02MC 02RD 02RO	0	1	1.53624200821	None	None	None	None	1
2.7	2015_May_07_1236	s	s	3	3	SIC	338	RC	1	1	02VD 02VO 02VC 02MD 09MO 02MC 02RD 02RO	1	0	0.932878017426	-436.0	321.0	-433	321	1
2.7	2015_May_07_1236	s	s	3	3	SIC	339	ABS	0	1	02VD 02VO 02VC 02MD 02MO 02MC 02RD 10RO	0	1	3.45512294769	None	None	None	None	1
2.7	2015_May_07_1236	s	s	3	3	SIC	340	RC	0	1	02VD 02VO 02VC 02MD 02MO 02MC 02RD 09RO	1	0	2.12757015228	-501.0	-264.0	-503	-264	1
2.7	2015_May_07_1236	s	s	3	3	SIC	341	ABS	1	1	02VD 02VO 02VC 02MD 10MO 02MC 02RD 02RO	0	1	1.93880701065	None	None	None	None	1
2.7	2015_May_07_1236	s	s	3	3	SIC	342	RC	1	2	02VD 02VO 02VC 09MD 02MO 02MC 02RD 02RO	1	0	1.23198390007	-217.0	-393.0	-224	-393	1
2.7	2015_May_07_1236	s	s	3	3	SIC	343	ABS	1	0	02VD 02VO 02VC 02MD 02MO 10MC 02RD 02RO	0	1	2.01945900917	None	None	None	None	1
2.7	2015_May_07_1236	s	s	3	3	SIC	344	RC	0	2	02VD 02VO 02VC 02MD 02MO 02MC 09RD 02RO	1	0	1.90046000481	-474.0	169.0	-485	169	1
2.7	2015_May_07_1236	s	s	3	3	SIC	345	ABS	2	2	10VD 02VO 02VC 02MD 02MO 02MC 02RD 02RO	0	1	1.70214009285	None	None	None	None	1
2.7	2015_May_07_1236	s	s	3	3	SIC	346	ABS	1	2	02VD 02VO 02VC 10MD 02MO 02MC 02RD 02RO	1	0	1.52491807938	None	None	-166	-96	0
2.7	2015_May_07_1236	s	s	3	3	SIC	347	RC	1	0	02VD 02VO 02VC 02MD 02MO 09MC 02RD 02RO	1	0	0.776172876358	-217.0	161.0	-231	168	1
2.7	2015_May_07_1236	s	s	3	3	SIC	348	RC	2	2	09VD 02VO 02VC 02MD 02MO 02MC 02RD 02RO	1	0	0.576183795929	-188.0	86.0	-185	85	1
2.7	2015_May_07_1236	s	s	3	3	SIC	349	ABS	2	1	02VD 10VO 02VC 02MD 02MO 02MC 02RD 02RO	1	0	1.56855297089	None	None	-114	-66	0
2.7	2015_May_07_1236	s	s	3	3	SIC	350	ABS	0	2	02VD 02VO 02VC 02MD 02MO 02MC 10RD 02RO	0	1	1.71773099899	None	None	None	None	1
2.7	2015_May_07_1236	s	s	3	3	SIC	351	RC	2	0	02VD 02VO 09VC 02MD 02MO 02MC 02RD 02RO	1	0	1.40665006638	-158.0	324.0	-150	323	1
2.7	2015_May_07_1236	s	s	3	3	SIC	352	RC	2	1	02VD 09VO 02VC 02MD 02MO 02MC 02RD 02RO	1	0	0.959874153137	-422.0	-143.0	-417	-141	1
2.7	2015_May_07_1236	s	s	3	3	SIC	353	ABS	2	0	02VD 02VO 10VC 02MD 02MO 02MC 02RD 02RO	0	1	2.15335512161	None	None	None	None	1
2.7	2015_May_07_1236	s	s	3	3	SIC	354	ABS	0	2	02VD 02VO 02VC 02MD 02MO 02MC 10RD 02RO	0	1	2.3979640007	None	None	None	None	1
2.7	2015_May_07_1236	s	s	3	3	SIC	355	ABS	0	1	02VD 02VO 02VC 02MD 02MO 02MC 02RD 10RO	0	1	4.43193697929	None	None	None	None	1
2.7	2015_May_07_1236	s	s	3	3	SIC	356	RC	1	1	02VD 02VO 02VC 02MD 09MO 02MC 02RD 02RO	1	0	1.15285396576	370.0	-61.0	367	-65	1
2.7	2015_May_07_1236	s	s	3	3	SIC	357	RC	2	2	09VD 02VO 02VC 02MD 02MO 02MC 02RD 02RO	1	0	3.89028596878	284.0	-306.0	292	-308	1
2.7	2015_May_07_1236	s	s	3	3	SIC	358	ABS	1	1	02VD 02VO 02VC 02MD 10MO 02MC 02RD 02RO	0	1	3.07149100304	None	None	None	None	1
2.7	2015_May_07_1236	s	s	3	3	SIC	359	ABS	1	2	02VD 02VO 02VC 10MD 02MO 02MC 02RD 02RO	0	1	2.90669798851	None	None	None	None	1
2.7	2015_May_07_1236	s	s	3	3	SIC	360	RC	1	0	02VD 02VO 02VC 02MD 02MO 09MC 02RD 02RO	1	0	1.28243207932	-445.0	-97.0	-448	-108	1
2.7	2015_May_07_1236	s	s	3	3	SIC	361	RC	1	2	02VD 02VO 02VC 09MD 02MO 02MC 02RD 02RO	1	0	0.615119934082	-255.0	76.0	-259	86	1
2.7	2015_May_07_1236	s	s	3	3	SIC	362	RC	2	0	02VD 02VO 09VC 02MD 02MO 02MC 02RD 02RO	1	0	0.914920091629	-33.0	360.0	-27	361	1
2.7	2015_May_07_1236	s	s	3	3	SIC	363	RC	0	2	02VD 02VO 02VC 02MD 02MO 02MC 09RD 02RO	1	0	1.08234000206	-12.0	-245.0	-1	-241	1
2.7	2015_May_07_1236	s	s	3	3	SIC	364	ABS	2	2	10VD 02VO 02VC 02MD 02MO 02MC 02RD 02RO	0	1	2.87842321396	None	None	None	None	1
2.7	2015_May_07_1236	s	s	3	3	SIC	365	RC	0	1	02VD 02VO 02VC 02MD 02MO 02MC 02RD 09RO	1	0	1.05453205109	-10.0	-192.0	-6	-188	1
2.7	2015_May_07_1236	s	s	3	3	SIC	366	ABS	1	0	02VD 02VO 02VC 02MD 02MO 10MC 02RD 02RO	0	1	3.02434897423	None	None	None	None	1
2.7	2015_May_07_1236	s	s	3	3	SIC	367	RC	2	1	02VD 09VO 02VC 02MD 02MO 02MC 02RD 02RO	1	0	1.9978249073	288.0	-170.0	283	-167	1
2.7	2015_May_07_1236	s	s	3	3	SIC	368	ABS	2	1	02VD 10VO 02VC 02MD 02MO 02MC 02RD 02RO	0	1	1.6157181263	None	None	None	None	1
2.7	2015_May_07_1236	s	s	3	3	SIC	369	ABS	0	2	02VD 02VO 02VC 02MD 02MO 02MC 10RD 02RO	0	1	1.95080184937	None	None	None	None	1
2.7	2015_May_07_1236	s	s	3	3	SIC	370	ABS	0	1	02VD 02VO 02VC 02MD 02MO 02MC 02RD 10RO	0	1	2.7655069828	None	None	None	None	1
2.7	2015_May_07_1236	s	s	3	3	SIC	371	ABS	1	0	02VD 02VO 02VC 02MD 02MO 10MC 02RD 02RO	0	1	2.97444200516	None	None	None	None	1
2.7	2015_May_07_1236	s	s	3	3	SIC	372	ABS	2	0	02VD 02VO 10VC 02MD 02MO 02MC 02RD 02RO	0	1	1.69180202484	None	None	None	None	1
2.7	2015_May_07_1236	s	s	3	3	SIC	373	ABS	1	2	02VD 02VO 02VC 10MD 02MO 02MC 02RD 02RO	0	1	1.32502698898	None	None	None	None	1
2.7	2015_May_07_1236	s	s	3	3	SIC	374	RC	2	0	02VD 02VO 09VC 02MD 02MO 02MC 02RD 02RO	1	0	1.60714101791	298.0	-243.0	308	-242	1
2.7	2015_May_07_1236	s	s	3	3	SIC	375	RC	0	2	02VD 02VO 02VC 02MD 02MO 02MC 09RD 02RO	1	0	1.04692006111	151.0	92.0	150	84	1
2.7	2015_May_07_1236	s	s	3	3	SIC	376	ABS	1	1	02VD 02VO 02VC 02MD 10MO 02MC 02RD 02RO	0	1	3.7959830761	None	None	None	None	1
2.7	2015_May_07_1236	s	s	3	3	SIC	377	ABS	2	1	02VD 10VO 02VC 02MD 02MO 02MC 02RD 02RO	0	1	1.9294989109	None	None	None	None	1
2.7	2015_May_07_1236	s	s	3	3	SIC	378	RC	1	2	02VD 02VO 02VC 09MD 02MO 02MC 02RD 02RO	1	0	1.15289187431	383.0	25.0	382	23	1
2.7	2015_May_07_1236	s	s	3	3	SIC	379	RC	2	1	02VD 09VO 02VC 02MD 02MO 02MC 02RD 02RO	1	0	0.723928928375	-225.0	67.0	-234	73	1
2.7	2015_May_07_1236	s	s	3	3	SIC	380	RC	1	0	02VD 02VO 02VC 02MD 02MO 09MC 02RD 02RO	1	0	0.736262083054	-341.0	154.0	-338	148	1
2.7	2015_May_07_1236	s	s	3	3	SIC	381	RC	2	2	09VD 02VO 02VC 02MD 02MO 02MC 02RD 02RO	1	0	1.28226709366	335.0	103.0	327	100	1
2.7	2015_May_07_1236	s	s	3	3	SIC	382	ABS	2	2	10VD 02VO 02VC 02MD 02MO 02MC 02RD 02RO	0	1	1.55301308632	None	None	None	None	1
2.7	2015_May_07_1236	s	s	3	3	SIC	383	RC	0	1	02VD 02VO 02VC 02MD 02MO 02MC 02RD 09RO	1	0	2.08993601799	186.0	-225.0	189	-234	1
2.7	2015_May_07_1236	s	s	3	3	SIC	384	RC	1	1	02VD 02VO 02VC 02MD 09MO 02MC 02RD 02RO	1	0	1.91280984879	510.0	273.0	515	272	1
2.7	2015_May_07_1236	s	s	3	3	SIC	385	RC	1	1	02VD 02VO 02VC 02MD 09MO 02MC 02RD 02RO	1	0	0.599735021591	-135.0	218.0	-137	225	1
2.7	2015_May_07_1236	s	s	3	3	SIC	386	ABS	2	1	02VD 10VO 02VC 02MD 02MO 02MC 02RD 02RO	0	1	1.47997403145	None	None	None	None	1
2.7	2015_May_07_1236	s	s	3	3	SIC	387	ABS	1	1	02VD 02VO 02VC 02MD 10MO 02MC 02RD 02RO	0	1	2.88320207596	None	None	None	None	1
2.7	2015_May_07_1236	s	s	3	3	SIC	388	ABS	1	2	02VD 02VO 02VC 10MD 02MO 02MC 02RD 02RO	0	1	1.73623585701	None	None	None	None	1
2.7	2015_May_07_1236	s	s	3	3	SIC	389	ABS	1	0	02VD 02VO 02VC 02MD 02MO 10MC 02RD 02RO	0	1	2.12984585762	None	None	None	None	1
2.7	2015_May_07_1236	s	s	3	3	SIC	390	RC	2	0	02VD 02VO 09VC 02MD 02MO 02MC 02RD 02RO	1	0	1.52411007881	344.0	196.0	342	205	1
2.7	2015_May_07_1236	s	s	3	3	SIC	391	RC	2	1	02VD 09VO 02VC 02MD 02MO 02MC 02RD 02RO	1	0	1.1622710228	-384.0	342.0	-390	335	1
2.7	2015_May_07_1236	s	s	3	3	SIC	392	RC	1	2	02VD 02VO 02VC 09MD 02MO 02MC 02RD 02RO	1	0	1.5145368576	73.0	-98.0	83	-96	1
2.7	2015_May_07_1236	s	s	3	3	SIC	393	ABS	2	0	02VD 02VO 10VC 02MD 02MO 02MC 02RD 02RO	0	1	3.03192210197	None	None	None	None	1
2.7	2015_May_07_1236	s	s	3	3	SIC	394	ABS	0	2	02VD 02VO 02VC 02MD 02MO 02MC 10RD 02RO	0	1	2.08945608139	None	None	None	None	1
2.7	2015_May_07_1236	s	s	3	3	SIC	395	ABS	2	2	10VD 02VO 02VC 02MD 02MO 02MC 02RD 02RO	0	1	1.54972100258	None	None	None	None	1
2.7	2015_May_07_1236	s	s	3	3	SIC	396	RC	2	2	09VD 02VO 02VC 02MD 02MO 02MC 02RD 02RO	1	0	0.608864068985	-70.0	-8.0	-57	0	1
2.7	2015_May_07_1236	s	s	3	3	SIC	397	ABS	0	1	02VD 02VO 02VC 02MD 02MO 02MC 02RD 10RO	0	1	4.57810807228	None	None	None	None	1
2.7	2015_May_07_1236	s	s	3	3	SIC	398	RC	0	2	02VD 02VO 02VC 02MD 02MO 02MC 09RD 02RO	1	0	0.832344055176	-155.0	-227.0	-160	-227	1
2.7	2015_May_07_1236	s	s	3	3	SIC	399	RC	0	1	02VD 02VO 02VC 02MD 02MO 02MC 02RD 09RO	1	0	2.47121787071	445.0	54.0	453	56	1
2.7	2015_May_07_1236	s	s	3	3	SIC	400	RC	1	0	02VD 02VO 02VC 02MD 02MO 09MC 02RD 02RO	1	0	0.81823682785	-420.0	112.0	-424	110	1
2.7	2015_May_07_1236	s	s	3	3	SIC	401	ABS	0	1	02VD 02VO 02VC 02MD 02MO 02MC 02RD 10RO	0	1	3.15396904945	None	None	None	None	1
2.7	2015_May_07_1236	s	s	3	3	SIC	402	ABS	0	2	02VD 02VO 02VC 02MD 02MO 02MC 10RD 02RO	0	1	2.50191402435	None	None	None	None	1
2.7	2015_May_07_1236	s	s	3	3	SIC	403	RC	2	1	02VD 09VO 02VC 02MD 02MO 02MC 02RD 02RO	1	0	0.619575023651	-86.0	219.0	-79	221	1
2.7	2015_May_07_1236	s	s	3	3	SIC	404	ABS	2	0	02VD 02VO 10VC 02MD 02MO 02MC 02RD 02RO	0	1	1.6554248333	None	None	None	None	1
2.7	2015_May_07_1236	s	s	3	3	SIC	405	RC	1	1	02VD 02VO 02VC 02MD 09MO 02MC 02RD 02RO	1	0	1.10261917114	102.0	-349.0	107	-348	1
2.7	2015_May_07_1236	s	s	3	3	SIC	406	RC	2	0	02VD 02VO 09VC 02MD 02MO 02MC 02RD 02RO	1	0	1.20605397224	92.0	-185.0	92	-181	1
2.7	2015_May_07_1236	s	s	3	3	SIC	407	ABS	1	1	02VD 02VO 02VC 02MD 10MO 02MC 02RD 02RO	0	1	3.23138785362	None	None	None	None	1
2.7	2015_May_07_1236	s	s	3	3	SIC	408	ABS	2	2	10VD 02VO 02VC 02MD 02MO 02MC 02RD 02RO	0	1	1.7802798748	None	None	None	None	1
2.7	2015_May_07_1236	s	s	3	3	SIC	409	ABS	2	1	02VD 10VO 02VC 02MD 02MO 02MC 02RD 02RO	0	1	1.60799694061	None	None	None	None	1
2.7	2015_May_07_1236	s	s	3	3	SIC	410	ABS	1	0	02VD 02VO 02VC 02MD 02MO 10MC 02RD 02RO	0	1	1.21183204651	None	None	None	None	1
2.7	2015_May_07_1236	s	s	3	3	SIC	411	RC	0	1	02VD 02VO 02VC 02MD 02MO 02MC 02RD 09RO	1	0	0.679418087006	-368.0	223.0	-364	222	1
2.7	2015_May_07_1236	s	s	3	3	SIC	412	RC	0	2	02VD 02VO 02VC 02MD 02MO 02MC 09RD 02RO	1	0	1.75316596031	-19.0	328.0	-17	330	1
2.7	2015_May_07_1236	s	s	3	3	SIC	413	RC	1	0	02VD 02VO 02VC 02MD 02MO 09MC 02RD 02RO	1	0	0.693854093552	-468.0	35.0	-464	41	1
2.7	2015_May_07_1236	s	s	3	3	SIC	414	RC	1	2	02VD 02VO 02VC 09MD 02MO 02MC 02RD 02RO	1	0	1.56487417221	368.0	294.0	373	294	1
2.7	2015_May_07_1236	s	s	3	3	SIC	415	ABS	1	2	02VD 02VO 02VC 10MD 02MO 02MC 02RD 02RO	1	0	1.97685790062	None	None	-536	-413	0
2.7	2015_May_07_1236	s	s	3	3	SIC	416	RC	2	2	09VD 02VO 02VC 02MD 02MO 02MC 02RD 02RO	1	0	1.35093212128	-235.0	-242.0	-233	-240	1
2.7	2015_May_07_1236	s	s	3	3	SIC	417	ABS	1	0	02VD 02VO 02VC 02MD 02MO 10MC 02RD 02RO	0	1	3.35770988464	None	None	None	None	1
2.7	2015_May_07_1236	s	s	3	3	SIC	418	RC	0	2	02VD 02VO 02VC 02MD 02MO 02MC 09RD 02RO	1	0	1.41191506386	6.0	-392.0	-1	-389	1
2.7	2015_May_07_1236	s	s	3	3	SIC	419	ABS	1	2	02VD 02VO 02VC 10MD 02MO 02MC 02RD 02RO	0	1	1.39732599258	None	None	None	None	1
2.7	2015_May_07_1236	s	s	3	3	SIC	420	RC	0	1	02VD 02VO 02VC 02MD 02MO 02MC 02RD 09RO	1	0	1.96243000031	-294.0	-261.0	-300	-262	1
2.7	2015_May_07_1236	s	s	3	3	SIC	421	ABS	2	2	10VD 02VO 02VC 02MD 02MO 02MC 02RD 02RO	0	1	1.85916590691	None	None	None	None	1
2.7	2015_May_07_1236	s	s	3	3	SIC	422	ABS	0	1	02VD 02VO 02VC 02MD 02MO 02MC 02RD 10RO	0	1	3.44285607338	None	None	None	None	1
2.7	2015_May_07_1236	s	s	3	3	SIC	423	RC	1	0	02VD 02VO 02VC 02MD 02MO 09MC 02RD 02RO	1	0	1.09404993057	-380.0	-237.0	-372	-236	1
2.7	2015_May_07_1236	s	s	3	3	SIC	424	ABS	1	1	02VD 02VO 02VC 02MD 10MO 02MC 02RD 02RO	0	1	2.14825892448	None	None	None	None	1
2.7	2015_May_07_1236	s	s	3	3	SIC	425	RC	1	1	02VD 02VO 02VC 02MD 09MO 02MC 02RD 02RO	1	0	1.19438290596	35.0	382.0	40	378	1
2.7	2015_May_07_1236	s	s	3	3	SIC	426	RC	2	1	02VD 09VO 02VC 02MD 02MO 02MC 02RD 02RO	1	0	1.09403586388	-43.0	-170.0	-36	-170	1
2.7	2015_May_07_1236	s	s	3	3	SIC	427	ABS	0	2	02VD 02VO 02VC 02MD 02MO 02MC 10RD 02RO	0	1	2.68971896172	None	None	None	None	1
2.7	2015_May_07_1236	s	s	3	3	SIC	428	ABS	2	0	02VD 02VO 10VC 02MD 02MO 02MC 02RD 02RO	0	1	2.63598799706	None	None	None	None	1
2.7	2015_May_07_1236	s	s	3	3	SIC	429	RC	2	0	02VD 02VO 09VC 02MD 02MO 02MC 02RD 02RO	1	0	1.05865812302	131.0	315.0	127	318	1
2.7	2015_May_07_1236	s	s	3	3	SIC	430	ABS	2	1	02VD 10VO 02VC 02MD 02MO 02MC 02RD 02RO	0	1	1.32943797112	None	None	None	None	1
2.7	2015_May_07_1236	s	s	3	3	SIC	431	RC	1	2	02VD 02VO 02VC 09MD 02MO 02MC 02RD 02RO	1	0	0.658768892288	-134.0	-72.0	-134	-67	1
2.7	2015_May_07_1236	s	s	3	3	SIC	432	RC	2	2	09VD 02VO 02VC 02MD 02MO 02MC 02RD 02RO	1	0	0.576123952866	-12.0	-46.0	-10	-47	1
2.7	2015_May_07_1236	s	s	3	3	SIC	433	ABS	1	0	02VD 02VO 02VC 02MD 02MO 10MC 02RD 02RO	0	1	4.40146303177	None	None	None	None	1
2.7	2015_May_07_1236	s	s	3	3	SIC	434	RC	1	2	02VD 02VO 02VC 09MD 02MO 02MC 02RD 02RO	1	0	1.32634496689	118.0	-331.0	109	-333	1
2.7	2015_May_07_1236	s	s	3	3	SIC	435	RC	2	1	02VD 09VO 02VC 02MD 02MO 02MC 02RD 02RO	1	0	0.952813863754	45.0	-391.0	50	-390	1
2.7	2015_May_07_1236	s	s	3	3	SIC	436	ABS	0	1	02VD 02VO 02VC 02MD 02MO 02MC 02RD 10RO	0	1	3.66002488136	None	None	None	None	1
2.7	2015_May_07_1236	s	s	3	3	SIC	437	ABS	2	2	10VD 02VO 02VC 02MD 02MO 02MC 02RD 02RO	0	1	3.60168504715	None	None	None	None	1
2.7	2015_May_07_1236	s	s	3	3	SIC	438	ABS	0	2	02VD 02VO 02VC 02MD 02MO 02MC 10RD 02RO	0	1	2.14166593552	None	None	None	None	1
2.7	2015_May_07_1236	s	s	3	3	SIC	439	RC	2	0	02VD 02VO 09VC 02MD 02MO 02MC 02RD 02RO	1	0	3.57261800766	318.0	378.0	320	372	1
2.7	2015_May_07_1236	s	s	3	3	SIC	440	RC	0	2	02VD 02VO 02VC 02MD 02MO 02MC 09RD 02RO	1	0	2.36160087585	162.0	-402.0	168	-410	1
2.7	2015_May_07_1236	s	s	3	3	SIC	441	RC	0	1	02VD 02VO 02VC 02MD 02MO 02MC 02RD 09RO	1	0	1.02326798439	-494.0	165.0	-491	167	1
2.7	2015_May_07_1236	s	s	3	3	SIC	442	ABS	2	0	02VD 02VO 10VC 02MD 02MO 02MC 02RD 02RO	0	1	2.12984585762	None	None	None	None	1
2.7	2015_May_07_1236	s	s	3	3	SIC	443	ABS	1	1	02VD 02VO 02VC 02MD 10MO 02MC 02RD 02RO	0	1	3.60128307343	None	None	None	None	1
2.7	2015_May_07_1236	s	s	3	3	SIC	444	ABS	1	2	02VD 02VO 02VC 10MD 02MO 02MC 02RD 02RO	0	1	1.79495501518	None	None	None	None	1
2.7	2015_May_07_1236	s	s	3	3	SIC	445	ABS	2	1	02VD 10VO 02VC 02MD 02MO 02MC 02RD 02RO	0	1	1.67059588432	None	None	None	None	1
2.7	2015_May_07_1236	s	s	3	3	SIC	446	RC	1	0	02VD 02VO 02VC 02MD 02MO 09MC 02RD 02RO	1	0	2.01893496513	-534.0	177.0	-529	179	1
2.7	2015_May_07_1236	s	s	3	3	SIC	447	RC	1	1	02VD 02VO 02VC 02MD 09MO 02MC 02RD 02RO	1	0	1.0074338913	-81.0	371.0	-85	380	1
2.7	2015_May_07_1236	s	s	3	3	SIC	448	RC	2	2	09VD 02VO 02VC 02MD 02MO 02MC 02RD 02RO	1	0	1.64154696465	466.0	-372.0	471	-372	1
2.7	2015_May_07_1236	s	s	3	3	SIC	449	ABS	2	0	02VD 02VO 10VC 02MD 02MO 02MC 02RD 02RO	0	1	1.87089705467	None	None	None	None	1
2.7	2015_May_07_1236	s	s	3	3	SIC	450	RC	0	1	02VD 02VO 02VC 02MD 02MO 02MC 02RD 09RO	1	0	2.36527991295	-147.0	-351.0	-154	-346	1
2.7	2015_May_07_1236	s	s	3	3	SIC	451	ABS	2	1	02VD 10VO 02VC 02MD 02MO 02MC 02RD 02RO	0	1	3.53055500984	None	None	None	None	1
2.7	2015_May_07_1236	s	s	3	3	SIC	452	ABS	0	2	02VD 02VO 02VC 02MD 02MO 02MC 10RD 02RO	0	1	1.31512784958	None	None	None	None	1
2.7	2015_May_07_1236	s	s	3	3	SIC	453	ABS	1	0	02VD 02VO 02VC 02MD 02MO 10MC 02RD 02RO	0	1	3.36099100113	None	None	None	None	1
2.7	2015_May_07_1236	s	s	3	3	SIC	454	RC	0	2	02VD 02VO 02VC 02MD 02MO 02MC 09RD 02RO	1	0	0.852506875992	-139.0	282.0	-131	284	1
2.7	2015_May_07_1236	s	s	3	3	SIC	455	RC	1	0	02VD 02VO 02VC 02MD 02MO 09MC 02RD 02RO	1	0	0.67026591301	-206.0	-5.0	-200	-5	1
2.7	2015_May_07_1236	s	s	3	3	SIC	456	ABS	0	1	02VD 02VO 02VC 02MD 02MO 02MC 02RD 10RO	0	1	3.14245796204	None	None	None	None	1
2.7	2015_May_07_1236	s	s	3	3	SIC	457	RC	2	0	02VD 02VO 09VC 02MD 02MO 02MC 02RD 02RO	1	0	1.07902407646	283.0	399.0	276	400	1
2.7	2015_May_07_1236	s	s	3	3	SIC	458	RC	1	1	02VD 02VO 02VC 02MD 09MO 02MC 02RD 02RO	1	0	1.035145998	-395.0	297.0	-391	292	1
2.7	2015_May_07_1236	s	s	3	3	SIC	459	RC	2	2	09VD 02VO 02VC 02MD 02MO 02MC 02RD 02RO	1	0	1.41818499565	107.0	137.0	107	140	1
2.7	2015_May_07_1236	s	s	3	3	SIC	460	ABS	1	2	02VD 02VO 02VC 10MD 02MO 02MC 02RD 02RO	0	1	1.83555603027	None	None	None	None	1
2.7	2015_May_07_1236	s	s	3	3	SIC	461	RC	2	1	02VD 09VO 02VC 02MD 02MO 02MC 02RD 02RO	1	0	1.2655570507	-228.0	308.0	-225	295	1
2.7	2015_May_07_1236	s	s	3	3	SIC	462	ABS	2	2	10VD 02VO 02VC 02MD 02MO 02MC 02RD 02RO	0	1	2.45674204826	None	None	None	None	1
2.7	2015_May_07_1236	s	s	3	3	SIC	463	ABS	1	1	02VD 02VO 02VC 02MD 10MO 02MC 02RD 02RO	0	1	1.31756210327	None	None	None	None	1
2.7	2015_May_07_1236	s	s	3	3	SIC	464	RC	1	2	02VD 02VO 02VC 09MD 02MO 02MC 02RD 02RO	1	0	1.77668905258	408.0	327.0	419	329	1
2.7	2015_May_07_1236	s	s	3	3	SIC	465	ABS	2	2	10VD 02VO 02VC 02MD 02MO 02MC 02RD 02RO	0	1	1.57154512405	None	None	None	None	1
2.7	2015_May_07_1236	s	s	3	3	SIC	466	ABS	0	1	02VD 02VO 02VC 02MD 02MO 02MC 02RD 10RO	0	1	2.29031205177	None	None	None	None	1
2.7	2015_May_07_1236	s	s	3	3	SIC	467	RC	2	1	02VD 09VO 02VC 02MD 02MO 02MC 02RD 02RO	1	0	2.1534910202	292.0	-272.0	294	-282	1
2.7	2015_May_07_1236	s	s	3	3	SIC	468	RC	1	1	02VD 02VO 02VC 02MD 09MO 02MC 02RD 02RO	1	0	1.72724485397	340.0	90.0	332	95	1
2.7	2015_May_07_1236	s	s	3	3	SIC	469	ABS	1	2	02VD 02VO 02VC 10MD 02MO 02MC 02RD 02RO	0	1	1.89115095139	None	None	None	None	1
2.7	2015_May_07_1236	s	s	3	3	SIC	470	RC	1	0	02VD 02VO 02VC 02MD 02MO 09MC 02RD 02RO	1	0	1.33639883995	-190.0	-161.0	-188	-160	1
2.7	2015_May_07_1236	s	s	3	3	SIC	471	RC	2	0	02VD 02VO 09VC 02MD 02MO 02MC 02RD 02RO	1	0	1.92981982231	383.0	-332.0	388	-332	1
2.7	2015_May_07_1236	s	s	3	3	SIC	472	ABS	2	1	02VD 10VO 02VC 02MD 02MO 02MC 02RD 02RO	0	1	2.39569091797	None	None	None	None	1
2.7	2015_May_07_1236	s	s	3	3	SIC	473	ABS	1	0	02VD 02VO 02VC 02MD 02MO 10MC 02RD 02RO	0	1	2.5134999752	None	None	None	None	1
2.7	2015_May_07_1236	s	s	3	3	SIC	474	ABS	1	1	02VD 02VO 02VC 02MD 10MO 02MC 02RD 02RO	0	1	1.90618801117	None	None	None	None	1
2.7	2015_May_07_1236	s	s	3	3	SIC	475	RC	0	1	02VD 02VO 02VC 02MD 02MO 02MC 02RD 09RO	1	0	1.47050714493	56.0	-164.0	56	-159	1
2.7	2015_May_07_1236	s	s	3	3	SIC	476	RC	0	2	02VD 02VO 02VC 02MD 02MO 02MC 09RD 02RO	1	0	0.571202039719	-6.0	-51.0	-8	-50	1
2.7	2015_May_07_1236	s	s	3	3	SIC	477	ABS	0	2	02VD 02VO 02VC 02MD 02MO 02MC 10RD 02RO	0	1	1.71236491203	None	None	None	None	1
2.7	2015_May_07_1236	s	s	3	3	SIC	478	RC	2	2	09VD 02VO 02VC 02MD 02MO 02MC 02RD 02RO	1	0	0.829385042191	52.0	254.0	49	252	1
2.7	2015_May_07_1236	s	s	3	3	SIC	479	ABS	2	0	02VD 02VO 10VC 02MD 02MO 02MC 02RD 02RO	0	1	1.78464198112	None	None	None	None	1
2.7	2015_May_07_1236	s	s	3	3	SIC	480	RC	1	2	02VD 02VO 02VC 09MD 02MO 02MC 02RD 02RO	1	0	0.729140996933	104.0	179.0	111	183	1
