Version	Date	Stimuli	Method	Subject	Session	Condition	Trial	Target	Channel1	Channel2	Distractors	LMouseButton	RMouseButton	RT	TargetX	TargetY	ResponseX	ResponseY	Correct
2.7	2015_May_07_1255	s	s	4	4	Capacity	1	RC	2	0	15VC 08MC	1	0	1.53455400467	371.0	231.0	376	226	1
2.7	2015_May_07_1255	s	s	4	4	Capacity	2	RC	1	0	08VC 15MC	1	0	1.85104894638	34.0	-168.0	41	-172	1
2.7	2015_May_07_1255	s	s	4	4	Capacity	3	ABS	1	0	08VC 16MC	0	1	3.20757102966	None	None	None	None	1
2.7	2015_May_07_1255	s	s	4	4	Capacity	4	ABS	2	0	16VC 08MC	0	1	2.60064983368	None	None	None	None	1
2.7	2015_May_07_1255	s	s	4	4	Capacity	5	ABS	1	0	08VC 16MC	0	1	8.03360009193	None	None	None	None	1
2.7	2015_May_07_1255	s	s	4	4	Capacity	6	ABS	2	0	16VC 08MC	0	1	3.4363591671	None	None	None	None	1
2.7	2015_May_07_1255	s	s	4	4	Capacity	7	RC	1	0	08VC 15MC	1	0	1.05389094353	-81.0	282.0	-72	281	1
2.7	2015_May_07_1255	s	s	4	4	Capacity	8	RC	2	0	15VC 08MC	1	0	1.78851103783	20.0	-187.0	21	-181	1
2.7	2015_May_07_1255	s	s	4	4	Capacity	9	RC	2	0	15VC 08MC	1	0	1.21162700653	-312.0	367.0	-314	365	1
2.7	2015_May_07_1255	s	s	4	4	Capacity	10	ABS	1	0	08VC 16MC	0	1	3.29019713402	None	None	None	None	1
2.7	2015_May_07_1255	s	s	4	4	Capacity	11	RC	1	0	08VC 15MC	1	0	0.843630075455	-262.0	31.0	-269	33	1
2.7	2015_May_07_1255	s	s	4	4	Capacity	12	ABS	2	0	16VC 08MC	0	1	2.25933504105	None	None	None	None	1
2.7	2015_May_07_1255	s	s	4	4	Capacity	13	RC	2	0	15VC 08MC	1	0	0.994981050491	-285.0	-24.0	-278	-24	1
2.7	2015_May_07_1255	s	s	4	4	Capacity	14	RC	1	0	08VC 15MC	1	0	0.893939971924	-179.0	62.0	-178	53	1
2.7	2015_May_07_1255	s	s	4	4	Capacity	15	ABS	1	0	08VC 16MC	0	1	2.8306479454	None	None	None	None	1
2.7	2015_May_07_1255	s	s	4	4	Capacity	16	ABS	2	0	16VC 08MC	0	1	2.16517281532	None	None	None	None	1
2.7	2015_May_07_1255	s	s	4	4	Capacity	17	ABS	2	0	16VC 08MC	0	1	2.70652318001	None	None	None	None	1
2.7	2015_May_07_1255	s	s	4	4	Capacity	18	RC	1	0	08VC 15MC	1	0	2.99596405029	6.0	-298.0	9	-299	1
2.7	2015_May_07_1255	s	s	4	4	Capacity	19	ABS	1	0	08VC 16MC	0	1	4.96650290489	None	None	None	None	1
2.7	2015_May_07_1255	s	s	4	4	Capacity	20	RC	2	0	15VC 08MC	1	0	1.89813399315	169.0	-274.0	173	-275	1
2.7	2015_May_07_1255	s	s	4	4	Capacity	21	ABS	2	0	16VC 08MC	0	1	3.58673977852	None	None	None	None	1
2.7	2015_May_07_1255	s	s	4	4	Capacity	22	ABS	1	0	08VC 16MC	0	1	3.54920601845	None	None	None	None	1
2.7	2015_May_07_1255	s	s	4	4	Capacity	23	RC	1	0	08VC 15MC	1	0	0.714730024338	-81.0	109.0	-79	98	1
2.7	2015_May_07_1255	s	s	4	4	Capacity	24	RC	2	0	15VC 08MC	1	0	0.823319196701	-192.0	-97.0	-188	-98	1
2.7	2015_May_07_1255	s	s	4	4	Capacity	25	RC	2	0	15VC 08MC	1	0	2.55110883713	387.0	-372.0	388	-384	1
2.7	2015_May_07_1255	s	s	4	4	Capacity	26	RC	1	0	08VC 15MC	1	0	0.936457872391	534.0	224.0	530	219	1
2.7	2015_May_07_1255	s	s	4	4	Capacity	27	ABS	2	0	16VC 08MC	0	1	2.41269207001	None	None	None	None	1
2.7	2015_May_07_1255	s	s	4	4	Capacity	28	ABS	1	0	08VC 16MC	0	1	3.19589304924	None	None	None	None	1
2.7	2015_May_07_1255	s	s	4	4	Capacity	29	RC	1	0	08VC 15MC	1	0	0.799776077271	182.0	-134.0	184	-133	1
2.7	2015_May_07_1255	s	s	4	4	Capacity	30	ABS	2	0	16VC 08MC	0	1	1.83117699623	None	None	None	None	1
2.7	2015_May_07_1255	s	s	4	4	Capacity	31	RC	2	0	15VC 08MC	1	0	0.737207889557	-294.0	-5.0	-289	2	1
2.7	2015_May_07_1255	s	s	4	4	Capacity	32	ABS	1	0	08VC 16MC	0	1	2.25377178192	None	None	None	None	1
2.7	2015_May_07_1255	s	s	4	4	Capacity	33	ABS	1	0	08VC 16MC	0	1	2.27779388428	None	None	None	None	1
2.7	2015_May_07_1255	s	s	4	4	Capacity	34	ABS	2	0	16VC 08MC	0	1	2.13667917252	None	None	None	None	1
2.7	2015_May_07_1255	s	s	4	4	Capacity	35	RC	1	0	08VC 15MC	1	0	2.07973980904	533.0	248.0	532	243	1
2.7	2015_May_07_1255	s	s	4	4	Capacity	36	RC	2	0	15VC 08MC	1	0	0.799627065659	-25.0	-123.0	-17	-123	1
2.7	2015_May_07_1255	s	s	4	4	Capacity	37	ABS	1	0	08VC 16MC	0	1	2.25447487831	None	None	None	None	1
2.7	2015_May_07_1255	s	s	4	4	Capacity	38	ABS	2	0	16VC 08MC	0	1	2.76545596123	None	None	None	None	1
2.7	2015_May_07_1255	s	s	4	4	Capacity	39	RC	2	0	15VC 08MC	1	0	0.889119148254	400.0	-152.0	399	-152	1
2.7	2015_May_07_1255	s	s	4	4	Capacity	40	RC	1	0	08VC 15MC	1	0	0.8703789711	504.0	-148.0	497	-148	1
2.7	2015_May_07_1255	s	s	4	4	Capacity	41	ABS	1	0	08VC 16MC	0	1	1.67769789696	None	None	None	None	1
2.7	2015_May_07_1255	s	s	4	4	Capacity	42	RC	1	0	08VC 15MC	1	0	1.27753686905	-364.0	129.0	-364	135	1
2.7	2015_May_07_1255	s	s	4	4	Capacity	43	ABS	2	0	16VC 08MC	0	1	2.30641198158	None	None	None	None	1
2.7	2015_May_07_1255	s	s	4	4	Capacity	44	RC	2	0	15VC 08MC	1	0	0.858623027802	-99.0	-221.0	-86	-218	1
2.7	2015_May_07_1255	s	s	4	4	Capacity	45	ABS	2	0	16VC 08MC	0	1	1.53630304337	None	None	None	None	1
2.7	2015_May_07_1255	s	s	4	4	Capacity	46	ABS	1	0	08VC 16MC	0	1	1.91471195221	None	None	None	None	1
2.7	2015_May_07_1255	s	s	4	4	Capacity	47	RC	2	0	15VC 08MC	1	0	0.912364006042	-91.0	373.0	-84	379	1
2.7	2015_May_07_1255	s	s	4	4	Capacity	48	RC	1	0	08VC 15MC	1	0	1.1530649662	-444.0	118.0	-443	108	1
2.7	2015_May_07_1255	s	s	4	4	Capacity	49	ABS	1	0	08VC 16MC	0	1	2.23578190804	None	None	None	None	1
2.7	2015_May_07_1255	s	s	4	4	Capacity	50	RC	2	0	15VC 08MC	1	0	0.831784963608	-436.0	260.0	-436	253	1
2.7	2015_May_07_1255	s	s	4	4	Capacity	51	RC	1	0	08VC 15MC	1	0	1.7362639904	87.0	-272.0	90	-275	1
2.7	2015_May_07_1255	s	s	4	4	Capacity	52	ABS	2	0	16VC 08MC	0	1	2.30090999603	None	None	None	None	1
2.7	2015_May_07_1255	s	s	4	4	Capacity	53	RC	1	0	08VC 15MC	1	0	1.94149804115	425.0	-97.0	427	-93	1
2.7	2015_May_07_1255	s	s	4	4	Capacity	54	ABS	2	0	16VC 08MC	0	1	2.3533949852	None	None	None	None	1
2.7	2015_May_07_1255	s	s	4	4	Capacity	55	ABS	1	0	08VC 16MC	1	0	1.28239202499	None	None	-422	-360	0
2.7	2015_May_07_1255	s	s	4	4	Capacity	56	RC	2	0	15VC 08MC	1	0	0.866077899933	233.0	155.0	237	156	1
2.7	2015_May_07_1255	s	s	4	4	Capacity	57	RC	1	0	08VC 15MC	1	0	0.764837026596	-198.0	-61.0	-204	-66	1
2.7	2015_May_07_1255	s	s	4	4	Capacity	58	RC	2	0	15VC 08MC	1	0	0.752748012543	73.0	-154.0	80	-156	1
2.7	2015_May_07_1255	s	s	4	4	Capacity	59	ABS	1	0	08VC 16MC	0	1	2.45941996574	None	None	None	None	1
2.7	2015_May_07_1255	s	s	4	4	Capacity	60	ABS	2	0	16VC 08MC	0	1	2.41232991219	None	None	None	None	1
2.7	2015_May_07_1255	s	s	4	4	Capacity	61	ABS	1	0	08VC 16MC	0	1	2.80925893784	None	None	None	None	1
2.7	2015_May_07_1255	s	s	4	4	Capacity	62	RC	2	0	15VC 08MC	1	0	0.729573011398	-79.0	195.0	-77	202	1
2.7	2015_May_07_1255	s	s	4	4	Capacity	63	ABS	2	0	16VC 08MC	0	1	2.12419199944	None	None	None	None	1
2.7	2015_May_07_1255	s	s	4	4	Capacity	64	RC	1	0	08VC 15MC	1	0	1.46578907967	482.0	98.0	478	99	1
2.7	2015_May_07_1255	s	s	4	4	Capacity	1	ABS	0	1	08RD 16RO	0	1	3.08999896049	None	None	None	None	1
2.7	2015_May_07_1255	s	s	4	4	Capacity	2	RC	0	2	15RD 08RO	1	0	0.997125864029	82.0	186.0	78	187	1
2.7	2015_May_07_1255	s	s	4	4	Capacity	3	RC	0	1	08RD 15RO	1	0	1.30100917816	-61.0	-129.0	-70	-125	1
2.7	2015_May_07_1255	s	s	4	4	Capacity	4	ABS	0	2	16RD 08RO	0	1	2.23051309586	None	None	None	None	1
2.7	2015_May_07_1255	s	s	4	4	Capacity	5	ABS	0	1	08RD 16RO	0	1	2.93025302887	None	None	None	None	1
2.7	2015_May_07_1255	s	s	4	4	Capacity	6	ABS	0	2	16RD 08RO	0	1	2.43097686768	None	None	None	None	1
2.7	2015_May_07_1255	s	s	4	4	Capacity	7	RC	0	1	08RD 15RO	1	0	0.747210979462	-198.0	-116.0	-195	-115	1
2.7	2015_May_07_1255	s	s	4	4	Capacity	8	RC	0	2	15RD 08RO	1	0	1.17652988434	147.0	-290.0	147	-291	1
2.7	2015_May_07_1255	s	s	4	4	Capacity	9	RC	0	2	15RD 08RO	1	0	0.717236995697	-61.0	-99.0	-61	-105	1
2.7	2015_May_07_1255	s	s	4	4	Capacity	10	ABS	0	2	16RD 08RO	0	1	2.96283316612	None	None	None	None	1
2.7	2015_May_07_1255	s	s	4	4	Capacity	11	RC	0	1	08RD 15RO	1	0	1.98347997665	256.0	209.0	258	215	1
2.7	2015_May_07_1255	s	s	4	4	Capacity	12	ABS	0	1	08RD 16RO	0	1	4.17794203758	None	None	None	None	1
2.7	2015_May_07_1255	s	s	4	4	Capacity	13	RC	0	2	15RD 08RO	1	0	1.01162099838	-238.0	85.0	-238	76	1
2.7	2015_May_07_1255	s	s	4	4	Capacity	14	ABS	0	2	16RD 08RO	0	1	3.12529706955	None	None	None	None	1
2.7	2015_May_07_1255	s	s	4	4	Capacity	15	ABS	0	1	08RD 16RO	0	1	3.24288797379	None	None	None	None	1
2.7	2015_May_07_1255	s	s	4	4	Capacity	16	RC	0	1	08RD 15RO	1	0	2.45942616463	-409.0	-226.0	-406	-232	1
2.7	2015_May_07_1255	s	s	4	4	Capacity	17	RC	0	2	15RD 08RO	1	0	0.98320889473	-164.0	-265.0	-157	-267	1
2.7	2015_May_07_1255	s	s	4	4	Capacity	18	ABS	0	1	08RD 16RO	0	1	3.11524009705	None	None	None	None	1
2.7	2015_May_07_1255	s	s	4	4	Capacity	19	ABS	0	2	16RD 08RO	0	1	2.02387499809	None	None	None	None	1
2.7	2015_May_07_1255	s	s	4	4	Capacity	20	RC	0	1	08RD 15RO	1	0	1.28233408928	-341.0	324.0	-328	330	1
2.7	2015_May_07_1255	s	s	4	4	Capacity	21	ABS	0	1	08RD 16RO	0	1	2.94731688499	None	None	None	None	1
2.7	2015_May_07_1255	s	s	4	4	Capacity	22	RC	0	1	08RD 15RO	1	0	1.89173603058	539.0	-301.0	544	-307	1
2.7	2015_May_07_1255	s	s	4	4	Capacity	23	ABS	0	2	16RD 08RO	0	1	2.25116491318	None	None	None	None	1
2.7	2015_May_07_1255	s	s	4	4	Capacity	24	RC	0	2	15RD 08RO	1	0	2.7487680912	490.0	-207.0	498	-199	1
2.7	2015_May_07_1255	s	s	4	4	Capacity	25	ABS	0	2	16RD 08RO	0	1	2.30641794205	None	None	None	None	1
2.7	2015_May_07_1255	s	s	4	4	Capacity	26	RC	0	1	08RD 15RO	1	0	0.559679031372	-127.0	-184.0	-127	-186	1
2.7	2015_May_07_1255	s	s	4	4	Capacity	27	RC	0	2	15RD 08RO	1	0	0.982870817184	-75.0	-364.0	-68	-363	1
2.7	2015_May_07_1255	s	s	4	4	Capacity	28	ABS	0	1	08RD 16RO	0	1	3.27150797844	None	None	None	None	1
2.7	2015_May_07_1255	s	s	4	4	Capacity	29	ABS	0	1	08RD 16RO	0	1	2.98388791084	None	None	None	None	1
2.7	2015_May_07_1255	s	s	4	4	Capacity	30	RC	0	2	15RD 08RO	1	0	1.1058280468	-81.0	197.0	-72	204	1
2.7	2015_May_07_1255	s	s	4	4	Capacity	31	RC	0	1	08RD 15RO	1	0	1.21177887917	72.0	-282.0	74	-287	1
2.7	2015_May_07_1255	s	s	4	4	Capacity	32	ABS	0	2	16RD 08RO	0	1	1.83304286003	None	None	None	None	1
2.7	2015_May_07_1255	s	s	4	4	Capacity	33	ABS	0	1	08RD 16RO	0	1	4.47252702713	None	None	None	None	1
2.7	2015_May_07_1255	s	s	4	4	Capacity	34	ABS	0	2	16RD 08RO	0	1	2.0077650547	None	None	None	None	1
2.7	2015_May_07_1255	s	s	4	4	Capacity	35	RC	0	1	08RD 15RO	1	0	2.57712101936	370.0	-123.0	377	-123	1
2.7	2015_May_07_1255	s	s	4	4	Capacity	36	RC	0	2	15RD 08RO	1	0	0.864547014236	395.0	-150.0	397	-148	1
2.7	2015_May_07_1255	s	s	4	4	Capacity	37	ABS	0	1	08RD 16RO	0	1	3.60120892525	None	None	None	None	1
2.7	2015_May_07_1255	s	s	4	4	Capacity	38	RC	0	2	15RD 08RO	1	0	2.6192510128	345.0	-248.0	339	-252	1
2.7	2015_May_07_1255	s	s	4	4	Capacity	39	ABS	0	2	16RD 08RO	0	1	2.73753213882	None	None	None	None	1
2.7	2015_May_07_1255	s	s	4	4	Capacity	40	RC	0	1	08RD 15RO	1	0	2.96551799774	299.0	-192.0	294	-199	1
2.7	2015_May_07_1255	s	s	4	4	Capacity	41	ABS	0	2	16RD 08RO	0	1	2.56203794479	None	None	None	None	1
2.7	2015_May_07_1255	s	s	4	4	Capacity	42	ABS	0	1	08RD 16RO	0	1	3.00759911537	None	None	None	None	1
2.7	2015_May_07_1255	s	s	4	4	Capacity	43	RC	0	2	15RD 08RO	1	0	1.25376796722	154.0	-384.0	159	-386	1
2.7	2015_May_07_1255	s	s	4	4	Capacity	44	RC	0	1	08RD 15RO	1	0	0.532725095749	41.0	-7.0	54	-4	1
2.7	2015_May_07_1255	s	s	4	4	Capacity	45	ABS	0	1	08RD 16RO	0	1	3.15371704102	None	None	None	None	1
2.7	2015_May_07_1255	s	s	4	4	Capacity	46	ABS	0	2	16RD 08RO	0	1	2.48926901817	None	None	None	None	1
2.7	2015_May_07_1255	s	s	4	4	Capacity	47	RC	0	2	15RD 08RO	1	0	1.86633014679	-407.0	339.0	-408	347	1
2.7	2015_May_07_1255	s	s	4	4	Capacity	48	RC	0	1	08RD 15RO	1	0	2.22404980659	444.0	342.0	445	340	1
2.7	2015_May_07_1255	s	s	4	4	Capacity	49	ABS	0	1	08RD 16RO	0	1	4.5074801445	None	None	None	None	1
2.7	2015_May_07_1255	s	s	4	4	Capacity	50	RC	0	2	15RD 08RO	1	0	1.6237449646	207.0	-207.0	203	-214	1
2.7	2015_May_07_1255	s	s	4	4	Capacity	51	RC	0	1	08RD 15RO	1	0	3.18352198601	-526.0	-357.0	-534	-362	1
2.7	2015_May_07_1255	s	s	4	4	Capacity	52	ABS	0	2	16RD 08RO	0	1	1.92385792732	None	None	None	None	1
2.7	2015_May_07_1255	s	s	4	4	Capacity	53	ABS	0	1	08RD 16RO	0	1	3.15383601189	None	None	None	None	1
2.7	2015_May_07_1255	s	s	4	4	Capacity	54	RC	0	2	15RD 08RO	1	0	2.58368492126	-357.0	3.0	-353	4	1
2.7	2015_May_07_1255	s	s	4	4	Capacity	55	RC	0	1	08RD 15RO	1	0	2.80731511116	-367.0	163.0	-358	161	1
2.7	2015_May_07_1255	s	s	4	4	Capacity	56	ABS	0	2	16RD 08RO	0	1	3.01259994507	None	None	None	None	1
2.7	2015_May_07_1255	s	s	4	4	Capacity	57	RC	0	2	15RD 08RO	1	0	1.46605491638	220.0	280.0	232	283	1
2.7	2015_May_07_1255	s	s	4	4	Capacity	58	ABS	0	2	16RD 08RO	0	1	2.6477599144	None	None	None	None	1
2.7	2015_May_07_1255	s	s	4	4	Capacity	59	RC	0	1	08RD 15RO	1	0	0.917531013489	-199.0	61.0	-198	55	1
2.7	2015_May_07_1255	s	s	4	4	Capacity	60	ABS	0	1	08RD 16RO	0	1	3.7609398365	None	None	None	None	1
2.7	2015_May_07_1255	s	s	4	4	Capacity	61	ABS	0	1	08RD 16RO	0	1	3.23625683784	None	None	None	None	1
2.7	2015_May_07_1255	s	s	4	4	Capacity	62	RC	0	1	08RD 15RO	1	0	1.65903902054	-102.0	-402.0	-97	-402	1
2.7	2015_May_07_1255	s	s	4	4	Capacity	63	ABS	0	2	16RD 08RO	0	1	2.25453805923	None	None	None	None	1
2.7	2015_May_07_1255	s	s	4	4	Capacity	64	RC	0	2	15RD 08RO	1	0	2.45581912994	361.0	23.0	356	16	1
2.7	2015_May_07_1255	s	s	4	4	SIC	1	ABS	0	1	02VD 02VO 02VC 02MD 02MO 02MC 02RD 10RO	0	1	3.70204901695	None	None	None	None	1
2.7	2015_May_07_1255	s	s	4	4	SIC	2	RC	2	2	09VD 02VO 02VC 02MD 02MO 02MC 02RD 02RO	1	0	1.4000749588	-200.0	303.0	-204	305	1
2.7	2015_May_07_1255	s	s	4	4	SIC	3	RC	0	2	02VD 02VO 02VC 02MD 02MO 02MC 09RD 02RO	1	0	0.576229095459	-145.0	24.0	-150	25	1
2.7	2015_May_07_1255	s	s	4	4	SIC	4	RC	1	2	02VD 02VO 02VC 09MD 02MO 02MC 02RD 02RO	1	0	1.10046315193	308.0	-336.0	311	-344	1
2.7	2015_May_07_1255	s	s	4	4	SIC	5	ABS	2	0	02VD 02VO 10VC 02MD 02MO 02MC 02RD 02RO	0	1	1.47078800201	None	None	None	None	1
2.7	2015_May_07_1255	s	s	4	4	SIC	6	ABS	2	1	02VD 10VO 02VC 02MD 02MO 02MC 02RD 02RO	0	1	2.10038590431	None	None	None	None	1
2.7	2015_May_07_1255	s	s	4	4	SIC	7	ABS	1	2	02VD 02VO 02VC 10MD 02MO 02MC 02RD 02RO	0	1	2.46639108658	None	None	None	None	1
2.7	2015_May_07_1255	s	s	4	4	SIC	8	RC	1	0	02VD 02VO 02VC 02MD 02MO 09MC 02RD 02RO	1	0	1.80022192001	306.0	170.0	305	169	1
2.7	2015_May_07_1255	s	s	4	4	SIC	9	RC	0	1	02VD 02VO 02VC 02MD 02MO 02MC 02RD 09RO	0	1	2.97171211243	-79.0	-409.0	None	None	0
2.7	2015_May_07_1255	s	s	4	4	SIC	10	RC	1	1	02VD 02VO 02VC 02MD 09MO 02MC 02RD 02RO	1	0	0.994244098663	-348.0	26.0	-352	18	1
2.7	2015_May_07_1255	s	s	4	4	SIC	11	ABS	2	2	10VD 02VO 02VC 02MD 02MO 02MC 02RD 02RO	0	1	1.67070698738	None	None	None	None	1
2.7	2015_May_07_1255	s	s	4	4	SIC	12	ABS	0	2	02VD 02VO 02VC 02MD 02MO 02MC 10RD 02RO	0	1	1.95696902275	None	None	None	None	1
2.7	2015_May_07_1255	s	s	4	4	SIC	13	ABS	1	0	02VD 02VO 02VC 02MD 02MO 10MC 02RD 02RO	0	1	2.08278393745	None	None	None	None	1
2.7	2015_May_07_1255	s	s	4	4	SIC	14	ABS	1	1	02VD 02VO 02VC 02MD 10MO 02MC 02RD 02RO	0	1	1.89440011978	None	None	None	None	1
2.7	2015_May_07_1255	s	s	4	4	SIC	15	RC	2	0	02VD 02VO 09VC 02MD 02MO 02MC 02RD 02RO	1	0	0.811459064484	-188.0	100.0	-187	96	1
2.7	2015_May_07_1255	s	s	4	4	SIC	16	RC	2	1	02VD 09VO 02VC 02MD 02MO 02MC 02RD 02RO	1	0	0.905705928802	227.0	331.0	230	322	1
2.7	2015_May_07_1255	s	s	4	4	SIC	17	RC	0	2	02VD 02VO 02VC 02MD 02MO 02MC 09RD 02RO	0	1	2.01240897179	-401.0	-363.0	None	None	0
2.7	2015_May_07_1255	s	s	4	4	SIC	18	ABS	1	0	02VD 02VO 02VC 02MD 02MO 10MC 02RD 02RO	0	1	2.31305718422	None	None	None	None	1
2.7	2015_May_07_1255	s	s	4	4	SIC	19	RC	0	1	02VD 02VO 02VC 02MD 02MO 02MC 02RD 09RO	1	0	2.08260202408	403.0	162.0	398	160	1
2.7	2015_May_07_1255	s	s	4	4	SIC	20	RC	2	2	09VD 02VO 02VC 02MD 02MO 02MC 02RD 02RO	1	0	0.540750026703	42.0	-79.0	47	-80	1
2.7	2015_May_07_1255	s	s	4	4	SIC	21	RC	1	0	02VD 02VO 02VC 02MD 02MO 09MC 02RD 02RO	1	0	1.16462802887	-394.0	134.0	-399	133	1
2.7	2015_May_07_1255	s	s	4	4	SIC	22	ABS	1	1	02VD 02VO 02VC 02MD 10MO 02MC 02RD 02RO	0	1	1.91305017471	None	None	None	None	1
2.7	2015_May_07_1255	s	s	4	4	SIC	23	ABS	2	0	02VD 02VO 10VC 02MD 02MO 02MC 02RD 02RO	0	1	1.67074084282	None	None	None	None	1
2.7	2015_May_07_1255	s	s	4	4	SIC	24	ABS	0	1	02VD 02VO 02VC 02MD 02MO 02MC 02RD 10RO	0	1	3.94246792793	None	None	None	None	1
2.7	2015_May_07_1255	s	s	4	4	SIC	25	ABS	2	2	10VD 02VO 02VC 02MD 02MO 02MC 02RD 02RO	0	1	2.34167599678	None	None	None	None	1
2.7	2015_May_07_1255	s	s	4	4	SIC	26	RC	2	1	02VD 09VO 02VC 02MD 02MO 02MC 02RD 02RO	1	0	1.03064393997	-201.0	332.0	-200	338	1
2.7	2015_May_07_1255	s	s	4	4	SIC	27	ABS	2	1	02VD 10VO 02VC 02MD 02MO 02MC 02RD 02RO	0	1	2.30639982224	None	None	None	None	1
2.7	2015_May_07_1255	s	s	4	4	SIC	28	ABS	1	2	02VD 02VO 02VC 10MD 02MO 02MC 02RD 02RO	0	1	1.7734131813	None	None	None	None	1
2.7	2015_May_07_1255	s	s	4	4	SIC	29	RC	1	1	02VD 02VO 02VC 02MD 09MO 02MC 02RD 02RO	1	0	0.846793174744	176.0	168.0	171	171	1
2.7	2015_May_07_1255	s	s	4	4	SIC	30	RC	1	2	02VD 02VO 02VC 09MD 02MO 02MC 02RD 02RO	1	0	1.6119799614	208.0	-298.0	213	-299	1
2.7	2015_May_07_1255	s	s	4	4	SIC	31	ABS	0	2	02VD 02VO 02VC 02MD 02MO 02MC 10RD 02RO	0	1	2.20719313622	None	None	None	None	1
2.7	2015_May_07_1255	s	s	4	4	SIC	32	RC	2	0	02VD 02VO 09VC 02MD 02MO 02MC 02RD 02RO	1	0	0.712656021118	-87.0	-4.0	-84	5	1
2.7	2015_May_07_1255	s	s	4	4	SIC	33	RC	2	0	02VD 02VO 09VC 02MD 02MO 02MC 02RD 02RO	1	0	1.43543100357	-25.0	-367.0	-22	-375	1
2.7	2015_May_07_1255	s	s	4	4	SIC	34	ABS	1	2	02VD 02VO 02VC 10MD 02MO 02MC 02RD 02RO	0	1	2.00892591476	None	None	None	None	1
2.7	2015_May_07_1255	s	s	4	4	SIC	35	RC	0	1	02VD 02VO 02VC 02MD 02MO 02MC 02RD 09RO	1	0	2.84779119492	-249.0	-396.0	-248	-396	1
2.7	2015_May_07_1255	s	s	4	4	SIC	36	ABS	2	1	02VD 10VO 02VC 02MD 02MO 02MC 02RD 02RO	0	1	1.75063896179	None	None	None	None	1
2.7	2015_May_07_1255	s	s	4	4	SIC	37	RC	2	2	09VD 02VO 02VC 02MD 02MO 02MC 02RD 02RO	1	0	1.65889000893	-357.0	-409.0	-354	-404	1
2.7	2015_May_07_1255	s	s	4	4	SIC	38	ABS	1	1	02VD 02VO 02VC 02MD 10MO 02MC 02RD 02RO	0	1	2.83599901199	None	None	None	None	1
2.7	2015_May_07_1255	s	s	4	4	SIC	39	ABS	2	0	02VD 02VO 10VC 02MD 02MO 02MC 02RD 02RO	0	1	2.28953814507	None	None	None	None	1
2.7	2015_May_07_1255	s	s	4	4	SIC	40	RC	1	1	02VD 02VO 02VC 02MD 09MO 02MC 02RD 02RO	1	0	2.91845107079	-307.0	380.0	-301	384	1
2.7	2015_May_07_1255	s	s	4	4	SIC	41	RC	2	1	02VD 09VO 02VC 02MD 02MO 02MC 02RD 02RO	1	0	0.853731870651	179.0	395.0	176	384	1
2.7	2015_May_07_1255	s	s	4	4	SIC	42	RC	1	0	02VD 02VO 02VC 02MD 02MO 09MC 02RD 02RO	1	0	1.14786195755	426.0	-236.0	422	-232	1
2.7	2015_May_07_1255	s	s	4	4	SIC	43	ABS	2	2	10VD 02VO 02VC 02MD 02MO 02MC 02RD 02RO	0	1	2.34858393669	None	None	None	None	1
2.7	2015_May_07_1255	s	s	4	4	SIC	44	RC	0	2	02VD 02VO 02VC 02MD 02MO 02MC 09RD 02RO	1	0	0.983030080795	-437.0	-52.0	-432	-56	1
2.7	2015_May_07_1255	s	s	4	4	SIC	45	ABS	1	0	02VD 02VO 02VC 02MD 02MO 10MC 02RD 02RO	0	1	1.85911178589	None	None	None	None	1
2.7	2015_May_07_1255	s	s	4	4	SIC	46	ABS	0	1	02VD 02VO 02VC 02MD 02MO 02MC 02RD 10RO	0	1	3.37424898148	None	None	None	None	1
2.7	2015_May_07_1255	s	s	4	4	SIC	47	RC	1	2	02VD 02VO 02VC 09MD 02MO 02MC 02RD 02RO	1	0	1.40629792213	300.0	375.0	311	377	1
2.7	2015_May_07_1255	s	s	4	4	SIC	48	ABS	0	2	02VD 02VO 02VC 02MD 02MO 02MC 10RD 02RO	0	1	2.06546998024	None	None	None	None	1
2.7	2015_May_07_1255	s	s	4	4	SIC	49	ABS	2	0	02VD 02VO 10VC 02MD 02MO 02MC 02RD 02RO	0	1	1.90120482445	None	None	None	None	1
2.7	2015_May_07_1255	s	s	4	4	SIC	50	ABS	2	1	02VD 10VO 02VC 02MD 02MO 02MC 02RD 02RO	0	1	1.86832809448	None	None	None	None	1
2.7	2015_May_07_1255	s	s	4	4	SIC	51	RC	1	1	02VD 02VO 02VC 02MD 09MO 02MC 02RD 02RO	1	0	0.782986879349	-294.0	-289.0	-301	-283	1
2.7	2015_May_07_1255	s	s	4	4	SIC	52	RC	2	1	02VD 09VO 02VC 02MD 02MO 02MC 02RD 02RO	1	0	1.49418902397	-66.0	-292.0	-67	-294	1
2.7	2015_May_07_1255	s	s	4	4	SIC	53	RC	0	2	02VD 02VO 02VC 02MD 02MO 02MC 09RD 02RO	1	0	0.717319965363	-224.0	-135.0	-229	-127	1
2.7	2015_May_07_1255	s	s	4	4	SIC	54	ABS	0	1	02VD 02VO 02VC 02MD 02MO 02MC 02RD 10RO	0	1	3.16565108299	None	None	None	None	1
2.7	2015_May_07_1255	s	s	4	4	SIC	55	RC	0	1	02VD 02VO 02VC 02MD 02MO 02MC 02RD 09RO	1	0	1.33558511734	-174.0	-389.0	-173	-390	1
2.7	2015_May_07_1255	s	s	4	4	SIC	56	RC	2	2	09VD 02VO 02VC 02MD 02MO 02MC 02RD 02RO	1	0	1.91060781479	298.0	121.0	299	127	1
2.7	2015_May_07_1255	s	s	4	4	SIC	57	ABS	2	2	10VD 02VO 02VC 02MD 02MO 02MC 02RD 02RO	0	1	2.58390283585	None	None	None	None	1
2.7	2015_May_07_1255	s	s	4	4	SIC	58	RC	1	2	02VD 02VO 02VC 09MD 02MO 02MC 02RD 02RO	1	0	1.3060669899	465.0	-297.0	467	-294	1
2.7	2015_May_07_1255	s	s	4	4	SIC	59	RC	2	0	02VD 02VO 09VC 02MD 02MO 02MC 02RD 02RO	1	0	0.717322826385	259.0	-60.0	266	-61	1
2.7	2015_May_07_1255	s	s	4	4	SIC	60	ABS	1	2	02VD 02VO 02VC 10MD 02MO 02MC 02RD 02RO	0	1	2.11454582214	None	None	None	None	1
2.7	2015_May_07_1255	s	s	4	4	SIC	61	ABS	1	0	02VD 02VO 02VC 02MD 02MO 10MC 02RD 02RO	0	1	1.89441800117	None	None	None	None	1
2.7	2015_May_07_1255	s	s	4	4	SIC	62	ABS	0	2	02VD 02VO 02VC 02MD 02MO 02MC 10RD 02RO	0	1	1.95377492905	None	None	None	None	1
2.7	2015_May_07_1255	s	s	4	4	SIC	63	RC	1	0	02VD 02VO 02VC 02MD 02MO 09MC 02RD 02RO	1	0	1.43045091629	-406.0	225.0	-415	230	1
2.7	2015_May_07_1255	s	s	4	4	SIC	64	ABS	1	1	02VD 02VO 02VC 02MD 10MO 02MC 02RD 02RO	0	1	1.94152116776	None	None	None	None	1
2.7	2015_May_07_1255	s	s	4	4	SIC	65	ABS	2	0	02VD 02VO 10VC 02MD 02MO 02MC 02RD 02RO	0	1	1.78854298592	None	None	None	None	1
2.7	2015_May_07_1255	s	s	4	4	SIC	66	ABS	1	1	02VD 02VO 02VC 02MD 10MO 02MC 02RD 02RO	0	1	1.78593492508	None	None	None	None	1
2.7	2015_May_07_1255	s	s	4	4	SIC	67	RC	0	2	02VD 02VO 02VC 02MD 02MO 02MC 09RD 02RO	1	0	0.769536972046	-364.0	-259.0	-357	-256	1
2.7	2015_May_07_1255	s	s	4	4	SIC	68	ABS	2	2	10VD 02VO 02VC 02MD 02MO 02MC 02RD 02RO	0	1	1.83067893982	None	None	None	None	1
2.7	2015_May_07_1255	s	s	4	4	SIC	69	RC	1	1	02VD 02VO 02VC 02MD 09MO 02MC 02RD 02RO	1	0	0.925936937332	-139.0	-80.0	-135	-82	1
2.7	2015_May_07_1255	s	s	4	4	SIC	70	ABS	0	1	02VD 02VO 02VC 02MD 02MO 02MC 02RD 10RO	0	1	3.5021212101	None	None	None	None	1
2.7	2015_May_07_1255	s	s	4	4	SIC	71	ABS	2	1	02VD 10VO 02VC 02MD 02MO 02MC 02RD 02RO	0	1	1.92567610741	None	None	None	None	1
2.7	2015_May_07_1255	s	s	4	4	SIC	72	RC	1	0	02VD 02VO 02VC 02MD 02MO 09MC 02RD 02RO	1	0	1.61190700531	-518.0	-314.0	-514	-309	1
2.7	2015_May_07_1255	s	s	4	4	SIC	73	RC	2	1	02VD 09VO 02VC 02MD 02MO 02MC 02RD 02RO	1	0	1.05541300774	-18.0	385.0	-22	379	1
2.7	2015_May_07_1255	s	s	4	4	SIC	74	RC	2	0	02VD 02VO 09VC 02MD 02MO 02MC 02RD 02RO	1	0	0.806582927704	177.0	-134.0	176	-143	1
2.7	2015_May_07_1255	s	s	4	4	SIC	75	RC	2	2	09VD 02VO 02VC 02MD 02MO 02MC 02RD 02RO	1	0	2.23119401932	-440.0	157.0	-432	159	1
2.7	2015_May_07_1255	s	s	4	4	SIC	76	RC	0	1	02VD 02VO 02VC 02MD 02MO 02MC 02RD 09RO	1	0	1.85906791687	-501.0	-375.0	-499	-378	1
2.7	2015_May_07_1255	s	s	4	4	SIC	77	ABS	1	0	02VD 02VO 02VC 02MD 02MO 10MC 02RD 02RO	0	1	2.58560609818	None	None	None	None	1
2.7	2015_May_07_1255	s	s	4	4	SIC	78	ABS	0	2	02VD 02VO 02VC 02MD 02MO 02MC 10RD 02RO	0	1	2.03565692902	None	None	None	None	1
2.7	2015_May_07_1255	s	s	4	4	SIC	79	RC	1	2	02VD 02VO 02VC 09MD 02MO 02MC 02RD 02RO	1	0	1.72430586815	446.0	113.0	457	117	1
2.7	2015_May_07_1255	s	s	4	4	SIC	80	ABS	1	2	02VD 02VO 02VC 10MD 02MO 02MC 02RD 02RO	0	1	1.83058595657	None	None	None	None	1
2.7	2015_May_07_1255	s	s	4	4	SIC	81	RC	1	2	02VD 02VO 02VC 09MD 02MO 02MC 02RD 02RO	1	0	0.712583065033	-163.0	59.0	-172	63	1
2.7	2015_May_07_1255	s	s	4	4	SIC	82	ABS	2	1	02VD 10VO 02VC 02MD 02MO 02MC 02RD 02RO	0	1	1.94788813591	None	None	None	None	1
2.7	2015_May_07_1255	s	s	4	4	SIC	83	ABS	1	2	02VD 02VO 02VC 10MD 02MO 02MC 02RD 02RO	0	1	2.25936412811	None	None	None	None	1
2.7	2015_May_07_1255	s	s	4	4	SIC	84	RC	1	0	02VD 02VO 02VC 02MD 02MO 09MC 02RD 02RO	1	0	1.61192893982	471.0	-363.0	477	-367	1
2.7	2015_May_07_1255	s	s	4	4	SIC	85	RC	2	0	02VD 02VO 09VC 02MD 02MO 02MC 02RD 02RO	1	0	1.15291714668	384.0	178.0	392	176	1
2.7	2015_May_07_1255	s	s	4	4	SIC	86	ABS	0	1	02VD 02VO 02VC 02MD 02MO 02MC 02RD 10RO	0	1	3.77249693871	None	None	None	None	1
2.7	2015_May_07_1255	s	s	4	4	SIC	87	ABS	2	2	10VD 02VO 02VC 02MD 02MO 02MC 02RD 02RO	0	1	1.71784901619	None	None	None	None	1
2.7	2015_May_07_1255	s	s	4	4	SIC	88	RC	0	1	02VD 02VO 02VC 02MD 02MO 02MC 02RD 09RO	1	0	1.76173114777	-122.0	358.0	-125	360	1
2.7	2015_May_07_1255	s	s	4	4	SIC	89	RC	1	1	02VD 02VO 02VC 02MD 09MO 02MC 02RD 02RO	1	0	1.33609485626	-118.0	215.0	-126	210	1
2.7	2015_May_07_1255	s	s	4	4	SIC	90	ABS	1	1	02VD 02VO 02VC 02MD 10MO 02MC 02RD 02RO	0	1	2.01581692696	None	None	None	None	1
2.7	2015_May_07_1255	s	s	4	4	SIC	91	ABS	1	0	02VD 02VO 02VC 02MD 02MO 10MC 02RD 02RO	0	1	2.3888130188	None	None	None	None	1
2.7	2015_May_07_1255	s	s	4	4	SIC	92	ABS	0	2	02VD 02VO 02VC 02MD 02MO 02MC 10RD 02RO	0	1	2.30644917488	None	None	None	None	1
2.7	2015_May_07_1255	s	s	4	4	SIC	93	RC	2	2	09VD 02VO 02VC 02MD 02MO 02MC 02RD 02RO	1	0	0.874072790146	390.0	-369.0	390	-369	1
2.7	2015_May_07_1255	s	s	4	4	SIC	94	RC	0	2	02VD 02VO 02VC 02MD 02MO 02MC 09RD 02RO	1	0	1.69433307648	503.0	243.0	500	238	1
2.7	2015_May_07_1255	s	s	4	4	SIC	95	ABS	2	0	02VD 02VO 10VC 02MD 02MO 02MC 02RD 02RO	0	1	2.61922979355	None	None	None	None	1
2.7	2015_May_07_1255	s	s	4	4	SIC	96	RC	2	1	02VD 09VO 02VC 02MD 02MO 02MC 02RD 02RO	1	0	0.564371109009	-16.0	-43.0	-8	-47	1
2.7	2015_May_07_1255	s	s	4	4	SIC	97	ABS	2	1	02VD 10VO 02VC 02MD 02MO 02MC 02RD 02RO	0	1	1.59750294685	None	None	None	None	1
2.7	2015_May_07_1255	s	s	4	4	SIC	98	RC	0	2	02VD 02VO 02VC 02MD 02MO 02MC 09RD 02RO	1	0	2.27107405663	446.0	-28.0	445	-24	1
2.7	2015_May_07_1255	s	s	4	4	SIC	99	ABS	1	2	02VD 02VO 02VC 10MD 02MO 02MC 02RD 02RO	0	1	1.61872410774	None	None	None	None	1
2.7	2015_May_07_1255	s	s	4	4	SIC	100	RC	2	2	09VD 02VO 02VC 02MD 02MO 02MC 02RD 02RO	1	0	2.19538497925	-425.0	173.0	-441	181	1
2.7	2015_May_07_1255	s	s	4	4	SIC	101	RC	2	1	02VD 09VO 02VC 02MD 02MO 02MC 02RD 02RO	1	0	0.912391901016	436.0	61.0	427	63	1
2.7	2015_May_07_1255	s	s	4	4	SIC	102	RC	2	0	02VD 02VO 09VC 02MD 02MO 02MC 02RD 02RO	1	0	0.783127784729	-169.0	52.0	-164	46	1
2.7	2015_May_07_1255	s	s	4	4	SIC	103	RC	1	0	02VD 02VO 02VC 02MD 02MO 09MC 02RD 02RO	1	0	1.0554599762	83.0	-152.0	90	-151	1
2.7	2015_May_07_1255	s	s	4	4	SIC	104	ABS	1	0	02VD 02VO 02VC 02MD 02MO 10MC 02RD 02RO	0	1	2.64534115791	None	None	None	None	1
2.7	2015_May_07_1255	s	s	4	4	SIC	105	ABS	0	2	02VD 02VO 02VC 02MD 02MO 02MC 10RD 02RO	0	1	2.13799309731	None	None	None	None	1
2.7	2015_May_07_1255	s	s	4	4	SIC	106	ABS	2	2	10VD 02VO 02VC 02MD 02MO 02MC 02RD 02RO	0	1	2.62417602539	None	None	None	None	1
2.7	2015_May_07_1255	s	s	4	4	SIC	107	RC	0	1	02VD 02VO 02VC 02MD 02MO 02MC 02RD 09RO	1	0	1.95415210724	-357.0	-93.0	-353	-99	1
2.7	2015_May_07_1255	s	s	4	4	SIC	108	RC	1	2	02VD 02VO 02VC 09MD 02MO 02MC 02RD 02RO	1	0	0.783575057983	158.0	-213.0	161	-206	1
2.7	2015_May_07_1255	s	s	4	4	SIC	109	ABS	2	0	02VD 02VO 10VC 02MD 02MO 02MC 02RD 02RO	0	1	1.80683898926	None	None	None	None	1
2.7	2015_May_07_1255	s	s	4	4	SIC	110	ABS	0	1	02VD 02VO 02VC 02MD 02MO 02MC 02RD 10RO	0	1	2.5609369278	None	None	None	None	1
2.7	2015_May_07_1255	s	s	4	4	SIC	111	ABS	1	1	02VD 02VO 02VC 02MD 10MO 02MC 02RD 02RO	0	1	0.665491104126	None	None	None	None	1
2.7	2015_May_07_1255	s	s	4	4	SIC	112	RC	1	1	02VD 02VO 02VC 02MD 09MO 02MC 02RD 02RO	1	0	1.01166200638	312.0	410.0	317	408	1
2.7	2015_May_07_1255	s	s	4	4	SIC	113	RC	1	2	02VD 02VO 02VC 09MD 02MO 02MC 02RD 02RO	0	1	1.01770615578	357.0	-332.0	None	None	0
2.7	2015_May_07_1255	s	s	4	4	SIC	114	RC	2	0	02VD 02VO 09VC 02MD 02MO 02MC 02RD 02RO	1	0	1.17643690109	105.0	310.0	107	316	1
2.7	2015_May_07_1255	s	s	4	4	SIC	115	ABS	0	1	02VD 02VO 02VC 02MD 02MO 02MC 02RD 10RO	0	1	3.39591789246	None	None	None	None	1
2.7	2015_May_07_1255	s	s	4	4	SIC	116	ABS	0	2	02VD 02VO 02VC 02MD 02MO 02MC 10RD 02RO	0	1	1.70607495308	None	None	None	None	1
2.7	2015_May_07_1255	s	s	4	4	SIC	117	RC	1	0	02VD 02VO 02VC 02MD 02MO 09MC 02RD 02RO	1	0	1.70609593391	-156.0	335.0	-163	341	1
2.7	2015_May_07_1255	s	s	4	4	SIC	118	RC	2	1	02VD 09VO 02VC 02MD 02MO 02MC 02RD 02RO	1	0	1.01860809326	-54.0	197.0	-55	203	1
2.7	2015_May_07_1255	s	s	4	4	SIC	119	ABS	2	2	10VD 02VO 02VC 02MD 02MO 02MC 02RD 02RO	0	1	2.12500405312	None	None	None	None	1
2.7	2015_May_07_1255	s	s	4	4	SIC	120	RC	1	1	02VD 02VO 02VC 02MD 09MO 02MC 02RD 02RO	1	0	0.9879591465	296.0	-112.0	301	-117	1
2.7	2015_May_07_1255	s	s	4	4	SIC	121	RC	0	2	02VD 02VO 02VC 02MD 02MO 02MC 09RD 02RO	1	0	1.2327568531	246.0	221.0	248	225	1
2.7	2015_May_07_1255	s	s	4	4	SIC	122	ABS	1	0	02VD 02VO 02VC 02MD 02MO 10MC 02RD 02RO	0	1	2.59817886353	None	None	None	None	1
2.7	2015_May_07_1255	s	s	4	4	SIC	123	RC	2	2	09VD 02VO 02VC 02MD 02MO 02MC 02RD 02RO	1	0	0.995409011841	75.0	261.0	76	270	1
2.7	2015_May_07_1255	s	s	4	4	SIC	124	ABS	2	1	02VD 10VO 02VC 02MD 02MO 02MC 02RD 02RO	0	1	1.89440202713	None	None	None	None	1
2.7	2015_May_07_1255	s	s	4	4	SIC	125	RC	0	1	02VD 02VO 02VC 02MD 02MO 02MC 02RD 09RO	1	0	1.46578812599	406.0	-399.0	396	-398	1
2.7	2015_May_07_1255	s	s	4	4	SIC	126	ABS	2	0	02VD 02VO 10VC 02MD 02MO 02MC 02RD 02RO	0	1	1.74140787125	None	None	None	None	1
2.7	2015_May_07_1255	s	s	4	4	SIC	127	ABS	1	2	02VD 02VO 02VC 10MD 02MO 02MC 02RD 02RO	0	1	1.82380008698	None	None	None	None	1
2.7	2015_May_07_1255	s	s	4	4	SIC	128	ABS	1	1	02VD 02VO 02VC 02MD 10MO 02MC 02RD 02RO	0	1	1.9599339962	None	None	None	None	1
2.7	2015_May_07_1255	s	s	4	4	SIC	129	RC	2	0	02VD 02VO 09VC 02MD 02MO 02MC 02RD 02RO	1	0	1.48929619789	-432.0	-342.0	-431	-346	1
2.7	2015_May_07_1255	s	s	4	4	SIC	130	RC	0	2	02VD 02VO 02VC 02MD 02MO 02MC 09RD 02RO	1	0	1.45877695084	81.0	220.0	85	220	1
2.7	2015_May_07_1255	s	s	4	4	SIC	131	ABS	0	1	02VD 02VO 02VC 02MD 02MO 02MC 02RD 10RO	0	1	3.31346297264	None	None	None	None	1
2.7	2015_May_07_1255	s	s	4	4	SIC	132	RC	1	2	02VD 02VO 02VC 09MD 02MO 02MC 02RD 02RO	1	0	0.901122093201	231.0	-338.0	238	-343	1
2.7	2015_May_07_1255	s	s	4	4	SIC	133	RC	0	1	02VD 02VO 02VC 02MD 02MO 02MC 02RD 09RO	1	0	2.88321113586	-210.0	-39.0	-202	-38	1
2.7	2015_May_07_1255	s	s	4	4	SIC	134	ABS	1	2	02VD 02VO 02VC 10MD 02MO 02MC 02RD 02RO	0	1	1.7885260582	None	None	None	None	1
2.7	2015_May_07_1255	s	s	4	4	SIC	135	ABS	2	1	02VD 10VO 02VC 02MD 02MO 02MC 02RD 02RO	0	1	1.6355099678	None	None	None	None	1
2.7	2015_May_07_1255	s	s	4	4	SIC	136	RC	2	1	02VD 09VO 02VC 02MD 02MO 02MC 02RD 02RO	1	0	1.37672686577	-383.0	-148.0	-373	-141	1
2.7	2015_May_07_1255	s	s	4	4	SIC	137	ABS	2	0	02VD 02VO 10VC 02MD 02MO 02MC 02RD 02RO	0	1	2.03093004227	None	None	None	None	1
2.7	2015_May_07_1255	s	s	4	4	SIC	138	ABS	0	2	02VD 02VO 02VC 02MD 02MO 02MC 10RD 02RO	0	1	1.4892809391	None	None	None	None	1
2.7	2015_May_07_1255	s	s	4	4	SIC	139	RC	1	1	02VD 02VO 02VC 02MD 09MO 02MC 02RD 02RO	1	0	1.14122891426	-458.0	255.0	-447	259	1
2.7	2015_May_07_1255	s	s	4	4	SIC	140	RC	2	2	09VD 02VO 02VC 02MD 02MO 02MC 02RD 02RO	1	0	0.646759033203	-95.0	141.0	-86	137	1
2.7	2015_May_07_1255	s	s	4	4	SIC	141	ABS	2	2	10VD 02VO 02VC 02MD 02MO 02MC 02RD 02RO	0	1	1.30585312843	None	None	None	None	1
2.7	2015_May_07_1255	s	s	4	4	SIC	142	RC	1	0	02VD 02VO 02VC 02MD 02MO 09MC 02RD 02RO	1	0	2.50408101082	-496.0	7.0	-484	11	1
2.7	2015_May_07_1255	s	s	4	4	SIC	143	ABS	1	0	02VD 02VO 02VC 02MD 02MO 10MC 02RD 02RO	0	1	1.81207919121	None	None	None	None	1
2.7	2015_May_07_1255	s	s	4	4	SIC	144	ABS	1	1	02VD 02VO 02VC 02MD 10MO 02MC 02RD 02RO	0	1	2.1374669075	None	None	None	None	1
2.7	2015_May_07_1255	s	s	4	4	SIC	145	ABS	1	2	02VD 02VO 02VC 10MD 02MO 02MC 02RD 02RO	0	1	1.47698402405	None	None	None	None	1
2.7	2015_May_07_1255	s	s	4	4	SIC	146	ABS	0	1	02VD 02VO 02VC 02MD 02MO 02MC 02RD 10RO	0	1	2.25414800644	None	None	None	None	1
2.7	2015_May_07_1255	s	s	4	4	SIC	147	RC	2	2	09VD 02VO 02VC 02MD 02MO 02MC 02RD 02RO	1	0	0.647114038467	54.0	-243.0	62	-244	1
2.7	2015_May_07_1255	s	s	4	4	SIC	148	ABS	2	2	10VD 02VO 02VC 02MD 02MO 02MC 02RD 02RO	0	1	1.42090606689	None	None	None	None	1
2.7	2015_May_07_1255	s	s	4	4	SIC	149	ABS	2	0	02VD 02VO 10VC 02MD 02MO 02MC 02RD 02RO	0	1	2.0125079155	None	None	None	None	1
2.7	2015_May_07_1255	s	s	4	4	SIC	150	ABS	1	1	02VD 02VO 02VC 02MD 10MO 02MC 02RD 02RO	0	1	1.54131698608	None	None	None	None	1
2.7	2015_May_07_1255	s	s	4	4	SIC	151	RC	2	1	02VD 09VO 02VC 02MD 02MO 02MC 02RD 02RO	1	0	1.03557801247	-533.0	-406.0	-523	-407	1
2.7	2015_May_07_1255	s	s	4	4	SIC	152	RC	0	2	02VD 02VO 02VC 02MD 02MO 02MC 09RD 02RO	1	0	1.75316214561	168.0	135.0	173	137	1
2.7	2015_May_07_1255	s	s	4	4	SIC	153	RC	1	0	02VD 02VO 02VC 02MD 02MO 09MC 02RD 02RO	1	0	1.08235502243	381.0	232.0	388	235	1
2.7	2015_May_07_1255	s	s	4	4	SIC	154	RC	1	2	02VD 02VO 02VC 09MD 02MO 02MC 02RD 02RO	1	0	0.952900886536	424.0	42.0	422	33	1
2.7	2015_May_07_1255	s	s	4	4	SIC	155	ABS	0	2	02VD 02VO 02VC 02MD 02MO 02MC 10RD 02RO	0	1	1.49091410637	None	None	None	None	1
2.7	2015_May_07_1255	s	s	4	4	SIC	156	ABS	1	0	02VD 02VO 02VC 02MD 02MO 10MC 02RD 02RO	0	1	2.25923514366	None	None	None	None	1
2.7	2015_May_07_1255	s	s	4	4	SIC	157	RC	2	0	02VD 02VO 09VC 02MD 02MO 02MC 02RD 02RO	1	0	0.547571897507	81.0	-71.0	83	-76	1
2.7	2015_May_07_1255	s	s	4	4	SIC	158	RC	0	1	02VD 02VO 02VC 02MD 02MO 02MC 02RD 09RO	1	0	1.3763449192	-76.0	-196.0	-68	-193	1
2.7	2015_May_07_1255	s	s	4	4	SIC	159	RC	1	1	02VD 02VO 02VC 02MD 09MO 02MC 02RD 02RO	1	0	0.642363071442	-73.0	-3.0	-78	2	1
2.7	2015_May_07_1255	s	s	4	4	SIC	160	ABS	2	1	02VD 10VO 02VC 02MD 02MO 02MC 02RD 02RO	0	1	2.17690205574	None	None	None	None	1
2.7	2015_May_07_1255	s	s	4	4	SIC	161	RC	0	1	02VD 02VO 02VC 02MD 02MO 02MC 02RD 09RO	1	0	1.15290594101	508.0	-385.0	513	-386	1
2.7	2015_May_07_1255	s	s	4	4	SIC	162	RC	2	1	02VD 09VO 02VC 02MD 02MO 02MC 02RD 02RO	1	0	1.34114813805	-270.0	175.0	-266	175	1
2.7	2015_May_07_1255	s	s	4	4	SIC	163	ABS	1	0	02VD 02VO 02VC 02MD 02MO 10MC 02RD 02RO	0	1	2.12487411499	None	None	None	None	1
2.7	2015_May_07_1255	s	s	4	4	SIC	164	RC	2	0	02VD 02VO 09VC 02MD 02MO 02MC 02RD 02RO	1	0	0.740926980972	56.0	-296.0	54	-305	1
2.7	2015_May_07_1255	s	s	4	4	SIC	165	RC	0	2	02VD 02VO 02VC 02MD 02MO 02MC 09RD 02RO	1	0	0.776195764542	-422.0	-311.0	-421	-313	1
2.7	2015_May_07_1255	s	s	4	4	SIC	166	ABS	1	1	02VD 02VO 02VC 02MD 10MO 02MC 02RD 02RO	0	1	1.68270492554	None	None	None	None	1
2.7	2015_May_07_1255	s	s	4	4	SIC	167	ABS	0	2	02VD 02VO 02VC 02MD 02MO 02MC 10RD 02RO	0	1	2.63599205017	None	None	None	None	1
2.7	2015_May_07_1255	s	s	4	4	SIC	168	ABS	2	0	02VD 02VO 10VC 02MD 02MO 02MC 02RD 02RO	0	1	2.41234207153	None	None	None	None	1
2.7	2015_May_07_1255	s	s	4	4	SIC	169	ABS	0	1	02VD 02VO 02VC 02MD 02MO 02MC 02RD 10RO	0	1	3.33763694763	None	None	None	None	1
2.7	2015_May_07_1255	s	s	4	4	SIC	170	ABS	2	1	02VD 10VO 02VC 02MD 02MO 02MC 02RD 02RO	0	1	1.89444184303	None	None	None	None	1
2.7	2015_May_07_1255	s	s	4	4	SIC	171	RC	1	1	02VD 02VO 02VC 02MD 09MO 02MC 02RD 02RO	1	0	1.44709396362	35.0	-261.0	26	-264	1
2.7	2015_May_07_1255	s	s	4	4	SIC	172	ABS	2	2	10VD 02VO 02VC 02MD 02MO 02MC 02RD 02RO	0	1	1.51475381851	None	None	None	None	1
2.7	2015_May_07_1255	s	s	4	4	SIC	173	RC	1	0	02VD 02VO 02VC 02MD 02MO 09MC 02RD 02RO	1	0	1.3529510498	515.0	50.0	518	47	1
2.7	2015_May_07_1255	s	s	4	4	SIC	174	RC	1	2	02VD 02VO 02VC 09MD 02MO 02MC 02RD 02RO	1	0	1.93638586998	-524.0	102.0	-516	103	1
2.7	2015_May_07_1255	s	s	4	4	SIC	175	ABS	1	2	02VD 02VO 02VC 10MD 02MO 02MC 02RD 02RO	0	1	1.80021095276	None	None	None	None	1
2.7	2015_May_07_1255	s	s	4	4	SIC	176	RC	2	2	09VD 02VO 02VC 02MD 02MO 02MC 02RD 02RO	1	0	1.8120341301	-434.0	193.0	-442	193	1
2.7	2015_May_07_1255	s	s	4	4	SIC	177	ABS	0	2	02VD 02VO 02VC 02MD 02MO 02MC 10RD 02RO	0	1	2.13830804825	None	None	None	None	1
2.7	2015_May_07_1255	s	s	4	4	SIC	178	ABS	2	1	02VD 10VO 02VC 02MD 02MO 02MC 02RD 02RO	0	1	1.77201485634	None	None	None	None	1
2.7	2015_May_07_1255	s	s	4	4	SIC	179	RC	1	2	02VD 02VO 02VC 09MD 02MO 02MC 02RD 02RO	1	0	1.91808795929	150.0	269.0	154	267	1
2.7	2015_May_07_1255	s	s	4	4	SIC	180	ABS	1	2	02VD 02VO 02VC 10MD 02MO 02MC 02RD 02RO	0	1	2.32990098	None	None	None	None	1
2.7	2015_May_07_1255	s	s	4	4	SIC	181	ABS	2	2	10VD 02VO 02VC 02MD 02MO 02MC 02RD 02RO	0	1	2.05426001549	None	None	None	None	1
2.7	2015_May_07_1255	s	s	4	4	SIC	182	RC	1	1	02VD 02VO 02VC 02MD 09MO 02MC 02RD 02RO	1	0	2.60743498802	-387.0	363.0	-387	364	1
2.7	2015_May_07_1255	s	s	4	4	SIC	183	RC	0	2	02VD 02VO 02VC 02MD 02MO 02MC 09RD 02RO	1	0	0.980022907257	-367.0	-167.0	-360	-168	1
2.7	2015_May_07_1255	s	s	4	4	SIC	184	RC	2	1	02VD 09VO 02VC 02MD 02MO 02MC 02RD 02RO	1	0	0.85289478302	-462.0	-291.0	-454	-286	1
2.7	2015_May_07_1255	s	s	4	4	SIC	185	RC	1	0	02VD 02VO 02VC 02MD 02MO 09MC 02RD 02RO	1	0	2.49479413033	485.0	397.0	495	402	1
2.7	2015_May_07_1255	s	s	4	4	SIC	186	ABS	1	0	02VD 02VO 02VC 02MD 02MO 10MC 02RD 02RO	0	1	2.45943307877	None	None	None	None	1
2.7	2015_May_07_1255	s	s	4	4	SIC	187	RC	2	2	09VD 02VO 02VC 02MD 02MO 02MC 02RD 02RO	1	0	1.51774692535	-178.0	-79.0	-176	-78	1
2.7	2015_May_07_1255	s	s	4	4	SIC	188	ABS	2	0	02VD 02VO 10VC 02MD 02MO 02MC 02RD 02RO	0	1	1.8237760067	None	None	None	None	1
2.7	2015_May_07_1255	s	s	4	4	SIC	189	RC	2	0	02VD 02VO 09VC 02MD 02MO 02MC 02RD 02RO	1	0	0.69048500061	155.0	92.0	151	100	1
2.7	2015_May_07_1255	s	s	4	4	SIC	190	RC	0	1	02VD 02VO 02VC 02MD 02MO 02MC 02RD 09RO	1	0	1.79503202438	227.0	192.0	229	184	1
2.7	2015_May_07_1255	s	s	4	4	SIC	191	ABS	1	1	02VD 02VO 02VC 02MD 10MO 02MC 02RD 02RO	0	1	3.3867058754	None	None	None	None	1
2.7	2015_May_07_1255	s	s	4	4	SIC	192	ABS	0	1	02VD 02VO 02VC 02MD 02MO 02MC 02RD 10RO	0	1	3.28341197968	None	None	None	None	1
2.7	2015_May_07_1255	s	s	4	4	SIC	193	RC	1	1	02VD 02VO 02VC 02MD 09MO 02MC 02RD 02RO	0	1	2.59571695328	166.0	347.0	None	None	0
2.7	2015_May_07_1255	s	s	4	4	SIC	194	ABS	0	2	02VD 02VO 02VC 02MD 02MO 02MC 10RD 02RO	0	1	2.85460805893	None	None	None	None	1
2.7	2015_May_07_1255	s	s	4	4	SIC	195	RC	2	0	02VD 02VO 09VC 02MD 02MO 02MC 02RD 02RO	1	0	0.783066034317	-270.0	-229.0	-266	-231	1
2.7	2015_May_07_1255	s	s	4	4	SIC	196	ABS	0	1	02VD 02VO 02VC 02MD 02MO 02MC 02RD 10RO	0	1	2.54713201523	None	None	None	None	1
2.7	2015_May_07_1255	s	s	4	4	SIC	197	RC	0	2	02VD 02VO 02VC 02MD 02MO 02MC 09RD 02RO	1	0	1.1293361187	-495.0	-338.0	-490	-334	1
2.7	2015_May_07_1255	s	s	4	4	SIC	198	ABS	2	2	10VD 02VO 02VC 02MD 02MO 02MC 02RD 02RO	0	1	2.47812318802	None	None	None	None	1
2.7	2015_May_07_1255	s	s	4	4	SIC	199	RC	2	1	02VD 09VO 02VC 02MD 02MO 02MC 02RD 02RO	1	0	0.750022172928	-91.0	-107.0	-101	-101	1
2.7	2015_May_07_1255	s	s	4	4	SIC	200	ABS	1	1	02VD 02VO 02VC 02MD 10MO 02MC 02RD 02RO	0	1	2.43057012558	None	None	None	None	1
2.7	2015_May_07_1255	s	s	4	4	SIC	201	RC	1	2	02VD 02VO 02VC 09MD 02MO 02MC 02RD 02RO	1	0	1.22719597816	28.0	119.0	29	119	1
2.7	2015_May_07_1255	s	s	4	4	SIC	202	RC	1	0	02VD 02VO 02VC 02MD 02MO 09MC 02RD 02RO	1	0	1.37096810341	459.0	409.0	459	406	1
2.7	2015_May_07_1255	s	s	4	4	SIC	203	RC	0	1	02VD 02VO 02VC 02MD 02MO 02MC 02RD 09RO	1	0	0.938153982162	-200.0	-186.0	-202	-184	1
2.7	2015_May_07_1255	s	s	4	4	SIC	204	RC	2	2	09VD 02VO 02VC 02MD 02MO 02MC 02RD 02RO	1	0	1.01179504395	-522.0	-327.0	-527	-329	1
2.7	2015_May_07_1255	s	s	4	4	SIC	205	ABS	1	0	02VD 02VO 02VC 02MD 02MO 10MC 02RD 02RO	0	1	2.31865310669	None	None	None	None	1
2.7	2015_May_07_1255	s	s	4	4	SIC	206	ABS	2	1	02VD 10VO 02VC 02MD 02MO 02MC 02RD 02RO	0	1	1.67901396751	None	None	None	None	1
2.7	2015_May_07_1255	s	s	4	4	SIC	207	ABS	1	2	02VD 02VO 02VC 10MD 02MO 02MC 02RD 02RO	0	1	1.6237039566	None	None	None	None	1
2.7	2015_May_07_1255	s	s	4	4	SIC	208	ABS	2	0	02VD 02VO 10VC 02MD 02MO 02MC 02RD 02RO	0	1	1.65498805046	None	None	None	None	1
2.7	2015_May_07_1255	s	s	4	4	SIC	209	ABS	1	0	02VD 02VO 02VC 02MD 02MO 10MC 02RD 02RO	0	1	2.77714419365	None	None	None	None	1
2.7	2015_May_07_1255	s	s	4	4	SIC	210	ABS	1	1	02VD 02VO 02VC 02MD 10MO 02MC 02RD 02RO	0	1	1.92508411407	None	None	None	None	1
2.7	2015_May_07_1255	s	s	4	4	SIC	211	ABS	2	1	02VD 10VO 02VC 02MD 02MO 02MC 02RD 02RO	0	1	1.61824798584	None	None	None	None	1
2.7	2015_May_07_1255	s	s	4	4	SIC	212	RC	0	2	02VD 02VO 02VC 02MD 02MO 02MC 09RD 02RO	1	0	2.25456500053	63.0	343.0	65	336	1
2.7	2015_May_07_1255	s	s	4	4	SIC	213	ABS	0	2	02VD 02VO 02VC 02MD 02MO 02MC 10RD 02RO	0	1	2.08822703362	None	None	None	None	1
2.7	2015_May_07_1255	s	s	4	4	SIC	214	RC	1	2	02VD 02VO 02VC 09MD 02MO 02MC 02RD 02RO	1	0	0.855005025864	-331.0	-273.0	-331	-280	1
2.7	2015_May_07_1255	s	s	4	4	SIC	215	RC	1	0	02VD 02VO 02VC 02MD 02MO 09MC 02RD 02RO	1	0	1.807284832	-143.0	331.0	-136	331	1
2.7	2015_May_07_1255	s	s	4	4	SIC	216	ABS	1	2	02VD 02VO 02VC 10MD 02MO 02MC 02RD 02RO	0	1	2.18372988701	None	None	None	None	1
2.7	2015_May_07_1255	s	s	4	4	SIC	217	ABS	0	1	02VD 02VO 02VC 02MD 02MO 02MC 02RD 10RO	0	1	2.80617284775	None	None	None	None	1
2.7	2015_May_07_1255	s	s	4	4	SIC	218	RC	2	2	09VD 02VO 02VC 02MD 02MO 02MC 02RD 02RO	1	0	0.960689067841	-108.0	145.0	-107	134	1
2.7	2015_May_07_1255	s	s	4	4	SIC	219	RC	1	1	02VD 02VO 02VC 02MD 09MO 02MC 02RD 02RO	1	0	0.752666950226	61.0	-157.0	59	-166	1
2.7	2015_May_07_1255	s	s	4	4	SIC	220	ABS	2	2	10VD 02VO 02VC 02MD 02MO 02MC 02RD 02RO	0	1	2.12613511086	None	None	None	None	1
2.7	2015_May_07_1255	s	s	4	4	SIC	221	ABS	2	0	02VD 02VO 10VC 02MD 02MO 02MC 02RD 02RO	0	1	1.64319992065	None	None	None	None	1
2.7	2015_May_07_1255	s	s	4	4	SIC	222	RC	0	1	02VD 02VO 02VC 02MD 02MO 02MC 02RD 09RO	1	0	3.25983786583	530.0	18.0	533	15	1
2.7	2015_May_07_1255	s	s	4	4	SIC	223	RC	2	1	02VD 09VO 02VC 02MD 02MO 02MC 02RD 02RO	1	0	0.618239164352	81.0	-44.0	75	-45	1
2.7	2015_May_07_1255	s	s	4	4	SIC	224	RC	2	0	02VD 02VO 09VC 02MD 02MO 02MC 02RD 02RO	1	0	1.60643482208	267.0	-330.0	276	-330	1
2.7	2015_May_07_1255	s	s	4	4	SIC	225	ABS	1	2	02VD 02VO 02VC 10MD 02MO 02MC 02RD 02RO	0	1	1.75942111015	None	None	None	None	1
2.7	2015_May_07_1255	s	s	4	4	SIC	226	ABS	1	1	02VD 02VO 02VC 02MD 10MO 02MC 02RD 02RO	0	1	2.31558203697	None	None	None	None	1
2.7	2015_May_07_1255	s	s	4	4	SIC	227	RC	2	0	02VD 02VO 09VC 02MD 02MO 02MC 02RD 02RO	1	0	1.04732704163	-478.0	244.0	-473	233	1
2.7	2015_May_07_1255	s	s	4	4	SIC	228	RC	0	2	02VD 02VO 02VC 02MD 02MO 02MC 09RD 02RO	1	0	0.865611076355	265.0	-183.0	260	-183	1
2.7	2015_May_07_1255	s	s	4	4	SIC	229	RC	2	1	02VD 09VO 02VC 02MD 02MO 02MC 02RD 02RO	1	0	0.843520879745	242.0	350.0	242	356	1
2.7	2015_May_07_1255	s	s	4	4	SIC	230	ABS	2	2	10VD 02VO 02VC 02MD 02MO 02MC 02RD 02RO	0	1	1.72961401939	None	None	None	None	1
2.7	2015_May_07_1255	s	s	4	4	SIC	231	RC	0	1	02VD 02VO 02VC 02MD 02MO 02MC 02RD 09RO	1	0	3.11387205124	-252.0	126.0	-253	129	1
2.7	2015_May_07_1255	s	s	4	4	SIC	232	ABS	1	0	02VD 02VO 02VC 02MD 02MO 10MC 02RD 02RO	0	1	2.1298429966	None	None	None	None	1
2.7	2015_May_07_1255	s	s	4	4	SIC	233	RC	1	2	02VD 02VO 02VC 09MD 02MO 02MC 02RD 02RO	1	0	1.21981787682	143.0	-385.0	145	-380	1
2.7	2015_May_07_1255	s	s	4	4	SIC	234	RC	1	0	02VD 02VO 02VC 02MD 02MO 09MC 02RD 02RO	1	0	1.300812006	-133.0	257.0	-138	256	1
2.7	2015_May_07_1255	s	s	4	4	SIC	235	ABS	2	0	02VD 02VO 10VC 02MD 02MO 02MC 02RD 02RO	0	1	1.97680282593	None	None	None	None	1
2.7	2015_May_07_1255	s	s	4	4	SIC	236	ABS	0	2	02VD 02VO 02VC 02MD 02MO 02MC 10RD 02RO	0	1	1.88260102272	None	None	None	None	1
2.7	2015_May_07_1255	s	s	4	4	SIC	237	RC	2	2	09VD 02VO 02VC 02MD 02MO 02MC 02RD 02RO	1	0	0.893937826157	183.0	-411.0	190	-412	1
2.7	2015_May_07_1255	s	s	4	4	SIC	238	RC	1	1	02VD 02VO 02VC 02MD 09MO 02MC 02RD 02RO	1	0	1.21166801453	-110.0	260.0	-110	264	1
2.7	2015_May_07_1255	s	s	4	4	SIC	239	ABS	0	1	02VD 02VO 02VC 02MD 02MO 02MC 02RD 10RO	0	1	3.45517301559	None	None	None	None	1
2.7	2015_May_07_1255	s	s	4	4	SIC	240	ABS	2	1	02VD 10VO 02VC 02MD 02MO 02MC 02RD 02RO	0	1	1.80642700195	None	None	None	None	1
2.7	2015_May_07_1255	s	s	4	4	SIC	241	RC	2	1	02VD 09VO 02VC 02MD 02MO 02MC 02RD 02RO	1	0	0.935544013977	292.0	-98.0	295	-98	1
2.7	2015_May_07_1255	s	s	4	4	SIC	242	ABS	1	0	02VD 02VO 02VC 02MD 02MO 10MC 02RD 02RO	0	1	1.77658104897	None	None	None	None	1
2.7	2015_May_07_1255	s	s	4	4	SIC	243	ABS	1	1	02VD 02VO 02VC 02MD 10MO 02MC 02RD 02RO	0	1	1.92993187904	None	None	None	None	1
2.7	2015_May_07_1255	s	s	4	4	SIC	244	RC	2	2	09VD 02VO 02VC 02MD 02MO 02MC 02RD 02RO	1	0	0.705534934998	-252.0	-11.0	-258	-7	1
2.7	2015_May_07_1255	s	s	4	4	SIC	245	ABS	0	2	02VD 02VO 02VC 02MD 02MO 02MC 10RD 02RO	0	1	1.79502987862	None	None	None	None	1
2.7	2015_May_07_1255	s	s	4	4	SIC	246	RC	1	2	02VD 02VO 02VC 09MD 02MO 02MC 02RD 02RO	1	0	1.13300395012	-91.0	-120.0	-90	-126	1
2.7	2015_May_07_1255	s	s	4	4	SIC	247	RC	2	0	02VD 02VO 09VC 02MD 02MO 02MC 02RD 02RO	1	0	0.68904709816	57.0	-147.0	64	-140	1
2.7	2015_May_07_1255	s	s	4	4	SIC	248	ABS	0	1	02VD 02VO 02VC 02MD 02MO 02MC 02RD 10RO	0	1	2.95382595062	None	None	None	None	1
2.7	2015_May_07_1255	s	s	4	4	SIC	249	RC	0	2	02VD 02VO 02VC 02MD 02MO 02MC 09RD 02RO	1	0	1.94976687431	-397.0	208.0	-400	210	1
2.7	2015_May_07_1255	s	s	4	4	SIC	250	RC	1	0	02VD 02VO 02VC 02MD 02MO 09MC 02RD 02RO	1	0	0.841958045959	-353.0	-131.0	-353	-135	1
2.7	2015_May_07_1255	s	s	4	4	SIC	251	ABS	2	0	02VD 02VO 10VC 02MD 02MO 02MC 02RD 02RO	0	1	2.05553793907	None	None	None	None	1
2.7	2015_May_07_1255	s	s	4	4	SIC	252	ABS	2	2	10VD 02VO 02VC 02MD 02MO 02MC 02RD 02RO	0	1	1.44713997841	None	None	None	None	1
2.7	2015_May_07_1255	s	s	4	4	SIC	253	RC	1	1	02VD 02VO 02VC 02MD 09MO 02MC 02RD 02RO	1	0	0.797119855881	-288.0	-296.0	-283	-295	1
2.7	2015_May_07_1255	s	s	4	4	SIC	254	ABS	2	1	02VD 10VO 02VC 02MD 02MO 02MC 02RD 02RO	0	1	1.55677700043	None	None	None	None	1
2.7	2015_May_07_1255	s	s	4	4	SIC	255	ABS	1	2	02VD 02VO 02VC 10MD 02MO 02MC 02RD 02RO	0	1	1.26767277718	None	None	None	None	1
2.7	2015_May_07_1255	s	s	4	4	SIC	256	RC	0	1	02VD 02VO 02VC 02MD 02MO 02MC 02RD 09RO	1	0	0.917452096939	484.0	-295.0	479	-298	1
2.7	2015_May_07_1255	s	s	4	4	SIC	257	ABS	1	0	02VD 02VO 02VC 02MD 02MO 10MC 02RD 02RO	0	1	2.44791102409	None	None	None	None	1
2.7	2015_May_07_1255	s	s	4	4	SIC	258	RC	2	2	09VD 02VO 02VC 02MD 02MO 02MC 02RD 02RO	1	0	1.57659101486	148.0	274.0	146	280	1
2.7	2015_May_07_1255	s	s	4	4	SIC	259	RC	0	1	02VD 02VO 02VC 02MD 02MO 02MC 02RD 09RO	1	0	3.30204510689	486.0	390.0	479	390	1
2.7	2015_May_07_1255	s	s	4	4	SIC	260	ABS	1	2	02VD 02VO 02VC 10MD 02MO 02MC 02RD 02RO	0	1	1.51777720451	None	None	None	None	1
2.7	2015_May_07_1255	s	s	4	4	SIC	261	ABS	0	2	02VD 02VO 02VC 02MD 02MO 02MC 10RD 02RO	0	1	2.71319103241	None	None	None	None	1
2.7	2015_May_07_1255	s	s	4	4	SIC	262	ABS	0	1	02VD 02VO 02VC 02MD 02MO 02MC 02RD 10RO	0	1	2.96271705627	None	None	None	None	1
2.7	2015_May_07_1255	s	s	4	4	SIC	263	RC	2	1	02VD 09VO 02VC 02MD 02MO 02MC 02RD 02RO	1	0	0.96449804306	-452.0	-41.0	-449	-41	1
2.7	2015_May_07_1255	s	s	4	4	SIC	264	ABS	2	2	10VD 02VO 02VC 02MD 02MO 02MC 02RD 02RO	0	1	1.87086606026	None	None	None	None	1
2.7	2015_May_07_1255	s	s	4	4	SIC	265	ABS	1	1	02VD 02VO 02VC 02MD 10MO 02MC 02RD 02RO	0	1	1.40681385994	None	None	None	None	1
2.7	2015_May_07_1255	s	s	4	4	SIC	266	RC	1	1	02VD 02VO 02VC 02MD 09MO 02MC 02RD 02RO	1	0	0.759305000305	-524.0	-149.0	-520	-148	1
2.7	2015_May_07_1255	s	s	4	4	SIC	267	RC	2	0	02VD 02VO 09VC 02MD 02MO 02MC 02RD 02RO	1	0	1.00896406174	-221.0	-169.0	-215	-165	1
2.7	2015_May_07_1255	s	s	4	4	SIC	268	RC	1	2	02VD 02VO 02VC 09MD 02MO 02MC 02RD 02RO	1	0	1.19623804092	-93.0	282.0	-89	274	1
2.7	2015_May_07_1255	s	s	4	4	SIC	269	ABS	2	1	02VD 10VO 02VC 02MD 02MO 02MC 02RD 02RO	0	1	2.5251789093	None	None	None	None	1
2.7	2015_May_07_1255	s	s	4	4	SIC	270	RC	1	0	02VD 02VO 02VC 02MD 02MO 09MC 02RD 02RO	1	0	0.938403129578	-93.0	-385.0	-85	-387	1
2.7	2015_May_07_1255	s	s	4	4	SIC	271	ABS	2	0	02VD 02VO 10VC 02MD 02MO 02MC 02RD 02RO	0	1	1.68937206268	None	None	None	None	1
2.7	2015_May_07_1255	s	s	4	4	SIC	272	RC	0	2	02VD 02VO 02VC 02MD 02MO 02MC 09RD 02RO	1	0	1.72953796387	-433.0	368.0	-426	368	1
2.7	2015_May_07_1255	s	s	4	4	SIC	273	ABS	1	1	02VD 02VO 02VC 02MD 10MO 02MC 02RD 02RO	0	1	2.34832596779	None	None	None	None	1
2.7	2015_May_07_1255	s	s	4	4	SIC	274	ABS	1	0	02VD 02VO 02VC 02MD 02MO 10MC 02RD 02RO	0	1	2.2828540802	None	None	None	None	1
2.7	2015_May_07_1255	s	s	4	4	SIC	275	ABS	2	2	10VD 02VO 02VC 02MD 02MO 02MC 02RD 02RO	0	1	1.61869883537	None	None	None	None	1
2.7	2015_May_07_1255	s	s	4	4	SIC	276	RC	2	1	02VD 09VO 02VC 02MD 02MO 02MC 02RD 02RO	1	0	1.08591794968	-540.0	-389.0	-533	-390	1
2.7	2015_May_07_1255	s	s	4	4	SIC	277	RC	2	0	02VD 02VO 09VC 02MD 02MO 02MC 02RD 02RO	1	0	1.5059838295	467.0	377.0	467	381	1
2.7	2015_May_07_1255	s	s	4	4	SIC	278	ABS	1	2	02VD 02VO 02VC 10MD 02MO 02MC 02RD 02RO	0	1	2.02387809753	None	None	None	None	1
2.7	2015_May_07_1255	s	s	4	4	SIC	279	RC	0	2	02VD 02VO 02VC 02MD 02MO 02MC 09RD 02RO	1	0	1.24702119827	-279.0	160.0	-273	160	1
2.7	2015_May_07_1255	s	s	4	4	SIC	280	ABS	2	1	02VD 10VO 02VC 02MD 02MO 02MC 02RD 02RO	0	1	1.64225196838	None	None	None	None	1
2.7	2015_May_07_1255	s	s	4	4	SIC	281	ABS	2	0	02VD 02VO 10VC 02MD 02MO 02MC 02RD 02RO	0	1	1.49169397354	None	None	None	None	1
2.7	2015_May_07_1255	s	s	4	4	SIC	282	ABS	0	1	02VD 02VO 02VC 02MD 02MO 02MC 02RD 10RO	0	1	2.93025803566	None	None	None	None	1
2.7	2015_May_07_1255	s	s	4	4	SIC	283	RC	1	1	02VD 02VO 02VC 02MD 09MO 02MC 02RD 02RO	1	0	0.917456150055	274.0	-6.0	277	-5	1
2.7	2015_May_07_1255	s	s	4	4	SIC	284	ABS	0	2	02VD 02VO 02VC 02MD 02MO 02MC 10RD 02RO	0	1	2.19447898865	None	None	None	None	1
2.7	2015_May_07_1255	s	s	4	4	SIC	285	RC	1	2	02VD 02VO 02VC 09MD 02MO 02MC 02RD 02RO	1	0	1.21174097061	315.0	-314.0	312	-314	1
2.7	2015_May_07_1255	s	s	4	4	SIC	286	RC	0	1	02VD 02VO 02VC 02MD 02MO 02MC 02RD 09RO	0	1	2.44760107994	510.0	3.0	None	None	0
2.7	2015_May_07_1255	s	s	4	4	SIC	287	RC	1	0	02VD 02VO 02VC 02MD 02MO 09MC 02RD 02RO	1	0	1.51778912544	-284.0	363.0	-287	355	1
2.7	2015_May_07_1255	s	s	4	4	SIC	288	RC	2	2	09VD 02VO 02VC 02MD 02MO 02MC 02RD 02RO	1	0	1.21829485893	-243.0	-358.0	-244	-356	1
2.7	2015_May_07_1255	s	s	4	4	SIC	289	ABS	1	2	02VD 02VO 02VC 10MD 02MO 02MC 02RD 02RO	0	1	1.95324587822	None	None	None	None	1
2.7	2015_May_07_1255	s	s	4	4	SIC	290	RC	0	2	02VD 02VO 02VC 02MD 02MO 02MC 09RD 02RO	1	0	1.52954483032	254.0	-163.0	258	-173	1
2.7	2015_May_07_1255	s	s	4	4	SIC	291	RC	2	1	02VD 09VO 02VC 02MD 02MO 02MC 02RD 02RO	1	0	0.690325975418	407.0	-190.0	404	-191	1
2.7	2015_May_07_1255	s	s	4	4	SIC	292	ABS	0	1	02VD 02VO 02VC 02MD 02MO 02MC 02RD 10RO	0	1	3.1506459713	None	None	None	None	1
2.7	2015_May_07_1255	s	s	4	4	SIC	293	RC	1	2	02VD 02VO 02VC 09MD 02MO 02MC 02RD 02RO	1	0	0.749895095825	-212.0	91.0	-206	87	1
2.7	2015_May_07_1255	s	s	4	4	SIC	294	RC	0	1	02VD 02VO 02VC 02MD 02MO 02MC 02RD 09RO	0	1	2.53737211227	-44.0	90.0	None	None	0
2.7	2015_May_07_1255	s	s	4	4	SIC	295	RC	2	2	09VD 02VO 02VC 02MD 02MO 02MC 02RD 02RO	1	0	0.82990694046	-281.0	255.0	-294	262	1
2.7	2015_May_07_1255	s	s	4	4	SIC	296	RC	1	1	02VD 02VO 02VC 02MD 09MO 02MC 02RD 02RO	1	0	1.41871500015	143.0	-171.0	149	-173	1
2.7	2015_May_07_1255	s	s	4	4	SIC	297	RC	1	0	02VD 02VO 02VC 02MD 02MO 09MC 02RD 02RO	1	0	1.44390201569	-36.0	304.0	-34	309	1
2.7	2015_May_07_1255	s	s	4	4	SIC	298	ABS	1	0	02VD 02VO 02VC 02MD 02MO 10MC 02RD 02RO	0	1	2.65361404419	None	None	None	None	1
2.7	2015_May_07_1255	s	s	4	4	SIC	299	RC	2	0	02VD 02VO 09VC 02MD 02MO 02MC 02RD 02RO	1	0	2.44248914719	423.0	-139.0	427	-135	1
2.7	2015_May_07_1255	s	s	4	4	SIC	300	ABS	2	2	10VD 02VO 02VC 02MD 02MO 02MC 02RD 02RO	0	1	2.94198513031	None	None	None	None	1
2.7	2015_May_07_1255	s	s	4	4	SIC	301	ABS	1	1	02VD 02VO 02VC 02MD 10MO 02MC 02RD 02RO	0	1	1.81906700134	None	None	None	None	1
2.7	2015_May_07_1255	s	s	4	4	SIC	302	ABS	2	0	02VD 02VO 10VC 02MD 02MO 02MC 02RD 02RO	0	1	1.93787503242	None	None	None	None	1
2.7	2015_May_07_1255	s	s	4	4	SIC	303	ABS	0	2	02VD 02VO 02VC 02MD 02MO 02MC 10RD 02RO	0	1	1.74140501022	None	None	None	None	1
2.7	2015_May_07_1255	s	s	4	4	SIC	304	ABS	2	1	02VD 10VO 02VC 02MD 02MO 02MC 02RD 02RO	0	1	1.50135707855	None	None	None	None	1
2.7	2015_May_07_1255	s	s	4	4	SIC	305	ABS	2	1	02VD 10VO 02VC 02MD 02MO 02MC 02RD 02RO	0	1	1.4711368084	None	None	None	None	1
2.7	2015_May_07_1255	s	s	4	4	SIC	306	ABS	0	1	02VD 02VO 02VC 02MD 02MO 02MC 02RD 10RO	0	1	2.47520184517	None	None	None	None	1
2.7	2015_May_07_1255	s	s	4	4	SIC	307	RC	0	2	02VD 02VO 02VC 02MD 02MO 02MC 09RD 02RO	1	0	2.08891916275	286.0	-331.0	289	-322	1
2.7	2015_May_07_1255	s	s	4	4	SIC	308	RC	1	2	02VD 02VO 02VC 09MD 02MO 02MC 02RD 02RO	1	0	0.818202972412	-143.0	110.0	-138	106	1
2.7	2015_May_07_1255	s	s	4	4	SIC	309	ABS	0	2	02VD 02VO 02VC 02MD 02MO 02MC 10RD 02RO	0	1	1.70255613327	None	None	None	None	1
2.7	2015_May_07_1255	s	s	4	4	SIC	310	RC	1	0	02VD 02VO 02VC 02MD 02MO 09MC 02RD 02RO	1	0	1.11250185966	284.0	-281.0	288	-291	1
2.7	2015_May_07_1255	s	s	4	4	SIC	311	RC	1	1	02VD 02VO 02VC 02MD 09MO 02MC 02RD 02RO	1	0	1.97159409523	380.0	-61.0	387	-54	1
2.7	2015_May_07_1255	s	s	4	4	SIC	312	RC	2	0	02VD 02VO 09VC 02MD 02MO 02MC 02RD 02RO	1	0	1.13527297974	-311.0	258.0	-311	262	1
2.7	2015_May_07_1255	s	s	4	4	SIC	313	ABS	1	2	02VD 02VO 02VC 10MD 02MO 02MC 02RD 02RO	0	1	2.01581788063	None	None	None	None	1
2.7	2015_May_07_1255	s	s	4	4	SIC	314	ABS	1	0	02VD 02VO 02VC 02MD 02MO 10MC 02RD 02RO	0	1	1.90298604965	None	None	None	None	1
2.7	2015_May_07_1255	s	s	4	4	SIC	315	ABS	2	0	02VD 02VO 10VC 02MD 02MO 02MC 02RD 02RO	0	1	1.78872990608	None	None	None	None	1
2.7	2015_May_07_1255	s	s	4	4	SIC	316	ABS	2	2	10VD 02VO 02VC 02MD 02MO 02MC 02RD 02RO	0	1	1.63573002815	None	None	None	None	1
2.7	2015_May_07_1255	s	s	4	4	SIC	317	ABS	1	1	02VD 02VO 02VC 02MD 10MO 02MC 02RD 02RO	0	1	2.5893061161	None	None	None	None	1
2.7	2015_May_07_1255	s	s	4	4	SIC	318	RC	0	1	02VD 02VO 02VC 02MD 02MO 02MC 02RD 09RO	1	0	1.0587079525	-322.0	-268.0	-328	-272	1
2.7	2015_May_07_1255	s	s	4	4	SIC	319	RC	2	1	02VD 09VO 02VC 02MD 02MO 02MC 02RD 02RO	1	0	0.956423044205	277.0	146.0	273	153	1
2.7	2015_May_07_1255	s	s	4	4	SIC	320	RC	2	2	09VD 02VO 02VC 02MD 02MO 02MC 02RD 02RO	1	0	2.2043659687	-213.0	360.0	-204	361	1
2.7	2015_May_07_1255	s	s	4	4	SIC	321	ABS	2	0	02VD 02VO 10VC 02MD 02MO 02MC 02RD 02RO	0	1	1.79542183876	None	None	None	None	1
2.7	2015_May_07_1255	s	s	4	4	SIC	322	ABS	2	1	02VD 10VO 02VC 02MD 02MO 02MC 02RD 02RO	0	1	1.28969502449	None	None	None	None	1
2.7	2015_May_07_1255	s	s	4	4	SIC	323	ABS	1	1	02VD 02VO 02VC 02MD 10MO 02MC 02RD 02RO	0	1	1.71288990974	None	None	None	None	1
2.7	2015_May_07_1255	s	s	4	4	SIC	324	ABS	1	0	02VD 02VO 02VC 02MD 02MO 10MC 02RD 02RO	0	1	1.92702484131	None	None	None	None	1
2.7	2015_May_07_1255	s	s	4	4	SIC	325	ABS	0	1	02VD 02VO 02VC 02MD 02MO 02MC 02RD 10RO	0	1	2.63643503189	None	None	None	None	1
2.7	2015_May_07_1255	s	s	4	4	SIC	326	ABS	0	2	02VD 02VO 02VC 02MD 02MO 02MC 10RD 02RO	0	1	1.32441592216	None	None	None	None	1
2.7	2015_May_07_1255	s	s	4	4	SIC	327	RC	0	2	02VD 02VO 02VC 02MD 02MO 02MC 09RD 02RO	1	0	0.926337003708	-408.0	-163.0	-409	-160	1
2.7	2015_May_07_1255	s	s	4	4	SIC	328	RC	1	1	02VD 02VO 02VC 02MD 09MO 02MC 02RD 02RO	1	0	1.10577607155	-158.0	328.0	-160	329	1
2.7	2015_May_07_1255	s	s	4	4	SIC	329	RC	2	1	02VD 09VO 02VC 02MD 02MO 02MC 02RD 02RO	1	0	1.01827597618	297.0	-283.0	300	-281	1
2.7	2015_May_07_1255	s	s	4	4	SIC	330	RC	1	2	02VD 02VO 02VC 09MD 02MO 02MC 02RD 02RO	1	0	1.17127990723	260.0	-398.0	261	-393	1
2.7	2015_May_07_1255	s	s	4	4	SIC	331	RC	2	0	02VD 02VO 09VC 02MD 02MO 02MC 02RD 02RO	1	0	1.176456213	252.0	302.0	251	298	1
2.7	2015_May_07_1255	s	s	4	4	SIC	332	RC	2	2	09VD 02VO 02VC 02MD 02MO 02MC 02RD 02RO	1	0	0.776246070862	-116.0	177.0	-115	180	1
2.7	2015_May_07_1255	s	s	4	4	SIC	333	RC	1	0	02VD 02VO 02VC 02MD 02MO 09MC 02RD 02RO	1	0	1.57191205025	-32.0	299.0	-27	299	1
2.7	2015_May_07_1255	s	s	4	4	SIC	334	RC	0	1	02VD 02VO 02VC 02MD 02MO 02MC 02RD 09RO	1	0	1.81567692757	425.0	81.0	427	76	1
2.7	2015_May_07_1255	s	s	4	4	SIC	335	ABS	1	2	02VD 02VO 02VC 10MD 02MO 02MC 02RD 02RO	0	1	1.48877000809	None	None	None	None	1
2.7	2015_May_07_1255	s	s	4	4	SIC	336	ABS	2	2	10VD 02VO 02VC 02MD 02MO 02MC 02RD 02RO	0	1	1.57391500473	None	None	None	None	1
2.7	2015_May_07_1255	s	s	4	4	SIC	337	RC	2	0	02VD 02VO 09VC 02MD 02MO 02MC 02RD 02RO	1	0	1.22350215912	505.0	-91.0	506	-98	1
2.7	2015_May_07_1255	s	s	4	4	SIC	338	ABS	1	0	02VD 02VO 02VC 02MD 02MO 10MC 02RD 02RO	0	1	2.16025304794	None	None	None	None	1
2.7	2015_May_07_1255	s	s	4	4	SIC	339	ABS	0	1	02VD 02VO 02VC 02MD 02MO 02MC 02RD 10RO	0	1	3.00761604309	None	None	None	None	1
2.7	2015_May_07_1255	s	s	4	4	SIC	340	RC	2	1	02VD 09VO 02VC 02MD 02MO 02MC 02RD 02RO	1	0	0.968366146088	218.0	1.0	220	1	1
2.7	2015_May_07_1255	s	s	4	4	SIC	341	ABS	1	2	02VD 02VO 02VC 10MD 02MO 02MC 02RD 02RO	0	1	1.36208891869	None	None	None	None	1
2.7	2015_May_07_1255	s	s	4	4	SIC	342	ABS	2	2	10VD 02VO 02VC 02MD 02MO 02MC 02RD 02RO	0	1	2.14159703255	None	None	None	None	1
2.7	2015_May_07_1255	s	s	4	4	SIC	343	ABS	0	2	02VD 02VO 02VC 02MD 02MO 02MC 10RD 02RO	0	1	2.10628581047	None	None	None	None	1
2.7	2015_May_07_1255	s	s	4	4	SIC	344	RC	0	2	02VD 02VO 02VC 02MD 02MO 02MC 09RD 02RO	1	0	6.36269402504	409.0	190.0	418	196	1
2.7	2015_May_07_1255	s	s	4	4	SIC	345	ABS	1	1	02VD 02VO 02VC 02MD 10MO 02MC 02RD 02RO	0	1	1.43585896492	None	None	None	None	1
2.7	2015_May_07_1255	s	s	4	4	SIC	346	RC	0	1	02VD 02VO 02VC 02MD 02MO 02MC 02RD 09RO	1	0	1.24702310562	73.0	-143.0	65	-141	1
2.7	2015_May_07_1255	s	s	4	4	SIC	347	RC	2	2	09VD 02VO 02VC 02MD 02MO 02MC 02RD 02RO	1	0	0.744567155838	-262.0	-339.0	-263	-339	1
2.7	2015_May_07_1255	s	s	4	4	SIC	348	RC	1	2	02VD 02VO 02VC 09MD 02MO 02MC 02RD 02RO	1	0	1.42357110977	-156.0	160.0	-161	158	1
2.7	2015_May_07_1255	s	s	4	4	SIC	349	RC	1	0	02VD 02VO 02VC 02MD 02MO 09MC 02RD 02RO	1	0	1.69424986839	-113.0	370.0	-113	369	1
2.7	2015_May_07_1255	s	s	4	4	SIC	350	RC	1	1	02VD 02VO 02VC 02MD 09MO 02MC 02RD 02RO	1	0	4.16638588905	150.0	276.0	155	270	1
2.7	2015_May_07_1255	s	s	4	4	SIC	351	ABS	2	1	02VD 10VO 02VC 02MD 02MO 02MC 02RD 02RO	0	1	1.98369693756	None	None	None	None	1
2.7	2015_May_07_1255	s	s	4	4	SIC	352	ABS	2	0	02VD 02VO 10VC 02MD 02MO 02MC 02RD 02RO	0	1	0.841237068176	None	None	None	None	1
2.7	2015_May_07_1255	s	s	4	4	SIC	353	RC	1	0	02VD 02VO 02VC 02MD 02MO 09MC 02RD 02RO	1	0	6.2495508194	369.0	-240.0	372	-237	1
2.7	2015_May_07_1255	s	s	4	4	SIC	354	RC	2	2	09VD 02VO 02VC 02MD 02MO 02MC 02RD 02RO	1	0	1.71776103973	-417.0	356.0	-419	352	1
2.7	2015_May_07_1255	s	s	4	4	SIC	355	ABS	0	1	02VD 02VO 02VC 02MD 02MO 02MC 02RD 10RO	0	1	3.37243390083	None	None	None	None	1
2.7	2015_May_07_1255	s	s	4	4	SIC	356	RC	2	0	02VD 02VO 09VC 02MD 02MO 02MC 02RD 02RO	1	0	1.54812312126	-320.0	185.0	-329	181	1
2.7	2015_May_07_1255	s	s	4	4	SIC	357	ABS	1	1	02VD 02VO 02VC 02MD 10MO 02MC 02RD 02RO	0	1	2.85725402832	None	None	None	None	1
2.7	2015_May_07_1255	s	s	4	4	SIC	358	RC	1	1	02VD 02VO 02VC 02MD 09MO 02MC 02RD 02RO	1	0	1.04738211632	-160.0	215.0	-155	216	1
2.7	2015_May_07_1255	s	s	4	4	SIC	359	ABS	2	1	02VD 10VO 02VC 02MD 02MO 02MC 02RD 02RO	0	1	2.37691497803	None	None	None	None	1
2.7	2015_May_07_1255	s	s	4	4	SIC	360	ABS	2	0	02VD 02VO 10VC 02MD 02MO 02MC 02RD 02RO	0	1	1.64371299744	None	None	None	None	1
2.7	2015_May_07_1255	s	s	4	4	SIC	361	RC	0	1	02VD 02VO 02VC 02MD 02MO 02MC 02RD 09RO	1	0	0.844370126724	-434.0	-335.0	-434	-340	1
2.7	2015_May_07_1255	s	s	4	4	SIC	362	RC	2	1	02VD 09VO 02VC 02MD 02MO 02MC 02RD 02RO	1	0	0.783101081848	-425.0	-59.0	-412	-53	1
2.7	2015_May_07_1255	s	s	4	4	SIC	363	ABS	2	2	10VD 02VO 02VC 02MD 02MO 02MC 02RD 02RO	0	1	1.95691204071	None	None	None	None	1
2.7	2015_May_07_1255	s	s	4	4	SIC	364	RC	0	2	02VD 02VO 02VC 02MD 02MO 02MC 09RD 02RO	1	0	1.69896197319	3.0	277.0	-4	278	1
2.7	2015_May_07_1255	s	s	4	4	SIC	365	ABS	1	0	02VD 02VO 02VC 02MD 02MO 10MC 02RD 02RO	0	1	2.43077898026	None	None	None	None	1
2.7	2015_May_07_1255	s	s	4	4	SIC	366	RC	1	2	02VD 02VO 02VC 09MD 02MO 02MC 02RD 02RO	1	0	2.43955802917	-478.0	-171.0	-471	-171	1
2.7	2015_May_07_1255	s	s	4	4	SIC	367	ABS	0	2	02VD 02VO 02VC 02MD 02MO 02MC 10RD 02RO	0	1	1.80707502365	None	None	None	None	1
2.7	2015_May_07_1255	s	s	4	4	SIC	368	ABS	1	2	02VD 02VO 02VC 10MD 02MO 02MC 02RD 02RO	0	1	1.60692310333	None	None	None	None	1
2.7	2015_May_07_1255	s	s	4	4	SIC	369	ABS	2	1	02VD 10VO 02VC 02MD 02MO 02MC 02RD 02RO	0	1	1.69430589676	None	None	None	None	1
2.7	2015_May_07_1255	s	s	4	4	SIC	370	RC	0	1	02VD 02VO 02VC 02MD 02MO 02MC 02RD 09RO	1	0	2.81256508827	418.0	-362.0	426	-357	1
2.7	2015_May_07_1255	s	s	4	4	SIC	371	ABS	0	1	02VD 02VO 02VC 02MD 02MO 02MC 02RD 10RO	0	1	2.88683581352	None	None	None	None	1
2.7	2015_May_07_1255	s	s	4	4	SIC	372	RC	2	0	02VD 02VO 09VC 02MD 02MO 02MC 02RD 02RO	1	0	0.936320066452	7.0	148.0	3	153	1
2.7	2015_May_07_1255	s	s	4	4	SIC	373	ABS	1	0	02VD 02VO 02VC 02MD 02MO 10MC 02RD 02RO	0	1	2.89000797272	None	None	None	None	1
2.7	2015_May_07_1255	s	s	4	4	SIC	374	RC	0	2	02VD 02VO 02VC 02MD 02MO 02MC 09RD 02RO	1	0	5.52628684044	-252.0	-194.0	-249	-192	1
2.7	2015_May_07_1255	s	s	4	4	SIC	375	RC	1	0	02VD 02VO 02VC 02MD 02MO 09MC 02RD 02RO	1	0	4.34274601936	429.0	387.0	428	392	1
2.7	2015_May_07_1255	s	s	4	4	SIC	376	ABS	0	2	02VD 02VO 02VC 02MD 02MO 02MC 10RD 02RO	0	1	1.91296291351	None	None	None	None	1
2.7	2015_May_07_1255	s	s	4	4	SIC	377	ABS	2	2	10VD 02VO 02VC 02MD 02MO 02MC 02RD 02RO	0	1	1.58323693275	None	None	None	None	1
2.7	2015_May_07_1255	s	s	4	4	SIC	378	ABS	1	2	02VD 02VO 02VC 10MD 02MO 02MC 02RD 02RO	0	1	1.38010406494	None	None	None	None	1
2.7	2015_May_07_1255	s	s	4	4	SIC	379	ABS	1	1	02VD 02VO 02VC 02MD 10MO 02MC 02RD 02RO	0	1	1.78889513016	None	None	None	None	1
2.7	2015_May_07_1255	s	s	4	4	SIC	380	RC	2	1	02VD 09VO 02VC 02MD 02MO 02MC 02RD 02RO	1	0	0.788033008575	59.0	3.0	62	9	1
2.7	2015_May_07_1255	s	s	4	4	SIC	381	ABS	2	0	02VD 02VO 10VC 02MD 02MO 02MC 02RD 02RO	0	1	1.55992293358	None	None	None	None	1
2.7	2015_May_07_1255	s	s	4	4	SIC	382	RC	1	1	02VD 02VO 02VC 02MD 09MO 02MC 02RD 02RO	1	0	1.20673894882	-44.0	-392.0	-40	-405	1
2.7	2015_May_07_1255	s	s	4	4	SIC	383	RC	2	2	09VD 02VO 02VC 02MD 02MO 02MC 02RD 02RO	1	0	0.855555057526	121.0	-308.0	117	-314	1
2.7	2015_May_07_1255	s	s	4	4	SIC	384	RC	1	2	02VD 02VO 02VC 09MD 02MO 02MC 02RD 02RO	0	1	1.3032720089	-186.0	57.0	None	None	0
2.7	2015_May_07_1255	s	s	4	4	SIC	385	RC	1	2	02VD 02VO 02VC 09MD 02MO 02MC 02RD 02RO	1	0	1.38384485245	487.0	29.0	493	24	1
2.7	2015_May_07_1255	s	s	4	4	SIC	386	ABS	2	1	02VD 10VO 02VC 02MD 02MO 02MC 02RD 02RO	0	1	1.68245410919	None	None	None	None	1
2.7	2015_May_07_1255	s	s	4	4	SIC	387	ABS	1	2	02VD 02VO 02VC 10MD 02MO 02MC 02RD 02RO	0	1	1.61194396019	None	None	None	None	1
2.7	2015_May_07_1255	s	s	4	4	SIC	388	RC	2	2	09VD 02VO 02VC 02MD 02MO 02MC 02RD 02RO	0	1	1.64284992218	222.0	237.0	None	None	0
2.7	2015_May_07_1255	s	s	4	4	SIC	389	ABS	1	0	02VD 02VO 02VC 02MD 02MO 10MC 02RD 02RO	0	1	2.09119200706	None	None	None	None	1
2.7	2015_May_07_1255	s	s	4	4	SIC	390	ABS	1	1	02VD 02VO 02VC 02MD 10MO 02MC 02RD 02RO	0	1	1.39479184151	None	None	None	None	1
2.7	2015_May_07_1255	s	s	4	4	SIC	391	RC	0	2	02VD 02VO 02VC 02MD 02MO 02MC 09RD 02RO	1	0	1.31808590889	-468.0	-270.0	-481	-265	1
2.7	2015_May_07_1255	s	s	4	4	SIC	392	ABS	2	0	02VD 02VO 10VC 02MD 02MO 02MC 02RD 02RO	0	1	2.10631299019	None	None	None	None	1
2.7	2015_May_07_1255	s	s	4	4	SIC	393	RC	1	0	02VD 02VO 02VC 02MD 02MO 09MC 02RD 02RO	1	0	0.806267976761	265.0	-78.0	257	-83	1
2.7	2015_May_07_1255	s	s	4	4	SIC	394	ABS	0	1	02VD 02VO 02VC 02MD 02MO 02MC 02RD 10RO	0	1	2.72575712204	None	None	None	None	1
2.7	2015_May_07_1255	s	s	4	4	SIC	395	RC	1	1	02VD 02VO 02VC 02MD 09MO 02MC 02RD 02RO	1	0	0.803462982178	28.0	-261.0	26	-260	1
2.7	2015_May_07_1255	s	s	4	4	SIC	396	ABS	0	2	02VD 02VO 02VC 02MD 02MO 02MC 10RD 02RO	0	1	2.34166717529	None	None	None	None	1
2.7	2015_May_07_1255	s	s	4	4	SIC	397	RC	0	1	02VD 02VO 02VC 02MD 02MO 02MC 02RD 09RO	1	0	1.40653896332	-311.0	-99.0	-302	-90	1
2.7	2015_May_07_1255	s	s	4	4	SIC	398	RC	2	1	02VD 09VO 02VC 02MD 02MO 02MC 02RD 02RO	1	0	1.47058916092	-354.0	349.0	-349	356	1
2.7	2015_May_07_1255	s	s	4	4	SIC	399	ABS	2	2	10VD 02VO 02VC 02MD 02MO 02MC 02RD 02RO	0	1	1.6893260479	None	None	None	None	1
2.7	2015_May_07_1255	s	s	4	4	SIC	400	RC	2	0	02VD 02VO 09VC 02MD 02MO 02MC 02RD 02RO	1	0	0.830075979233	160.0	119.0	166	114	1
2.7	2015_May_07_1255	s	s	4	4	SIC	401	ABS	1	0	02VD 02VO 02VC 02MD 02MO 10MC 02RD 02RO	0	1	2.92510199547	None	None	None	None	1
2.7	2015_May_07_1255	s	s	4	4	SIC	402	ABS	0	1	02VD 02VO 02VC 02MD 02MO 02MC 02RD 10RO	0	1	3.5623459816	None	None	None	None	1
2.7	2015_May_07_1255	s	s	4	4	SIC	403	ABS	1	1	02VD 02VO 02VC 02MD 10MO 02MC 02RD 02RO	0	1	2.05919599533	None	None	None	None	1
2.7	2015_May_07_1255	s	s	4	4	SIC	404	ABS	0	2	02VD 02VO 02VC 02MD 02MO 02MC 10RD 02RO	0	1	1.64723491669	None	None	None	None	1
2.7	2015_May_07_1255	s	s	4	4	SIC	405	ABS	2	2	10VD 02VO 02VC 02MD 02MO 02MC 02RD 02RO	0	1	1.35977101326	None	None	None	None	1
2.7	2015_May_07_1255	s	s	4	4	SIC	406	ABS	2	1	02VD 10VO 02VC 02MD 02MO 02MC 02RD 02RO	0	1	1.5413069725	None	None	None	None	1
2.7	2015_May_07_1255	s	s	4	4	SIC	407	RC	2	0	02VD 02VO 09VC 02MD 02MO 02MC 02RD 02RO	1	0	1.25453686714	-53.0	-273.0	-54	-271	1
2.7	2015_May_07_1255	s	s	4	4	SIC	408	RC	0	1	02VD 02VO 02VC 02MD 02MO 02MC 02RD 09RO	1	0	1.07051086426	79.0	-325.0	88	-322	1
2.7	2015_May_07_1255	s	s	4	4	SIC	409	ABS	1	2	02VD 02VO 02VC 10MD 02MO 02MC 02RD 02RO	0	1	1.26574897766	None	None	None	None	1
2.7	2015_May_07_1255	s	s	4	4	SIC	410	RC	0	2	02VD 02VO 02VC 02MD 02MO 02MC 09RD 02RO	1	0	0.712382078171	-242.0	87.0	-243	89	1
2.7	2015_May_07_1255	s	s	4	4	SIC	411	ABS	2	0	02VD 02VO 10VC 02MD 02MO 02MC 02RD 02RO	0	1	1.32944893837	None	None	None	None	1
2.7	2015_May_07_1255	s	s	4	4	SIC	412	RC	2	1	02VD 09VO 02VC 02MD 02MO 02MC 02RD 02RO	1	0	2.12620401382	495.0	280.0	494	287	1
2.7	2015_May_07_1255	s	s	4	4	SIC	413	RC	1	1	02VD 02VO 02VC 02MD 09MO 02MC 02RD 02RO	1	0	1.15289187431	-288.0	-339.0	-282	-338	1
2.7	2015_May_07_1255	s	s	4	4	SIC	414	RC	1	0	02VD 02VO 02VC 02MD 02MO 09MC 02RD 02RO	1	0	3.46356201172	-320.0	363.0	-314	365	1
2.7	2015_May_07_1255	s	s	4	4	SIC	415	RC	1	2	02VD 02VO 02VC 09MD 02MO 02MC 02RD 02RO	1	0	1.23007488251	181.0	-381.0	185	-374	1
2.7	2015_May_07_1255	s	s	4	4	SIC	416	RC	2	2	09VD 02VO 02VC 02MD 02MO 02MC 02RD 02RO	1	0	1.26625394821	258.0	-331.0	261	-333	1
2.7	2015_May_07_1255	s	s	4	4	SIC	417	ABS	0	2	02VD 02VO 02VC 02MD 02MO 02MC 10RD 02RO	0	1	2.43589520454	None	None	None	None	1
2.7	2015_May_07_1255	s	s	4	4	SIC	418	RC	0	1	02VD 02VO 02VC 02MD 02MO 02MC 02RD 09RO	1	0	1.61883592606	403.0	141.0	411	147	1
2.7	2015_May_07_1255	s	s	4	4	SIC	419	ABS	1	1	02VD 02VO 02VC 02MD 10MO 02MC 02RD 02RO	0	1	2.1064209938	None	None	None	None	1
2.7	2015_May_07_1255	s	s	4	4	SIC	420	ABS	1	0	02VD 02VO 02VC 02MD 02MO 10MC 02RD 02RO	0	1	3.12228298187	None	None	None	None	1
2.7	2015_May_07_1255	s	s	4	4	SIC	421	RC	2	1	02VD 09VO 02VC 02MD 02MO 02MC 02RD 02RO	1	0	1.60691595078	-263.0	139.0	-268	134	1
2.7	2015_May_07_1255	s	s	4	4	SIC	422	ABS	2	1	02VD 10VO 02VC 02MD 02MO 02MC 02RD 02RO	0	1	2.01914000511	None	None	None	None	1
2.7	2015_May_07_1255	s	s	4	4	SIC	423	ABS	2	2	10VD 02VO 02VC 02MD 02MO 02MC 02RD 02RO	0	1	2.56542778015	None	None	None	None	1
2.7	2015_May_07_1255	s	s	4	4	SIC	424	RC	2	2	09VD 02VO 02VC 02MD 02MO 02MC 02RD 02RO	1	0	0.811571836472	344.0	1.0	352	1	1
2.7	2015_May_07_1255	s	s	4	4	SIC	425	RC	0	2	02VD 02VO 02VC 02MD 02MO 02MC 09RD 02RO	1	0	0.905606031418	164.0	-116.0	166	-119	1
2.7	2015_May_07_1255	s	s	4	4	SIC	426	RC	1	0	02VD 02VO 02VC 02MD 02MO 09MC 02RD 02RO	1	0	1.16464185715	-383.0	-141.0	-388	-143	1
2.7	2015_May_07_1255	s	s	4	4	SIC	427	ABS	0	1	02VD 02VO 02VC 02MD 02MO 02MC 02RD 10RO	0	1	3.65998196602	None	None	None	None	1
2.7	2015_May_07_1255	s	s	4	4	SIC	428	RC	1	1	02VD 02VO 02VC 02MD 09MO 02MC 02RD 02RO	0	1	2.70163202286	-253.0	-25.0	None	None	0
2.7	2015_May_07_1255	s	s	4	4	SIC	429	ABS	2	0	02VD 02VO 10VC 02MD 02MO 02MC 02RD 02RO	0	1	1.78831410408	None	None	None	None	1
2.7	2015_May_07_1255	s	s	4	4	SIC	430	ABS	1	2	02VD 02VO 02VC 10MD 02MO 02MC 02RD 02RO	0	1	2.21224188805	None	None	None	None	1
2.7	2015_May_07_1255	s	s	4	4	SIC	431	RC	2	0	02VD 02VO 09VC 02MD 02MO 02MC 02RD 02RO	1	0	2.0420730114	-535.0	360.0	-536	356	1
2.7	2015_May_07_1255	s	s	4	4	SIC	432	RC	1	2	02VD 02VO 02VC 09MD 02MO 02MC 02RD 02RO	1	0	2.2899518013	-107.0	230.0	-109	228	1
2.7	2015_May_07_1255	s	s	4	4	SIC	433	ABS	0	1	02VD 02VO 02VC 02MD 02MO 02MC 02RD 10RO	0	1	3.33973407745	None	None	None	None	1
2.7	2015_May_07_1255	s	s	4	4	SIC	434	RC	1	2	02VD 02VO 02VC 09MD 02MO 02MC 02RD 02RO	1	0	1.04214882851	136.0	118.0	137	118	1
2.7	2015_May_07_1255	s	s	4	4	SIC	435	ABS	2	0	02VD 02VO 10VC 02MD 02MO 02MC 02RD 02RO	0	1	1.35958313942	None	None	None	None	1
2.7	2015_May_07_1255	s	s	4	4	SIC	436	ABS	1	2	02VD 02VO 02VC 10MD 02MO 02MC 02RD 02RO	0	1	2.74822616577	None	None	None	None	1
2.7	2015_May_07_1255	s	s	4	4	SIC	437	RC	2	0	02VD 02VO 09VC 02MD 02MO 02MC 02RD 02RO	1	0	5.17841291428	-368.0	325.0	-377	321	1
2.7	2015_May_07_1255	s	s	4	4	SIC	438	RC	1	1	02VD 02VO 02VC 02MD 09MO 02MC 02RD 02RO	1	0	1.48910403252	-366.0	144.0	-370	142	1
2.7	2015_May_07_1255	s	s	4	4	SIC	439	ABS	0	2	02VD 02VO 02VC 02MD 02MO 02MC 10RD 02RO	0	1	1.63060808182	None	None	None	None	1
2.7	2015_May_07_1255	s	s	4	4	SIC	440	RC	2	1	02VD 09VO 02VC 02MD 02MO 02MC 02RD 02RO	1	0	0.700581073761	-50.0	0.0	-47	4	1
2.7	2015_May_07_1255	s	s	4	4	SIC	441	RC	1	0	02VD 02VO 02VC 02MD 02MO 09MC 02RD 02RO	1	0	2.2475631237	312.0	-321.0	315	-321	1
2.7	2015_May_07_1255	s	s	4	4	SIC	442	RC	0	1	02VD 02VO 02VC 02MD 02MO 02MC 02RD 09RO	1	0	3.20795512199	350.0	233.0	356	231	1
2.7	2015_May_07_1255	s	s	4	4	SIC	443	ABS	2	2	10VD 02VO 02VC 02MD 02MO 02MC 02RD 02RO	0	1	0.985405921936	None	None	None	None	1
2.7	2015_May_07_1255	s	s	4	4	SIC	444	ABS	2	1	02VD 10VO 02VC 02MD 02MO 02MC 02RD 02RO	0	1	1.5963768959	None	None	None	None	1
2.7	2015_May_07_1255	s	s	4	4	SIC	445	ABS	1	1	02VD 02VO 02VC 02MD 10MO 02MC 02RD 02RO	0	1	2.18499708176	None	None	None	None	1
2.7	2015_May_07_1255	s	s	4	4	SIC	446	RC	2	2	09VD 02VO 02VC 02MD 02MO 02MC 02RD 02RO	1	0	0.630125999451	-126.0	155.0	-128	155	1
2.7	2015_May_07_1255	s	s	4	4	SIC	447	ABS	1	0	02VD 02VO 02VC 02MD 02MO 10MC 02RD 02RO	0	1	2.47945809364	None	None	None	None	1
2.7	2015_May_07_1255	s	s	4	4	SIC	448	RC	0	2	02VD 02VO 02VC 02MD 02MO 02MC 09RD 02RO	1	0	0.517486095428	23.0	-20.0	22	-18	1
2.7	2015_May_07_1255	s	s	4	4	SIC	449	ABS	1	2	02VD 02VO 02VC 10MD 02MO 02MC 02RD 02RO	0	1	1.5010869503	None	None	None	None	1
2.7	2015_May_07_1255	s	s	4	4	SIC	450	ABS	0	1	02VD 02VO 02VC 02MD 02MO 02MC 02RD 10RO	0	1	3.77278900146	None	None	None	None	1
2.7	2015_May_07_1255	s	s	4	4	SIC	451	ABS	2	0	02VD 02VO 10VC 02MD 02MO 02MC 02RD 02RO	0	1	2.0206861496	None	None	None	None	1
2.7	2015_May_07_1255	s	s	4	4	SIC	452	RC	2	1	02VD 09VO 02VC 02MD 02MO 02MC 02RD 02RO	1	0	0.748028039932	-99.0	-263.0	-101	-269	1
2.7	2015_May_07_1255	s	s	4	4	SIC	453	RC	1	0	02VD 02VO 02VC 02MD 02MO 09MC 02RD 02RO	1	0	0.559591054916	-31.0	40.0	-26	41	1
2.7	2015_May_07_1255	s	s	4	4	SIC	454	ABS	2	1	02VD 10VO 02VC 02MD 02MO 02MC 02RD 02RO	0	1	1.63551211357	None	None	None	None	1
2.7	2015_May_07_1255	s	s	4	4	SIC	455	RC	2	2	09VD 02VO 02VC 02MD 02MO 02MC 02RD 02RO	1	0	0.811589956284	-309.0	-292.0	-304	-296	1
2.7	2015_May_07_1255	s	s	4	4	SIC	456	RC	1	1	02VD 02VO 02VC 02MD 09MO 02MC 02RD 02RO	1	0	1.20657706261	73.0	318.0	64	316	1
2.7	2015_May_07_1255	s	s	4	4	SIC	457	RC	0	2	02VD 02VO 02VC 02MD 02MO 02MC 09RD 02RO	1	0	0.529027938843	66.0	26.0	61	28	1
2.7	2015_May_07_1255	s	s	4	4	SIC	458	RC	2	0	02VD 02VO 09VC 02MD 02MO 02MC 02RD 02RO	1	0	2.16167998314	-327.0	-9.0	-326	-10	1
2.7	2015_May_07_1255	s	s	4	4	SIC	459	ABS	2	2	10VD 02VO 02VC 02MD 02MO 02MC 02RD 02RO	0	1	2.03564596176	None	None	None	None	1
2.7	2015_May_07_1255	s	s	4	4	SIC	460	ABS	0	2	02VD 02VO 02VC 02MD 02MO 02MC 10RD 02RO	0	1	1.74833893776	None	None	None	None	1
2.7	2015_May_07_1255	s	s	4	4	SIC	461	ABS	1	1	02VD 02VO 02VC 02MD 10MO 02MC 02RD 02RO	0	1	1.70604801178	None	None	None	None	1
2.7	2015_May_07_1255	s	s	4	4	SIC	462	RC	1	2	02VD 02VO 02VC 09MD 02MO 02MC 02RD 02RO	1	0	1.20672297478	278.0	62.0	282	66	1
2.7	2015_May_07_1255	s	s	4	4	SIC	463	ABS	1	0	02VD 02VO 02VC 02MD 02MO 10MC 02RD 02RO	0	1	2.59744286537	None	None	None	None	1
2.7	2015_May_07_1255	s	s	4	4	SIC	464	RC	0	1	02VD 02VO 02VC 02MD 02MO 02MC 02RD 09RO	1	0	3.20093894005	-475.0	340.0	-478	330	1
2.7	2015_May_07_1255	s	s	4	4	SIC	465	RC	1	1	02VD 02VO 02VC 02MD 09MO 02MC 02RD 02RO	1	0	1.41846203804	314.0	224.0	306	230	1
2.7	2015_May_07_1255	s	s	4	4	SIC	466	RC	1	0	02VD 02VO 02VC 02MD 02MO 09MC 02RD 02RO	1	0	1.23086380959	-243.0	-128.0	-248	-126	1
2.7	2015_May_07_1255	s	s	4	4	SIC	467	RC	2	1	02VD 09VO 02VC 02MD 02MO 02MC 02RD 02RO	1	0	1.5026679039	40.0	282.0	52	283	1
2.7	2015_May_07_1255	s	s	4	4	SIC	468	ABS	0	1	02VD 02VO 02VC 02MD 02MO 02MC 02RD 10RO	0	1	3.12224602699	None	None	None	None	1
2.7	2015_May_07_1255	s	s	4	4	SIC	469	ABS	2	1	02VD 10VO 02VC 02MD 02MO 02MC 02RD 02RO	0	1	1.70612001419	None	None	None	None	1
2.7	2015_May_07_1255	s	s	4	4	SIC	470	RC	0	1	02VD 02VO 02VC 02MD 02MO 02MC 02RD 09RO	1	0	1.7588789463	-485.0	-141.0	-485	-148	1
2.7	2015_May_07_1255	s	s	4	4	SIC	471	ABS	1	2	02VD 02VO 02VC 10MD 02MO 02MC 02RD 02RO	0	1	1.99568891525	None	None	None	None	1
2.7	2015_May_07_1255	s	s	4	4	SIC	472	ABS	2	2	10VD 02VO 02VC 02MD 02MO 02MC 02RD 02RO	0	1	1.39700889587	None	None	None	None	1
2.7	2015_May_07_1255	s	s	4	4	SIC	473	ABS	0	2	02VD 02VO 02VC 02MD 02MO 02MC 10RD 02RO	0	1	1.88934183121	None	None	None	None	1
2.7	2015_May_07_1255	s	s	4	4	SIC	474	RC	0	2	02VD 02VO 02VC 02MD 02MO 02MC 09RD 02RO	1	0	1.282351017	518.0	-215.0	522	-208	1
2.7	2015_May_07_1255	s	s	4	4	SIC	475	RC	1	2	02VD 02VO 02VC 09MD 02MO 02MC 02RD 02RO	1	0	0.98813700676	55.0	-399.0	62	-395	1
2.7	2015_May_07_1255	s	s	4	4	SIC	476	ABS	2	0	02VD 02VO 10VC 02MD 02MO 02MC 02RD 02RO	0	1	1.84734487534	None	None	None	None	1
2.7	2015_May_07_1255	s	s	4	4	SIC	477	ABS	1	0	02VD 02VO 02VC 02MD 02MO 10MC 02RD 02RO	0	1	1.81914305687	None	None	None	None	1
2.7	2015_May_07_1255	s	s	4	4	SIC	478	RC	2	0	02VD 02VO 09VC 02MD 02MO 02MC 02RD 02RO	1	0	1.81880402565	466.0	175.0	471	170	1
2.7	2015_May_07_1255	s	s	4	4	SIC	479	ABS	1	1	02VD 02VO 02VC 02MD 10MO 02MC 02RD 02RO	0	1	2.41229486465	None	None	None	None	1
2.7	2015_May_07_1255	s	s	4	4	SIC	480	RC	2	2	09VD 02VO 02VC 02MD 02MO 02MC 02RD 02RO	1	0	0.750308990479	-36.0	-158.0	-31	-153	1
