Version	Date	Stimuli	Method	Subject	Session	Condition	Trial	Target	Channel1	Channel2	Distractors	LMouseButton	RMouseButton	RT	TargetX	TargetY	ResponseX	ResponseY	Correct
2.7	2015_May_06_1259	s	s	4	3	Capacity	1	RC	0	1	08RD 15RO	1	0	1.73559784889	320.0	191.0	319	191	1
2.7	2015_May_06_1259	s	s	4	3	Capacity	2	RC	0	2	15RD 08RO	1	0	2.30631399155	-380.0	399.0	-369	399	1
2.7	2015_May_06_1259	s	s	4	3	Capacity	3	ABS	0	1	08RD 16RO	0	1	4.90767288208	None	None	None	None	1
2.7	2015_May_06_1259	s	s	4	3	Capacity	4	ABS	0	2	16RD 08RO	0	1	3.57767009735	None	None	None	None	1
2.7	2015_May_06_1259	s	s	4	3	Capacity	5	RC	0	1	08RD 15RO	1	0	1.17288184166	422.0	-198.0	412	-196	1
2.7	2015_May_06_1259	s	s	4	3	Capacity	6	RC	0	2	15RD 08RO	1	0	0.988358974457	100.0	247.0	99	241	1
2.7	2015_May_06_1259	s	s	4	3	Capacity	7	ABS	0	1	08RD 16RO	0	1	3.5658891201	None	None	None	None	1
2.7	2015_May_06_1259	s	s	4	3	Capacity	8	ABS	0	2	16RD 08RO	0	1	4.17306303978	None	None	None	None	1
2.7	2015_May_06_1259	s	s	4	3	Capacity	9	ABS	0	1	08RD 16RO	0	1	5.97919821739	None	None	None	None	1
2.7	2015_May_06_1259	s	s	4	3	Capacity	10	RC	0	2	15RD 08RO	1	0	1.60004901886	47.0	-316.0	44	-321	1
2.7	2015_May_06_1259	s	s	4	3	Capacity	11	RC	0	1	08RD 15RO	1	0	1.30074596405	52.0	239.0	48	242	1
2.7	2015_May_06_1259	s	s	4	3	Capacity	12	ABS	0	2	16RD 08RO	0	1	6.00923705101	None	None	None	None	1
2.7	2015_May_06_1259	s	s	4	3	Capacity	13	ABS	0	1	08RD 16RO	0	1	4.30767798424	None	None	None	None	1
2.7	2015_May_06_1259	s	s	4	3	Capacity	14	RC	0	1	08RD 15RO	1	0	2.42404603958	-493.0	-295.0	-489	-297	1
2.7	2015_May_06_1259	s	s	4	3	Capacity	15	RC	0	2	15RD 08RO	1	0	2.89482593536	473.0	279.0	469	279	1
2.7	2015_May_06_1259	s	s	4	3	Capacity	16	ABS	0	2	16RD 08RO	0	1	3.4598698616	None	None	None	None	1
2.7	2015_May_06_1259	s	s	4	3	Capacity	17	RC	0	1	08RD 15RO	0	1	3.83657693863	394.0	-164.0	None	None	0
2.7	2015_May_06_1259	s	s	4	3	Capacity	18	ABS	0	2	16RD 08RO	0	1	3.16100597382	None	None	None	None	1
2.7	2015_May_06_1259	s	s	4	3	Capacity	19	RC	0	2	15RD 08RO	1	0	1.41865301132	-508.0	-389.0	-501	-392	1
2.7	2015_May_06_1259	s	s	4	3	Capacity	20	ABS	0	1	08RD 16RO	0	1	6.02145695686	None	None	None	None	1
2.7	2015_May_06_1259	s	s	4	3	Capacity	21	RC	0	1	08RD 15RO	1	0	1.0651910305	-324.0	33.0	-322	32	1
2.7	2015_May_06_1259	s	s	4	3	Capacity	22	RC	0	2	15RD 08RO	1	0	2.27781200409	336.0	346.0	338	343	1
2.7	2015_May_06_1259	s	s	4	3	Capacity	23	ABS	0	1	08RD 16RO	0	1	4.49574303627	None	None	None	None	1
2.7	2015_May_06_1259	s	s	4	3	Capacity	24	ABS	0	2	16RD 08RO	0	1	3.5013449192	None	None	None	None	1
2.7	2015_May_06_1259	s	s	4	3	Capacity	25	ABS	0	1	08RD 16RO	0	1	4.24513792992	None	None	None	None	1
2.7	2015_May_06_1259	s	s	4	3	Capacity	26	ABS	0	2	16RD 08RO	0	1	2.63223910332	None	None	None	None	1
2.7	2015_May_06_1259	s	s	4	3	Capacity	27	RC	0	1	08RD 15RO	1	0	1.1960170269	-456.0	-239.0	-457	-245	1
2.7	2015_May_06_1259	s	s	4	3	Capacity	28	RC	0	2	15RD 08RO	1	0	1.21856117249	-442.0	109.0	-441	102	1
2.7	2015_May_06_1259	s	s	4	3	Capacity	29	ABS	0	2	16RD 08RO	0	1	4.02004218102	None	None	None	None	1
2.7	2015_May_06_1259	s	s	4	3	Capacity	30	RC	0	2	15RD 08RO	1	0	1.23027896881	-321.0	-96.0	-323	-92	1
2.7	2015_May_06_1259	s	s	4	3	Capacity	31	ABS	0	1	08RD 16RO	0	1	4.23179411888	None	None	None	None	1
2.7	2015_May_06_1259	s	s	4	3	Capacity	32	RC	0	1	08RD 15RO	1	0	1.53639793396	-334.0	105.0	-336	96	1
2.7	2015_May_06_1259	s	s	4	3	Capacity	33	RC	0	1	08RD 15RO	1	0	0.925449848175	-38.0	-89.0	-43	-85	1
2.7	2015_May_06_1259	s	s	4	3	Capacity	34	ABS	0	2	16RD 08RO	0	1	3.98963499069	None	None	None	None	1
2.7	2015_May_06_1259	s	s	4	3	Capacity	35	ABS	0	1	08RD 16RO	0	1	4.27880907059	None	None	None	None	1
2.7	2015_May_06_1259	s	s	4	3	Capacity	36	RC	0	2	15RD 08RO	1	0	2.34831809998	359.0	-115.0	354	-111	1
2.7	2015_May_06_1259	s	s	4	3	Capacity	37	RC	0	1	08RD 15RO	0	1	4.38648700714	-335.0	-296.0	None	None	0
2.7	2015_May_06_1259	s	s	4	3	Capacity	38	ABS	0	2	16RD 08RO	0	1	3.87946581841	None	None	None	None	1
2.7	2015_May_06_1259	s	s	4	3	Capacity	39	ABS	0	1	08RD 16RO	0	1	5.6207549572	None	None	None	None	1
2.7	2015_May_06_1259	s	s	4	3	Capacity	40	RC	0	2	15RD 08RO	0	1	3.46641993523	-127.0	-126.0	None	None	0
2.7	2015_May_06_1259	s	s	4	3	Capacity	41	RC	0	2	15RD 08RO	1	0	2.15749788284	514.0	35.0	511	34	1
2.7	2015_May_06_1259	s	s	4	3	Capacity	42	ABS	0	1	08RD 16RO	0	1	4.26734304428	None	None	None	None	1
2.7	2015_May_06_1259	s	s	4	3	Capacity	43	RC	0	1	08RD 15RO	0	1	3.51578783989	-278.0	0.0	None	None	0
2.7	2015_May_06_1259	s	s	4	3	Capacity	44	ABS	0	2	16RD 08RO	0	1	3.71404886246	None	None	None	None	1
2.7	2015_May_06_1259	s	s	4	3	Capacity	45	RC	0	2	15RD 08RO	1	0	0.829993963242	-280.0	222.0	-269	228	1
2.7	2015_May_06_1259	s	s	4	3	Capacity	46	ABS	0	1	08RD 16RO	0	1	4.85565710068	None	None	None	None	1
2.7	2015_May_06_1259	s	s	4	3	Capacity	47	ABS	0	2	16RD 08RO	0	1	2.10624217987	None	None	None	None	1
2.7	2015_May_06_1259	s	s	4	3	Capacity	48	RC	0	1	08RD 15RO	1	0	0.823695898056	78.0	64.0	81	58	1
2.7	2015_May_06_1259	s	s	4	3	Capacity	49	RC	0	2	15RD 08RO	1	0	0.983585119247	15.0	-227.0	17	-231	1
2.7	2015_May_06_1259	s	s	4	3	Capacity	50	ABS	0	1	08RD 16RO	0	1	3.35399889946	None	None	None	None	1
2.7	2015_May_06_1259	s	s	4	3	Capacity	51	ABS	0	2	16RD 08RO	0	1	2.54771494865	None	None	None	None	1
2.7	2015_May_06_1259	s	s	4	3	Capacity	52	RC	0	1	08RD 15RO	1	0	3.75121998787	496.0	105.0	497	105	1
2.7	2015_May_06_1259	s	s	4	3	Capacity	53	RC	0	1	08RD 15RO	1	0	2.0907599926	514.0	-266.0	516	-258	1
2.7	2015_May_06_1259	s	s	4	3	Capacity	54	RC	0	2	15RD 08RO	0	1	3.89540314674	-294.0	74.0	None	None	0
2.7	2015_May_06_1259	s	s	4	3	Capacity	55	ABS	0	1	08RD 16RO	0	1	4.57835197449	None	None	None	None	1
2.7	2015_May_06_1259	s	s	4	3	Capacity	56	ABS	0	2	16RD 08RO	0	1	2.54837417603	None	None	None	None	1
2.7	2015_May_06_1259	s	s	4	3	Capacity	57	RC	0	1	08RD 15RO	1	0	3.22206115723	98.0	310.0	106	308	1
2.7	2015_May_06_1259	s	s	4	3	Capacity	58	ABS	0	2	16RD 08RO	0	1	3.42825484276	None	None	None	None	1
2.7	2015_May_06_1259	s	s	4	3	Capacity	59	RC	0	2	15RD 08RO	1	0	2.73817420006	-83.0	174.0	-75	178	1
2.7	2015_May_06_1259	s	s	4	3	Capacity	60	ABS	0	1	08RD 16RO	0	1	5.39711594582	None	None	None	None	1
2.7	2015_May_06_1259	s	s	4	3	Capacity	61	RC	0	1	08RD 15RO	1	0	4.74292802811	-111.0	373.0	-110	366	1
2.7	2015_May_06_1259	s	s	4	3	Capacity	62	RC	0	2	15RD 08RO	1	0	2.33685302734	-356.0	-275.0	-364	-271	1
2.7	2015_May_06_1259	s	s	4	3	Capacity	63	ABS	0	2	16RD 08RO	0	1	3.153881073	None	None	None	None	1
2.7	2015_May_06_1259	s	s	4	3	Capacity	64	ABS	0	1	08RD 16RO	0	1	4.07196307182	None	None	None	None	1
2.7	2015_May_06_1259	s	s	4	3	Capacity	1	RC	2	0	15VC 08MC	1	0	1.92968201637	-532.0	-249.0	-528	-246	1
2.7	2015_May_06_1259	s	s	4	3	Capacity	2	ABS	1	0	08VC 16MC	0	1	2.98398709297	None	None	None	None	1
2.7	2015_May_06_1259	s	s	4	3	Capacity	3	RC	1	0	08VC 15MC	1	0	1.02956199646	-203.0	160.0	-199	167	1
2.7	2015_May_06_1259	s	s	4	3	Capacity	4	ABS	2	0	16VC 08MC	0	1	3.14194488525	None	None	None	None	1
2.7	2015_May_06_1259	s	s	4	3	Capacity	5	ABS	2	0	16VC 08MC	0	1	4.12732720375	None	None	None	None	1
2.7	2015_May_06_1259	s	s	4	3	Capacity	6	RC	1	0	08VC 15MC	1	0	3.4834651947	428.0	147.0	437	147	1
2.7	2015_May_06_1259	s	s	4	3	Capacity	7	ABS	1	0	08VC 16MC	0	1	4.75469088554	None	None	None	None	1
2.7	2015_May_06_1259	s	s	4	3	Capacity	8	RC	2	0	15VC 08MC	1	0	0.8115670681	60.0	-25.0	50	-26	1
2.7	2015_May_06_1259	s	s	4	3	Capacity	9	ABS	1	0	08VC 16MC	0	1	5.69133090973	None	None	None	None	1
2.7	2015_May_06_1259	s	s	4	3	Capacity	10	RC	1	0	08VC 15MC	1	0	0.985518217087	-190.0	401.0	-186	399	1
2.7	2015_May_06_1259	s	s	4	3	Capacity	11	RC	2	0	15VC 08MC	1	0	0.76438498497	-198.0	-75.0	-197	-77	1
2.7	2015_May_06_1259	s	s	4	3	Capacity	12	ABS	2	0	16VC 08MC	0	1	2.61242985725	None	None	None	None	1
2.7	2015_May_06_1259	s	s	4	3	Capacity	13	RC	1	0	08VC 15MC	1	0	1.21176218987	178.0	410.0	173	412	1
2.7	2015_May_06_1259	s	s	4	3	Capacity	14	ABS	2	0	16VC 08MC	0	1	2.27111816406	None	None	None	None	1
2.7	2015_May_06_1259	s	s	4	3	Capacity	15	RC	2	0	15VC 08MC	1	0	1.65945506096	-69.0	-103.0	-71	-106	1
2.7	2015_May_06_1259	s	s	4	3	Capacity	16	ABS	1	0	08VC 16MC	0	1	2.69012379646	None	None	None	None	1
2.7	2015_May_06_1259	s	s	4	3	Capacity	17	RC	1	0	08VC 15MC	1	0	0.941134929657	249.0	58.0	242	56	1
2.7	2015_May_06_1259	s	s	4	3	Capacity	18	RC	2	0	15VC 08MC	1	0	1.03009295464	-61.0	-111.0	-62	-101	1
2.7	2015_May_06_1259	s	s	4	3	Capacity	19	ABS	2	0	16VC 08MC	0	1	2.26860308647	None	None	None	None	1
2.7	2015_May_06_1259	s	s	4	3	Capacity	20	ABS	1	0	08VC 16MC	0	1	3.32554793358	None	None	None	None	1
2.7	2015_May_06_1259	s	s	4	3	Capacity	21	ABS	2	0	16VC 08MC	0	1	2.72573399544	None	None	None	None	1
2.7	2015_May_06_1259	s	s	4	3	Capacity	22	RC	2	0	15VC 08MC	1	0	0.996365785599	237.0	-411.0	234	-409	1
2.7	2015_May_06_1259	s	s	4	3	Capacity	23	RC	1	0	08VC 15MC	1	0	0.890222072601	355.0	-96.0	353	-94	1
2.7	2015_May_06_1259	s	s	4	3	Capacity	24	ABS	1	0	08VC 16MC	0	1	3.21273493767	None	None	None	None	1
2.7	2015_May_06_1259	s	s	4	3	Capacity	25	RC	1	0	08VC 15MC	1	0	1.51777887344	376.0	358.0	386	356	1
2.7	2015_May_06_1259	s	s	4	3	Capacity	26	RC	2	0	15VC 08MC	1	0	1.38831806183	359.0	356.0	364	356	1
2.7	2015_May_06_1259	s	s	4	3	Capacity	27	ABS	1	0	08VC 16MC	0	1	3.62476706505	None	None	None	None	1
2.7	2015_May_06_1259	s	s	4	3	Capacity	28	ABS	2	0	16VC 08MC	0	1	3.1489508152	None	None	None	None	1
2.7	2015_May_06_1259	s	s	4	3	Capacity	29	ABS	2	0	16VC 08MC	0	1	4.36114001274	None	None	None	None	1
2.7	2015_May_06_1259	s	s	4	3	Capacity	30	RC	1	0	08VC 15MC	1	0	1.05307102203	-78.0	-233.0	-74	-237	1
2.7	2015_May_06_1259	s	s	4	3	Capacity	31	RC	2	0	15VC 08MC	1	0	1.45894098282	510.0	198.0	517	200	1
2.7	2015_May_06_1259	s	s	4	3	Capacity	32	ABS	1	0	08VC 16MC	0	1	3.09268808365	None	None	None	None	1
2.7	2015_May_06_1259	s	s	4	3	Capacity	33	ABS	1	0	08VC 16MC	0	1	3.3540019989	None	None	None	None	1
2.7	2015_May_06_1259	s	s	4	3	Capacity	34	RC	2	0	15VC 08MC	1	0	0.827028989792	331.0	74.0	328	69	1
2.7	2015_May_06_1259	s	s	4	3	Capacity	35	RC	1	0	08VC 15MC	1	0	1.7062060833	156.0	402.0	161	400	1
2.7	2015_May_06_1259	s	s	4	3	Capacity	36	ABS	2	0	16VC 08MC	0	1	2.75998902321	None	None	None	None	1
2.7	2015_May_06_1259	s	s	4	3	Capacity	37	RC	1	0	08VC 15MC	1	0	1.77675700188	-10.0	-341.0	-16	-341	1
2.7	2015_May_06_1259	s	s	4	3	Capacity	38	ABS	1	0	08VC 16MC	0	1	4.00147008896	None	None	None	None	1
2.7	2015_May_06_1259	s	s	4	3	Capacity	39	RC	2	0	15VC 08MC	1	0	1.59649419785	-466.0	-206.0	-471	-205	1
2.7	2015_May_06_1259	s	s	4	3	Capacity	40	ABS	2	0	16VC 08MC	0	1	3.9134979248	None	None	None	None	1
2.7	2015_May_06_1259	s	s	4	3	Capacity	41	RC	1	0	08VC 15MC	1	0	2.55360102654	-355.0	410.0	-352	414	1
2.7	2015_May_06_1259	s	s	4	3	Capacity	42	ABS	2	0	16VC 08MC	0	1	3.71903991699	None	None	None	None	1
2.7	2015_May_06_1259	s	s	4	3	Capacity	43	ABS	1	0	08VC 16MC	0	1	3.62843203545	None	None	None	None	1
2.7	2015_May_06_1259	s	s	4	3	Capacity	44	RC	2	0	15VC 08MC	1	0	1.02713894844	-286.0	378.0	-286	375	1
2.7	2015_May_06_1259	s	s	4	3	Capacity	45	RC	1	0	08VC 15MC	0	1	2.97247815132	-231.0	-65.0	None	None	0
2.7	2015_May_06_1259	s	s	4	3	Capacity	46	ABS	1	0	08VC 16MC	0	1	3.10176610947	None	None	None	None	1
2.7	2015_May_06_1259	s	s	4	3	Capacity	47	ABS	2	0	16VC 08MC	0	1	1.70613408089	None	None	None	None	1
2.7	2015_May_06_1259	s	s	4	3	Capacity	48	RC	2	0	15VC 08MC	1	0	0.912535905838	-71.0	-374.0	-64	-377	1
2.7	2015_May_06_1259	s	s	4	3	Capacity	49	RC	2	0	15VC 08MC	1	0	0.891740083694	-198.0	186.0	-196	192	1
2.7	2015_May_06_1259	s	s	4	3	Capacity	50	ABS	1	0	08VC 16MC	0	1	2.64773797989	None	None	None	None	1
2.7	2015_May_06_1259	s	s	4	3	Capacity	51	RC	1	0	08VC 15MC	1	0	1.25619196892	105.0	-176.0	112	-170	1
2.7	2015_May_06_1259	s	s	4	3	Capacity	52	ABS	2	0	16VC 08MC	0	1	2.9066529274	None	None	None	None	1
2.7	2015_May_06_1259	s	s	4	3	Capacity	53	RC	2	0	15VC 08MC	1	0	0.806556940079	-2.0	-105.0	-5	-99	1
2.7	2015_May_06_1259	s	s	4	3	Capacity	54	ABS	1	0	08VC 16MC	0	1	2.40059900284	None	None	None	None	1
2.7	2015_May_06_1259	s	s	4	3	Capacity	55	RC	1	0	08VC 15MC	1	0	1.28900408745	-358.0	246.0	-359	239	1
2.7	2015_May_06_1259	s	s	4	3	Capacity	56	ABS	2	0	16VC 08MC	0	1	2.53001189232	None	None	None	None	1
2.7	2015_May_06_1259	s	s	4	3	Capacity	57	RC	1	0	08VC 15MC	1	0	1.16126203537	73.0	-290.0	69	-287	1
2.7	2015_May_06_1259	s	s	4	3	Capacity	58	ABS	1	0	08VC 16MC	0	1	4.26685786247	None	None	None	None	1
2.7	2015_May_06_1259	s	s	4	3	Capacity	59	RC	2	0	15VC 08MC	1	0	2.48299098015	538.0	317.0	536	315	1
2.7	2015_May_06_1259	s	s	4	3	Capacity	60	ABS	2	0	16VC 08MC	0	1	2.81943488121	None	None	None	None	1
2.7	2015_May_06_1259	s	s	4	3	Capacity	61	ABS	2	0	16VC 08MC	0	1	3.08322191238	None	None	None	None	1
2.7	2015_May_06_1259	s	s	4	3	Capacity	62	ABS	1	0	08VC 16MC	0	1	3.10673308372	None	None	None	None	1
2.7	2015_May_06_1259	s	s	4	3	Capacity	63	RC	1	0	08VC 15MC	1	0	0.941010951996	51.0	-99.0	48	-100	1
2.7	2015_May_06_1259	s	s	4	3	Capacity	64	RC	2	0	15VC 08MC	1	0	1.31256604195	464.0	212.0	469	207	1
2.7	2015_May_06_1259	s	s	4	3	SIC	1	ABS	1	0	02VD 02VO 02VC 02MD 02MO 10MC 02RD 02RO	0	1	3.17769598961	None	None	None	None	1
2.7	2015_May_06_1259	s	s	4	3	SIC	2	ABS	0	2	02VD 02VO 02VC 02MD 02MO 02MC 10RD 02RO	0	1	3.30684614182	None	None	None	None	1
2.7	2015_May_06_1259	s	s	4	3	SIC	3	ABS	1	2	02VD 02VO 02VC 10MD 02MO 02MC 02RD 02RO	0	1	2.51831412315	None	None	None	None	1
2.7	2015_May_06_1259	s	s	4	3	SIC	4	RC	0	2	02VD 02VO 02VC 02MD 02MO 02MC 09RD 02RO	1	0	2.48295307159	-339.0	290.0	-345	283	1
2.7	2015_May_06_1259	s	s	4	3	SIC	5	RC	1	0	02VD 02VO 02VC 02MD 02MO 09MC 02RD 02RO	1	0	1.06462597847	508.0	-262.0	514	-263	1
2.7	2015_May_06_1259	s	s	4	3	SIC	6	RC	2	0	02VD 02VO 09VC 02MD 02MO 02MC 02RD 02RO	1	0	0.996639966965	190.0	207.0	195	206	1
2.7	2015_May_06_1259	s	s	4	3	SIC	7	RC	0	1	02VD 02VO 02VC 02MD 02MO 02MC 02RD 09RO	1	0	1.44715499878	312.0	-75.0	304	-71	1
2.7	2015_May_06_1259	s	s	4	3	SIC	8	ABS	2	0	02VD 02VO 10VC 02MD 02MO 02MC 02RD 02RO	0	1	3.01900410652	None	None	None	None	1
2.7	2015_May_06_1259	s	s	4	3	SIC	9	ABS	0	1	02VD 02VO 02VC 02MD 02MO 02MC 02RD 10RO	0	1	4.32594203949	None	None	None	None	1
2.7	2015_May_06_1259	s	s	4	3	SIC	10	ABS	1	1	02VD 02VO 02VC 02MD 10MO 02MC 02RD 02RO	0	1	2.31818199158	None	None	None	None	1
2.7	2015_May_06_1259	s	s	4	3	SIC	11	ABS	2	1	02VD 10VO 02VC 02MD 02MO 02MC 02RD 02RO	0	1	1.94818401337	None	None	None	None	1
2.7	2015_May_06_1259	s	s	4	3	SIC	12	RC	2	2	09VD 02VO 02VC 02MD 02MO 02MC 02RD 02RO	1	0	0.917490959167	183.0	-291.0	184	-302	1
2.7	2015_May_06_1259	s	s	4	3	SIC	13	RC	1	1	02VD 02VO 02VC 02MD 09MO 02MC 02RD 02RO	1	0	2.7065820694	436.0	310.0	444	316	1
2.7	2015_May_06_1259	s	s	4	3	SIC	14	ABS	2	2	10VD 02VO 02VC 02MD 02MO 02MC 02RD 02RO	0	1	2.20720100403	None	None	None	None	1
2.7	2015_May_06_1259	s	s	4	3	SIC	15	RC	2	1	02VD 09VO 02VC 02MD 02MO 02MC 02RD 02RO	1	0	0.858628034592	-143.0	125.0	-141	122	1
2.7	2015_May_06_1259	s	s	4	3	SIC	16	RC	1	2	02VD 02VO 02VC 09MD 02MO 02MC 02RD 02RO	1	0	1.1882288456	350.0	243.0	357	242	1
2.7	2015_May_06_1259	s	s	4	3	SIC	17	ABS	2	0	02VD 02VO 10VC 02MD 02MO 02MC 02RD 02RO	0	1	2.45450592041	None	None	None	None	1
2.7	2015_May_06_1259	s	s	4	3	SIC	18	RC	1	2	02VD 02VO 02VC 09MD 02MO 02MC 02RD 02RO	1	0	0.902365922928	115.0	-187.0	117	-191	1
2.7	2015_May_06_1259	s	s	4	3	SIC	19	ABS	1	1	02VD 02VO 02VC 02MD 10MO 02MC 02RD 02RO	0	1	2.8007619381	None	None	None	None	1
2.7	2015_May_06_1259	s	s	4	3	SIC	20	RC	1	1	02VD 02VO 02VC 02MD 09MO 02MC 02RD 02RO	1	0	1.68253397942	-213.0	-116.0	-210	-116	1
2.7	2015_May_06_1259	s	s	4	3	SIC	21	ABS	0	1	02VD 02VO 02VC 02MD 02MO 02MC 02RD 10RO	0	1	2.81931400299	None	None	None	None	1
2.7	2015_May_06_1259	s	s	4	3	SIC	22	ABS	0	2	02VD 02VO 02VC 02MD 02MO 02MC 10RD 02RO	0	1	2.44765782356	None	None	None	None	1
2.7	2015_May_06_1259	s	s	4	3	SIC	23	RC	0	1	02VD 02VO 02VC 02MD 02MO 02MC 02RD 09RO	1	0	0.738261938095	126.0	100.0	128	105	1
2.7	2015_May_06_1259	s	s	4	3	SIC	24	RC	2	2	09VD 02VO 02VC 02MD 02MO 02MC 02RD 02RO	1	0	2.80075192451	-356.0	401.0	-353	396	1
2.7	2015_May_06_1259	s	s	4	3	SIC	25	RC	0	2	02VD 02VO 02VC 02MD 02MO 02MC 09RD 02RO	1	0	1.88952684402	-353.0	210.0	-346	215	1
2.7	2015_May_06_1259	s	s	4	3	SIC	26	ABS	2	2	10VD 02VO 02VC 02MD 02MO 02MC 02RD 02RO	0	1	1.96175694466	None	None	None	None	1
2.7	2015_May_06_1259	s	s	4	3	SIC	27	RC	2	0	02VD 02VO 09VC 02MD 02MO 02MC 02RD 02RO	1	0	1.4706761837	394.0	-113.0	390	-124	1
2.7	2015_May_06_1259	s	s	4	3	SIC	28	RC	1	0	02VD 02VO 02VC 02MD 02MO 09MC 02RD 02RO	1	0	0.964592933655	143.0	2.0	140	2	1
2.7	2015_May_06_1259	s	s	4	3	SIC	29	ABS	1	0	02VD 02VO 02VC 02MD 02MO 10MC 02RD 02RO	0	1	2.74188184738	None	None	None	None	1
2.7	2015_May_06_1259	s	s	4	3	SIC	30	ABS	2	1	02VD 10VO 02VC 02MD 02MO 02MC 02RD 02RO	0	1	2.6679418087	None	None	None	None	1
2.7	2015_May_06_1259	s	s	4	3	SIC	31	ABS	1	2	02VD 02VO 02VC 10MD 02MO 02MC 02RD 02RO	0	1	2.08928704262	None	None	None	None	1
2.7	2015_May_06_1259	s	s	4	3	SIC	32	RC	2	1	02VD 09VO 02VC 02MD 02MO 02MC 02RD 02RO	1	0	2.0945649147	-248.0	-400.0	-254	-400	1
2.7	2015_May_06_1259	s	s	4	3	SIC	33	ABS	1	0	02VD 02VO 02VC 02MD 02MO 10MC 02RD 02RO	0	1	2.96925401688	None	None	None	None	1
2.7	2015_May_06_1259	s	s	4	3	SIC	34	ABS	2	1	02VD 10VO 02VC 02MD 02MO 02MC 02RD 02RO	0	1	2.03567385674	None	None	None	None	1
2.7	2015_May_06_1259	s	s	4	3	SIC	35	RC	0	1	02VD 02VO 02VC 02MD 02MO 02MC 02RD 09RO	1	0	1.36477589607	189.0	25.0	183	31	1
2.7	2015_May_06_1259	s	s	4	3	SIC	36	ABS	0	1	02VD 02VO 02VC 02MD 02MO 02MC 02RD 10RO	0	1	4.47894692421	None	None	None	None	1
2.7	2015_May_06_1259	s	s	4	3	SIC	37	ABS	1	2	02VD 02VO 02VC 10MD 02MO 02MC 02RD 02RO	0	1	2.41691303253	None	None	None	None	1
2.7	2015_May_06_1259	s	s	4	3	SIC	38	ABS	2	2	10VD 02VO 02VC 02MD 02MO 02MC 02RD 02RO	0	1	1.87771105766	None	None	None	None	1
2.7	2015_May_06_1259	s	s	4	3	SIC	39	RC	1	0	02VD 02VO 02VC 02MD 02MO 09MC 02RD 02RO	1	0	1.54791617393	99.0	-217.0	97	-221	1
2.7	2015_May_06_1259	s	s	4	3	SIC	40	RC	2	2	09VD 02VO 02VC 02MD 02MO 02MC 02RD 02RO	1	0	0.893949985504	56.0	-194.0	58	-206	1
2.7	2015_May_06_1259	s	s	4	3	SIC	41	RC	1	1	02VD 02VO 02VC 02MD 09MO 02MC 02RD 02RO	1	0	0.952701091766	123.0	-212.0	130	-211	1
2.7	2015_May_06_1259	s	s	4	3	SIC	42	RC	2	0	02VD 02VO 09VC 02MD 02MO 02MC 02RD 02RO	1	0	1.57228398323	-258.0	-56.0	-261	-62	1
2.7	2015_May_06_1259	s	s	4	3	SIC	43	ABS	2	0	02VD 02VO 10VC 02MD 02MO 02MC 02RD 02RO	0	1	3.49511504173	None	None	None	None	1
2.7	2015_May_06_1259	s	s	4	3	SIC	44	ABS	1	1	02VD 02VO 02VC 02MD 10MO 02MC 02RD 02RO	0	1	2.52504205704	None	None	None	None	1
2.7	2015_May_06_1259	s	s	4	3	SIC	45	RC	2	1	02VD 09VO 02VC 02MD 02MO 02MC 02RD 02RO	1	0	0.870328903198	-73.0	-392.0	-64	-393	1
2.7	2015_May_06_1259	s	s	4	3	SIC	46	ABS	0	2	02VD 02VO 02VC 02MD 02MO 02MC 10RD 02RO	0	1	2.54184794426	None	None	None	None	1
2.7	2015_May_06_1259	s	s	4	3	SIC	47	RC	0	2	02VD 02VO 02VC 02MD 02MO 02MC 09RD 02RO	1	0	0.606585025787	27.0	-21.0	30	-15	1
2.7	2015_May_06_1259	s	s	4	3	SIC	48	RC	1	2	02VD 02VO 02VC 09MD 02MO 02MC 02RD 02RO	1	0	1.03513503075	-120.0	-340.0	-115	-337	1
2.7	2015_May_06_1259	s	s	4	3	SIC	49	ABS	0	1	02VD 02VO 02VC 02MD 02MO 02MC 02RD 10RO	0	1	3.48369002342	None	None	None	None	1
2.7	2015_May_06_1259	s	s	4	3	SIC	50	ABS	2	0	02VD 02VO 10VC 02MD 02MO 02MC 02RD 02RO	0	1	2.32506299019	None	None	None	None	1
2.7	2015_May_06_1259	s	s	4	3	SIC	51	RC	1	1	02VD 02VO 02VC 02MD 09MO 02MC 02RD 02RO	1	0	1.66819381714	142.0	-398.0	146	-396	1
2.7	2015_May_06_1259	s	s	4	3	SIC	52	RC	1	0	02VD 02VO 02VC 02MD 02MO 09MC 02RD 02RO	1	0	1.43100500107	364.0	56.0	364	51	1
2.7	2015_May_06_1259	s	s	4	3	SIC	53	RC	2	0	02VD 02VO 09VC 02MD 02MO 02MC 02RD 02RO	1	0	0.729136943817	-6.0	17.0	-4	21	1
2.7	2015_May_06_1259	s	s	4	3	SIC	54	ABS	1	0	02VD 02VO 02VC 02MD 02MO 10MC 02RD 02RO	0	1	3.1656191349	None	None	None	None	1
2.7	2015_May_06_1259	s	s	4	3	SIC	55	ABS	2	2	10VD 02VO 02VC 02MD 02MO 02MC 02RD 02RO	0	1	2.11792302132	None	None	None	None	1
2.7	2015_May_06_1259	s	s	4	3	SIC	56	ABS	1	1	02VD 02VO 02VC 02MD 10MO 02MC 02RD 02RO	0	1	2.577242136	None	None	None	None	1
2.7	2015_May_06_1259	s	s	4	3	SIC	57	RC	0	2	02VD 02VO 02VC 02MD 02MO 02MC 09RD 02RO	1	0	0.831656932831	-424.0	-51.0	-419	-46	1
2.7	2015_May_06_1259	s	s	4	3	SIC	58	ABS	2	1	02VD 10VO 02VC 02MD 02MO 02MC 02RD 02RO	0	1	2.93736886978	None	None	None	None	1
2.7	2015_May_06_1259	s	s	4	3	SIC	59	ABS	0	2	02VD 02VO 02VC 02MD 02MO 02MC 10RD 02RO	0	1	2.56592702866	None	None	None	None	1
2.7	2015_May_06_1259	s	s	4	3	SIC	60	RC	2	1	02VD 09VO 02VC 02MD 02MO 02MC 02RD 02RO	1	0	1.74824500084	-468.0	241.0	-464	240	1
2.7	2015_May_06_1259	s	s	4	3	SIC	61	RC	1	2	02VD 02VO 02VC 09MD 02MO 02MC 02RD 02RO	1	0	1.75313901901	485.0	331.0	484	328	1
2.7	2015_May_06_1259	s	s	4	3	SIC	62	RC	2	2	09VD 02VO 02VC 02MD 02MO 02MC 02RD 02RO	1	0	0.95275592804	252.0	168.0	257	176	1
2.7	2015_May_06_1259	s	s	4	3	SIC	63	ABS	1	2	02VD 02VO 02VC 10MD 02MO 02MC 02RD 02RO	0	1	1.85544395447	None	None	None	None	1
2.7	2015_May_06_1259	s	s	4	3	SIC	64	RC	0	1	02VD 02VO 02VC 02MD 02MO 02MC 02RD 09RO	0	1	1.7843310833	291.0	-387.0	None	None	0
2.7	2015_May_06_1259	s	s	4	3	SIC	65	RC	0	2	02VD 02VO 02VC 02MD 02MO 02MC 09RD 02RO	1	0	0.882139921188	-25.0	346.0	-19	350	1
2.7	2015_May_06_1259	s	s	4	3	SIC	66	ABS	1	2	02VD 02VO 02VC 10MD 02MO 02MC 02RD 02RO	0	1	1.51283788681	None	None	None	None	1
2.7	2015_May_06_1259	s	s	4	3	SIC	67	RC	0	1	02VD 02VO 02VC 02MD 02MO 02MC 02RD 09RO	1	0	1.96527910233	-386.0	385.0	-374	393	1
2.7	2015_May_06_1259	s	s	4	3	SIC	68	RC	1	1	02VD 02VO 02VC 02MD 09MO 02MC 02RD 02RO	1	0	1.2073161602	375.0	-161.0	376	-177	1
2.7	2015_May_06_1259	s	s	4	3	SIC	69	ABS	2	2	10VD 02VO 02VC 02MD 02MO 02MC 02RD 02RO	0	1	2.37702298164	None	None	None	None	1
2.7	2015_May_06_1259	s	s	4	3	SIC	70	ABS	2	1	02VD 10VO 02VC 02MD 02MO 02MC 02RD 02RO	0	1	2.16517114639	None	None	None	None	1
2.7	2015_May_06_1259	s	s	4	3	SIC	71	RC	2	1	02VD 09VO 02VC 02MD 02MO 02MC 02RD 02RO	1	0	1.38871979713	328.0	271.0	333	265	1
2.7	2015_May_06_1259	s	s	4	3	SIC	72	ABS	0	1	02VD 02VO 02VC 02MD 02MO 02MC 02RD 10RO	0	1	3.45182609558	None	None	None	None	1
2.7	2015_May_06_1259	s	s	4	3	SIC	73	ABS	2	0	02VD 02VO 10VC 02MD 02MO 02MC 02RD 02RO	0	1	2.16091394424	None	None	None	None	1
2.7	2015_May_06_1259	s	s	4	3	SIC	74	RC	1	2	02VD 02VO 02VC 09MD 02MO 02MC 02RD 02RO	1	0	1.15292787552	259.0	-257.0	259	-262	1
2.7	2015_May_06_1259	s	s	4	3	SIC	75	RC	2	2	09VD 02VO 02VC 02MD 02MO 02MC 02RD 02RO	1	0	0.703461885452	49.0	-35.0	51	-39	1
2.7	2015_May_06_1259	s	s	4	3	SIC	76	ABS	0	2	02VD 02VO 02VC 02MD 02MO 02MC 10RD 02RO	0	1	2.16036200523	None	None	None	None	1
2.7	2015_May_06_1259	s	s	4	3	SIC	77	RC	2	0	02VD 02VO 09VC 02MD 02MO 02MC 02RD 02RO	1	0	2.05930399895	-460.0	280.0	-467	288	1
2.7	2015_May_06_1259	s	s	4	3	SIC	78	ABS	1	0	02VD 02VO 02VC 02MD 02MO 10MC 02RD 02RO	0	1	2.66632413864	None	None	None	None	1
2.7	2015_May_06_1259	s	s	4	3	SIC	79	RC	1	0	02VD 02VO 02VC 02MD 02MO 09MC 02RD 02RO	1	0	2.02383995056	80.0	-69.0	86	-66	1
2.7	2015_May_06_1259	s	s	4	3	SIC	80	ABS	1	1	02VD 02VO 02VC 02MD 10MO 02MC 02RD 02RO	0	1	2.57756614685	None	None	None	None	1
2.7	2015_May_06_1259	s	s	4	3	SIC	81	ABS	2	2	10VD 02VO 02VC 02MD 02MO 02MC 02RD 02RO	0	1	2.31819796562	None	None	None	None	1
2.7	2015_May_06_1259	s	s	4	3	SIC	82	RC	2	2	09VD 02VO 02VC 02MD 02MO 02MC 02RD 02RO	1	0	0.634926080704	-39.0	-71.0	-36	-69	1
2.7	2015_May_06_1259	s	s	4	3	SIC	83	ABS	2	1	02VD 10VO 02VC 02MD 02MO 02MC 02RD 02RO	0	1	2.09451699257	None	None	None	None	1
2.7	2015_May_06_1259	s	s	4	3	SIC	84	ABS	1	2	02VD 02VO 02VC 10MD 02MO 02MC 02RD 02RO	0	1	2.25451493263	None	None	None	None	1
2.7	2015_May_06_1259	s	s	4	3	SIC	85	RC	0	1	02VD 02VO 02VC 02MD 02MO 02MC 02RD 09RO	1	0	1.15284609795	170.0	86.0	163	89	1
2.7	2015_May_06_1259	s	s	4	3	SIC	86	RC	0	2	02VD 02VO 02VC 02MD 02MO 02MC 09RD 02RO	1	0	1.51141285896	-370.0	-137.0	-378	-133	1
2.7	2015_May_06_1259	s	s	4	3	SIC	87	ABS	1	1	02VD 02VO 02VC 02MD 10MO 02MC 02RD 02RO	0	1	2.5300860405	None	None	None	None	1
2.7	2015_May_06_1259	s	s	4	3	SIC	88	RC	1	0	02VD 02VO 02VC 02MD 02MO 09MC 02RD 02RO	1	0	1.04736614227	-455.0	-235.0	-461	-233	1
2.7	2015_May_06_1259	s	s	4	3	SIC	89	ABS	0	2	02VD 02VO 02VC 02MD 02MO 02MC 10RD 02RO	0	1	2.64499688148	None	None	None	None	1
2.7	2015_May_06_1259	s	s	4	3	SIC	90	RC	2	1	02VD 09VO 02VC 02MD 02MO 02MC 02RD 02RO	1	0	1.12741589546	335.0	-373.0	336	-374	1
2.7	2015_May_06_1259	s	s	4	3	SIC	91	ABS	2	0	02VD 02VO 10VC 02MD 02MO 02MC 02RD 02RO	0	1	2.29466485977	None	None	None	None	1
2.7	2015_May_06_1259	s	s	4	3	SIC	92	ABS	1	0	02VD 02VO 02VC 02MD 02MO 10MC 02RD 02RO	0	1	1.9885931015	None	None	None	None	1
2.7	2015_May_06_1259	s	s	4	3	SIC	93	ABS	0	1	02VD 02VO 02VC 02MD 02MO 02MC 02RD 10RO	0	1	3.3073348999	None	None	None	None	1
2.7	2015_May_06_1259	s	s	4	3	SIC	94	RC	1	2	02VD 02VO 02VC 09MD 02MO 02MC 02RD 02RO	1	0	1.1954870224	424.0	280.0	423	281	1
2.7	2015_May_06_1259	s	s	4	3	SIC	95	RC	2	0	02VD 02VO 09VC 02MD 02MO 02MC 02RD 02RO	1	0	1.12960410118	229.0	-136.0	224	-138	1
2.7	2015_May_06_1259	s	s	4	3	SIC	96	RC	1	1	02VD 02VO 02VC 02MD 09MO 02MC 02RD 02RO	1	0	1.43545079231	480.0	6.0	479	3	1
2.7	2015_May_06_1259	s	s	4	3	SIC	97	RC	2	2	09VD 02VO 02VC 02MD 02MO 02MC 02RD 02RO	1	0	1.89815092087	-492.0	-172.0	-490	-169	1
2.7	2015_May_06_1259	s	s	4	3	SIC	98	ABS	1	1	02VD 02VO 02VC 02MD 10MO 02MC 02RD 02RO	0	1	2.60723495483	None	None	None	None	1
2.7	2015_May_06_1259	s	s	4	3	SIC	99	ABS	0	2	02VD 02VO 02VC 02MD 02MO 02MC 10RD 02RO	0	1	2.22399902344	None	None	None	None	1
2.7	2015_May_06_1259	s	s	4	3	SIC	100	RC	1	1	02VD 02VO 02VC 02MD 09MO 02MC 02RD 02RO	1	0	0.929205179214	-110.0	-267.0	-112	-270	1
2.7	2015_May_06_1259	s	s	4	3	SIC	101	RC	0	2	02VD 02VO 02VC 02MD 02MO 02MC 09RD 02RO	1	0	1.17382407188	410.0	359.0	414	358	1
2.7	2015_May_06_1259	s	s	4	3	SIC	102	RC	2	0	02VD 02VO 09VC 02MD 02MO 02MC 02RD 02RO	1	0	1.23531508446	-426.0	167.0	-421	173	1
2.7	2015_May_06_1259	s	s	4	3	SIC	103	RC	2	1	02VD 09VO 02VC 02MD 02MO 02MC 02RD 02RO	1	0	1.38826298714	236.0	-124.0	238	-130	1
2.7	2015_May_06_1259	s	s	4	3	SIC	104	ABS	2	1	02VD 10VO 02VC 02MD 02MO 02MC 02RD 02RO	0	1	2.67498397827	None	None	None	None	1
2.7	2015_May_06_1259	s	s	4	3	SIC	105	ABS	2	0	02VD 02VO 10VC 02MD 02MO 02MC 02RD 02RO	0	1	1.89104008675	None	None	None	None	1
2.7	2015_May_06_1259	s	s	4	3	SIC	106	ABS	1	2	02VD 02VO 02VC 10MD 02MO 02MC 02RD 02RO	0	1	2.36569619179	None	None	None	None	1
2.7	2015_May_06_1259	s	s	4	3	SIC	107	ABS	2	2	10VD 02VO 02VC 02MD 02MO 02MC 02RD 02RO	0	1	2.53860998154	None	None	None	None	1
2.7	2015_May_06_1259	s	s	4	3	SIC	108	ABS	1	0	02VD 02VO 02VC 02MD 02MO 10MC 02RD 02RO	0	1	4.08092999458	None	None	None	None	1
2.7	2015_May_06_1259	s	s	4	3	SIC	109	RC	1	0	02VD 02VO 02VC 02MD 02MO 09MC 02RD 02RO	1	0	0.595931053162	-153.0	8.0	-148	15	1
2.7	2015_May_06_1259	s	s	4	3	SIC	110	RC	1	2	02VD 02VO 02VC 09MD 02MO 02MC 02RD 02RO	1	0	0.879991054535	-184.0	215.0	-193	213	1
2.7	2015_May_06_1259	s	s	4	3	SIC	111	ABS	0	1	02VD 02VO 02VC 02MD 02MO 02MC 02RD 10RO	0	1	2.89046096802	None	None	None	None	1
2.7	2015_May_06_1259	s	s	4	3	SIC	112	RC	0	1	02VD 02VO 02VC 02MD 02MO 02MC 02RD 09RO	1	0	1.34115290642	293.0	-217.0	292	-219	1
2.7	2015_May_06_1259	s	s	4	3	SIC	113	ABS	1	0	02VD 02VO 02VC 02MD 02MO 10MC 02RD 02RO	0	1	2.79590296745	None	None	None	None	1
2.7	2015_May_06_1259	s	s	4	3	SIC	114	RC	1	1	02VD 02VO 02VC 02MD 09MO 02MC 02RD 02RO	1	0	1.81245994568	312.0	-337.0	316	-343	1
2.7	2015_May_06_1259	s	s	4	3	SIC	115	RC	0	2	02VD 02VO 02VC 02MD 02MO 02MC 09RD 02RO	0	1	2.11544394493	-293.0	243.0	None	None	0
2.7	2015_May_06_1259	s	s	4	3	SIC	116	ABS	1	1	02VD 02VO 02VC 02MD 10MO 02MC 02RD 02RO	0	1	2.89044499397	None	None	None	None	1
2.7	2015_May_06_1259	s	s	4	3	SIC	117	ABS	1	2	02VD 02VO 02VC 10MD 02MO 02MC 02RD 02RO	0	1	2.61977601051	None	None	None	None	1
2.7	2015_May_06_1259	s	s	4	3	SIC	118	RC	1	2	02VD 02VO 02VC 09MD 02MO 02MC 02RD 02RO	1	0	1.5413479805	269.0	2.0	274	1	1
2.7	2015_May_06_1259	s	s	4	3	SIC	119	ABS	0	1	02VD 02VO 02VC 02MD 02MO 02MC 02RD 10RO	0	1	3.34877204895	None	None	None	None	1
2.7	2015_May_06_1259	s	s	4	3	SIC	120	ABS	2	0	02VD 02VO 10VC 02MD 02MO 02MC 02RD 02RO	0	1	2.01222801208	None	None	None	None	1
2.7	2015_May_06_1259	s	s	4	3	SIC	121	RC	2	2	09VD 02VO 02VC 02MD 02MO 02MC 02RD 02RO	1	0	0.729028940201	-291.0	-113.0	-295	-120	1
2.7	2015_May_06_1259	s	s	4	3	SIC	122	ABS	2	2	10VD 02VO 02VC 02MD 02MO 02MC 02RD 02RO	0	1	2.47666811943	None	None	None	None	1
2.7	2015_May_06_1259	s	s	4	3	SIC	123	RC	2	1	02VD 09VO 02VC 02MD 02MO 02MC 02RD 02RO	1	0	1.73810815811	-312.0	-327.0	-312	-326	1
2.7	2015_May_06_1259	s	s	4	3	SIC	124	RC	2	0	02VD 02VO 09VC 02MD 02MO 02MC 02RD 02RO	1	0	1.70604586601	-285.0	106.0	-277	109	1
2.7	2015_May_06_1259	s	s	4	3	SIC	125	RC	0	1	02VD 02VO 02VC 02MD 02MO 02MC 02RD 09RO	1	0	0.771333932877	-36.0	-71.0	-37	-82	1
2.7	2015_May_06_1259	s	s	4	3	SIC	126	RC	1	0	02VD 02VO 02VC 02MD 02MO 09MC 02RD 02RO	1	0	2.7065820694	-457.0	-110.0	-458	-111	1
2.7	2015_May_06_1259	s	s	4	3	SIC	127	ABS	0	2	02VD 02VO 02VC 02MD 02MO 02MC 10RD 02RO	0	1	2.60059285164	None	None	None	None	1
2.7	2015_May_06_1259	s	s	4	3	SIC	128	ABS	2	1	02VD 10VO 02VC 02MD 02MO 02MC 02RD 02RO	0	1	1.68256306648	None	None	None	None	1
2.7	2015_May_06_1259	s	s	4	3	SIC	129	RC	1	0	02VD 02VO 02VC 02MD 02MO 09MC 02RD 02RO	1	0	1.03027296066	458.0	-283.0	468	-285	1
2.7	2015_May_06_1259	s	s	4	3	SIC	130	ABS	0	2	02VD 02VO 02VC 02MD 02MO 02MC 10RD 02RO	0	1	1.74827384949	None	None	None	None	1
2.7	2015_May_06_1259	s	s	4	3	SIC	131	ABS	1	1	02VD 02VO 02VC 02MD 10MO 02MC 02RD 02RO	0	1	2.97736406326	None	None	None	None	1
2.7	2015_May_06_1259	s	s	4	3	SIC	132	RC	0	1	02VD 02VO 02VC 02MD 02MO 02MC 02RD 09RO	1	0	3.27146291733	-439.0	307.0	-441	311	1
2.7	2015_May_06_1259	s	s	4	3	SIC	133	RC	2	0	02VD 02VO 09VC 02MD 02MO 02MC 02RD 02RO	1	0	1.22966980934	-137.0	100.0	-141	102	1
2.7	2015_May_06_1259	s	s	4	3	SIC	134	RC	1	1	02VD 02VO 02VC 02MD 09MO 02MC 02RD 02RO	1	0	3.63172006607	-530.0	88.0	-523	86	1
2.7	2015_May_06_1259	s	s	4	3	SIC	135	RC	2	2	09VD 02VO 02VC 02MD 02MO 02MC 02RD 02RO	1	0	1.03510904312	-364.0	-303.0	-362	-304	1
2.7	2015_May_06_1259	s	s	4	3	SIC	136	RC	0	2	02VD 02VO 02VC 02MD 02MO 02MC 09RD 02RO	1	0	1.73649597168	-356.0	321.0	-349	319	1
2.7	2015_May_06_1259	s	s	4	3	SIC	137	ABS	0	1	02VD 02VO 02VC 02MD 02MO 02MC 02RD 10RO	0	1	3.71390199661	None	None	None	None	1
2.7	2015_May_06_1259	s	s	4	3	SIC	138	RC	2	1	02VD 09VO 02VC 02MD 02MO 02MC 02RD 02RO	1	0	1.01841211319	-126.0	-225.0	-132	-223	1
2.7	2015_May_06_1259	s	s	4	3	SIC	139	ABS	2	1	02VD 10VO 02VC 02MD 02MO 02MC 02RD 02RO	0	1	2.42409706116	None	None	None	None	1
2.7	2015_May_06_1259	s	s	4	3	SIC	140	ABS	2	2	10VD 02VO 02VC 02MD 02MO 02MC 02RD 02RO	0	1	2.00032806396	None	None	None	None	1
2.7	2015_May_06_1259	s	s	4	3	SIC	141	ABS	1	0	02VD 02VO 02VC 02MD 02MO 10MC 02RD 02RO	0	1	3.23640418053	None	None	None	None	1
2.7	2015_May_06_1259	s	s	4	3	SIC	142	RC	1	2	02VD 02VO 02VC 09MD 02MO 02MC 02RD 02RO	1	0	1.12478590012	147.0	281.0	155	290	1
2.7	2015_May_06_1259	s	s	4	3	SIC	143	ABS	2	0	02VD 02VO 10VC 02MD 02MO 02MC 02RD 02RO	0	1	2.57221913338	None	None	None	None	1
2.7	2015_May_06_1259	s	s	4	3	SIC	144	ABS	1	2	02VD 02VO 02VC 10MD 02MO 02MC 02RD 02RO	0	1	1.81972694397	None	None	None	None	1
2.7	2015_May_06_1259	s	s	4	3	SIC	145	ABS	0	2	02VD 02VO 02VC 02MD 02MO 02MC 10RD 02RO	0	1	2.77349591255	None	None	None	None	1
2.7	2015_May_06_1259	s	s	4	3	SIC	146	ABS	2	1	02VD 10VO 02VC 02MD 02MO 02MC 02RD 02RO	0	1	2.85962986946	None	None	None	None	1
2.7	2015_May_06_1259	s	s	4	3	SIC	147	RC	0	1	02VD 02VO 02VC 02MD 02MO 02MC 02RD 09RO	1	0	1.67081308365	511.0	-127.0	516	-119	1
2.7	2015_May_06_1259	s	s	4	3	SIC	148	ABS	1	1	02VD 02VO 02VC 02MD 10MO 02MC 02RD 02RO	0	1	2.15337705612	None	None	None	None	1
2.7	2015_May_06_1259	s	s	4	3	SIC	149	RC	1	0	02VD 02VO 02VC 02MD 02MO 09MC 02RD 02RO	1	0	1.03506493568	78.0	-356.0	82	-351	1
2.7	2015_May_06_1259	s	s	4	3	SIC	150	RC	2	1	02VD 09VO 02VC 02MD 02MO 02MC 02RD 02RO	1	0	1.1293129921	-334.0	-43.0	-336	-47	1
2.7	2015_May_06_1259	s	s	4	3	SIC	151	RC	2	0	02VD 02VO 09VC 02MD 02MO 02MC 02RD 02RO	1	0	1.39997005463	-329.0	-42.0	-329	-40	1
2.7	2015_May_06_1259	s	s	4	3	SIC	152	ABS	1	0	02VD 02VO 02VC 02MD 02MO 10MC 02RD 02RO	0	1	3.45468401909	None	None	None	None	1
2.7	2015_May_06_1259	s	s	4	3	SIC	153	RC	1	2	02VD 02VO 02VC 09MD 02MO 02MC 02RD 02RO	1	0	1.1007361412	-50.0	71.0	-48	79	1
2.7	2015_May_06_1259	s	s	4	3	SIC	154	ABS	2	0	02VD 02VO 10VC 02MD 02MO 02MC 02RD 02RO	0	1	2.47812318802	None	None	None	None	1
2.7	2015_May_06_1259	s	s	4	3	SIC	155	RC	2	2	09VD 02VO 02VC 02MD 02MO 02MC 02RD 02RO	1	0	1.29403185844	-52.0	322.0	-66	327	1
2.7	2015_May_06_1259	s	s	4	3	SIC	156	ABS	2	2	10VD 02VO 02VC 02MD 02MO 02MC 02RD 02RO	0	1	1.53626012802	None	None	None	None	1
2.7	2015_May_06_1259	s	s	4	3	SIC	157	RC	1	1	02VD 02VO 02VC 02MD 09MO 02MC 02RD 02RO	1	0	1.09403800964	-191.0	33.0	-190	40	1
2.7	2015_May_06_1259	s	s	4	3	SIC	158	ABS	0	1	02VD 02VO 02VC 02MD 02MO 02MC 02RD 10RO	0	1	2.48970413208	None	None	None	None	1
2.7	2015_May_06_1259	s	s	4	3	SIC	159	RC	0	2	02VD 02VO 02VC 02MD 02MO 02MC 09RD 02RO	1	0	2.98454189301	475.0	124.0	472	122	1
2.7	2015_May_06_1259	s	s	4	3	SIC	160	ABS	1	2	02VD 02VO 02VC 10MD 02MO 02MC 02RD 02RO	0	1	2.0674290657	None	None	None	None	1
2.7	2015_May_06_1259	s	s	4	3	SIC	161	ABS	1	1	02VD 02VO 02VC 02MD 10MO 02MC 02RD 02RO	0	1	2.34877896309	None	None	None	None	1
2.7	2015_May_06_1259	s	s	4	3	SIC	162	ABS	0	2	02VD 02VO 02VC 02MD 02MO 02MC 10RD 02RO	0	1	2.20700502396	None	None	None	None	1
2.7	2015_May_06_1259	s	s	4	3	SIC	163	RC	2	0	02VD 02VO 09VC 02MD 02MO 02MC 02RD 02RO	1	0	1.42361712456	-366.0	147.0	-365	144	1
2.7	2015_May_06_1259	s	s	4	3	SIC	164	ABS	2	0	02VD 02VO 10VC 02MD 02MO 02MC 02RD 02RO	0	1	2.4543390274	None	None	None	None	1
2.7	2015_May_06_1259	s	s	4	3	SIC	165	RC	0	1	02VD 02VO 02VC 02MD 02MO 02MC 02RD 09RO	1	0	1.87717485428	308.0	329.0	317	334	1
2.7	2015_May_06_1259	s	s	4	3	SIC	166	ABS	2	2	10VD 02VO 02VC 02MD 02MO 02MC 02RD 02RO	0	1	1.88813900948	None	None	None	None	1
2.7	2015_May_06_1259	s	s	4	3	SIC	167	ABS	1	0	02VD 02VO 02VC 02MD 02MO 10MC 02RD 02RO	0	1	3.07188606262	None	None	None	None	1
2.7	2015_May_06_1259	s	s	4	3	SIC	168	ABS	0	1	02VD 02VO 02VC 02MD 02MO 02MC 02RD 10RO	0	1	2.79582595825	None	None	None	None	1
2.7	2015_May_06_1259	s	s	4	3	SIC	169	RC	2	1	02VD 09VO 02VC 02MD 02MO 02MC 02RD 02RO	1	0	1.03276205063	-324.0	74.0	-324	68	1
2.7	2015_May_06_1259	s	s	4	3	SIC	170	ABS	2	1	02VD 10VO 02VC 02MD 02MO 02MC 02RD 02RO	0	1	1.4353427887	None	None	None	None	1
2.7	2015_May_06_1259	s	s	4	3	SIC	171	ABS	1	2	02VD 02VO 02VC 10MD 02MO 02MC 02RD 02RO	0	1	2.01938509941	None	None	None	None	1
2.7	2015_May_06_1259	s	s	4	3	SIC	172	RC	1	2	02VD 02VO 02VC 09MD 02MO 02MC 02RD 02RO	1	0	1.36473608017	-75.0	-353.0	-71	-360	1
2.7	2015_May_06_1259	s	s	4	3	SIC	173	RC	1	0	02VD 02VO 02VC 02MD 02MO 09MC 02RD 02RO	1	0	0.996063947678	-446.0	-372.0	-436	-373	1
2.7	2015_May_06_1259	s	s	4	3	SIC	174	RC	2	2	09VD 02VO 02VC 02MD 02MO 02MC 02RD 02RO	1	0	0.853286981583	82.0	-76.0	76	-74	1
2.7	2015_May_06_1259	s	s	4	3	SIC	175	RC	1	1	02VD 02VO 02VC 02MD 09MO 02MC 02RD 02RO	1	0	1.07039403915	-54.0	-315.0	-56	-317	1
2.7	2015_May_06_1259	s	s	4	3	SIC	176	RC	0	2	02VD 02VO 02VC 02MD 02MO 02MC 09RD 02RO	1	0	1.85415196419	283.0	-213.0	285	-208	1
2.7	2015_May_06_1259	s	s	4	3	SIC	177	ABS	0	1	02VD 02VO 02VC 02MD 02MO 02MC 02RD 10RO	0	1	2.84291887283	None	None	None	None	1
2.7	2015_May_06_1259	s	s	4	3	SIC	178	RC	2	1	02VD 09VO 02VC 02MD 02MO 02MC 02RD 02RO	0	1	2.11803603172	38.0	200.0	None	None	0
2.7	2015_May_06_1259	s	s	4	3	SIC	179	RC	0	1	02VD 02VO 02VC 02MD 02MO 02MC 02RD 09RO	1	0	3.26657104492	539.0	-29.0	546	-30	1
2.7	2015_May_06_1259	s	s	4	3	SIC	180	RC	2	2	09VD 02VO 02VC 02MD 02MO 02MC 02RD 02RO	1	0	1.30587100983	-459.0	-279.0	-461	-279	1
2.7	2015_May_06_1259	s	s	4	3	SIC	181	ABS	2	1	02VD 10VO 02VC 02MD 02MO 02MC 02RD 02RO	0	1	1.61560201645	None	None	None	None	1
2.7	2015_May_06_1259	s	s	4	3	SIC	182	ABS	1	2	02VD 02VO 02VC 10MD 02MO 02MC 02RD 02RO	0	1	1.7178812027	None	None	None	None	1
2.7	2015_May_06_1259	s	s	4	3	SIC	183	ABS	2	0	02VD 02VO 10VC 02MD 02MO 02MC 02RD 02RO	0	1	2.01214289665	None	None	None	None	1
2.7	2015_May_06_1259	s	s	4	3	SIC	184	ABS	1	0	02VD 02VO 02VC 02MD 02MO 10MC 02RD 02RO	0	1	2.47779297829	None	None	None	None	1
2.7	2015_May_06_1259	s	s	4	3	SIC	185	ABS	1	1	02VD 02VO 02VC 02MD 10MO 02MC 02RD 02RO	0	1	1.96495389938	None	None	None	None	1
2.7	2015_May_06_1259	s	s	4	3	SIC	186	RC	0	2	02VD 02VO 02VC 02MD 02MO 02MC 09RD 02RO	1	0	0.72918009758	-126.0	107.0	-121	112	1
2.7	2015_May_06_1259	s	s	4	3	SIC	187	RC	2	0	02VD 02VO 09VC 02MD 02MO 02MC 02RD 02RO	1	0	1.46562409401	445.0	306.0	457	307	1
2.7	2015_May_06_1259	s	s	4	3	SIC	188	RC	1	2	02VD 02VO 02VC 09MD 02MO 02MC 02RD 02RO	1	0	1.2773411274	-140.0	305.0	-136	305	1
2.7	2015_May_06_1259	s	s	4	3	SIC	189	RC	1	1	02VD 02VO 02VC 02MD 09MO 02MC 02RD 02RO	1	0	1.12930202484	60.0	-205.0	64	-207	1
2.7	2015_May_06_1259	s	s	4	3	SIC	190	ABS	0	2	02VD 02VO 02VC 02MD 02MO 02MC 10RD 02RO	0	1	1.94149208069	None	None	None	None	1
2.7	2015_May_06_1259	s	s	4	3	SIC	191	RC	1	0	02VD 02VO 02VC 02MD 02MO 09MC 02RD 02RO	1	0	1.31561398506	18.0	-281.0	9	-275	1
2.7	2015_May_06_1259	s	s	4	3	SIC	192	ABS	2	2	10VD 02VO 02VC 02MD 02MO 02MC 02RD 02RO	0	1	2.07103395462	None	None	None	None	1
2.7	2015_May_06_1259	s	s	4	3	SIC	193	ABS	1	1	02VD 02VO 02VC 02MD 10MO 02MC 02RD 02RO	0	1	1.52953386307	None	None	None	None	1
2.7	2015_May_06_1259	s	s	4	3	SIC	194	ABS	2	2	10VD 02VO 02VC 02MD 02MO 02MC 02RD 02RO	0	1	1.27054786682	None	None	None	None	1
2.7	2015_May_06_1259	s	s	4	3	SIC	195	RC	2	1	02VD 09VO 02VC 02MD 02MO 02MC 02RD 02RO	1	0	0.618238925934	-144.0	20.0	-146	17	1
2.7	2015_May_06_1259	s	s	4	3	SIC	196	ABS	1	2	02VD 02VO 02VC 10MD 02MO 02MC 02RD 02RO	0	1	1.90622091293	None	None	None	None	1
2.7	2015_May_06_1259	s	s	4	3	SIC	197	ABS	1	0	02VD 02VO 02VC 02MD 02MO 10MC 02RD 02RO	0	1	1.81573700905	None	None	None	None	1
2.7	2015_May_06_1259	s	s	4	3	SIC	198	RC	1	2	02VD 02VO 02VC 09MD 02MO 02MC 02RD 02RO	1	0	1.43034720421	444.0	-111.0	453	-112	1
2.7	2015_May_06_1259	s	s	4	3	SIC	199	RC	1	0	02VD 02VO 02VC 02MD 02MO 09MC 02RD 02RO	1	0	0.858601808548	-153.0	56.0	-152	60	1
2.7	2015_May_06_1259	s	s	4	3	SIC	200	RC	0	1	02VD 02VO 02VC 02MD 02MO 02MC 02RD 09RO	1	0	3.36073207855	131.0	-352.0	129	-344	1
2.7	2015_May_06_1259	s	s	4	3	SIC	201	ABS	2	0	02VD 02VO 10VC 02MD 02MO 02MC 02RD 02RO	0	1	2.16010689735	None	None	None	None	1
2.7	2015_May_06_1259	s	s	4	3	SIC	202	RC	2	2	09VD 02VO 02VC 02MD 02MO 02MC 02RD 02RO	1	0	0.582960128784	-47.0	26.0	-54	21	1
2.7	2015_May_06_1259	s	s	4	3	SIC	203	RC	0	2	02VD 02VO 02VC 02MD 02MO 02MC 09RD 02RO	1	0	1.082228899	220.0	-242.0	227	-239	1
2.7	2015_May_06_1259	s	s	4	3	SIC	204	ABS	0	2	02VD 02VO 02VC 02MD 02MO 02MC 10RD 02RO	0	1	2.51325798035	None	None	None	None	1
2.7	2015_May_06_1259	s	s	4	3	SIC	205	RC	2	0	02VD 02VO 09VC 02MD 02MO 02MC 02RD 02RO	1	0	1.70127105713	224.0	330.0	234	335	1
2.7	2015_May_06_1259	s	s	4	3	SIC	206	RC	1	1	02VD 02VO 02VC 02MD 09MO 02MC 02RD 02RO	1	0	1.07035803795	375.0	-6.0	375	-14	1
2.7	2015_May_06_1259	s	s	4	3	SIC	207	ABS	2	1	02VD 10VO 02VC 02MD 02MO 02MC 02RD 02RO	0	1	2.66617298126	None	None	None	None	1
2.7	2015_May_06_1259	s	s	4	3	SIC	208	ABS	0	1	02VD 02VO 02VC 02MD 02MO 02MC 02RD 10RO	0	1	3.22092604637	None	None	None	None	1
2.7	2015_May_06_1259	s	s	4	3	SIC	209	RC	1	1	02VD 02VO 02VC 02MD 09MO 02MC 02RD 02RO	1	0	0.924206018448	-361.0	-284.0	-367	-289	1
2.7	2015_May_06_1259	s	s	4	3	SIC	210	ABS	1	1	02VD 02VO 02VC 02MD 10MO 02MC 02RD 02RO	0	1	2.17692995071	None	None	None	None	1
2.7	2015_May_06_1259	s	s	4	3	SIC	211	ABS	0	2	02VD 02VO 02VC 02MD 02MO 02MC 10RD 02RO	0	1	2.37206697464	None	None	None	None	1
2.7	2015_May_06_1259	s	s	4	3	SIC	212	ABS	0	1	02VD 02VO 02VC 02MD 02MO 02MC 02RD 10RO	0	1	4.70254802704	None	None	None	None	1
2.7	2015_May_06_1259	s	s	4	3	SIC	213	RC	1	2	02VD 02VO 02VC 09MD 02MO 02MC 02RD 02RO	1	0	1.16459584236	-508.0	84.0	-510	84	1
2.7	2015_May_06_1259	s	s	4	3	SIC	214	RC	2	1	02VD 09VO 02VC 02MD 02MO 02MC 02RD 02RO	1	0	1.39518213272	-404.0	191.0	-410	187	1
2.7	2015_May_06_1259	s	s	4	3	SIC	215	RC	2	2	09VD 02VO 02VC 02MD 02MO 02MC 02RD 02RO	1	0	1.08905506134	159.0	-135.0	160	-142	1
2.7	2015_May_06_1259	s	s	4	3	SIC	216	ABS	2	2	10VD 02VO 02VC 02MD 02MO 02MC 02RD 02RO	0	1	2.01800990105	None	None	None	None	1
2.7	2015_May_06_1259	s	s	4	3	SIC	217	RC	0	2	02VD 02VO 02VC 02MD 02MO 02MC 09RD 02RO	1	0	1.95341587067	-460.0	-78.0	-459	-80	1
2.7	2015_May_06_1259	s	s	4	3	SIC	218	RC	2	0	02VD 02VO 09VC 02MD 02MO 02MC 02RD 02RO	1	0	0.705655813217	117.0	-64.0	125	-63	1
2.7	2015_May_06_1259	s	s	4	3	SIC	219	ABS	1	2	02VD 02VO 02VC 10MD 02MO 02MC 02RD 02RO	0	1	1.96187186241	None	None	None	None	1
2.7	2015_May_06_1259	s	s	4	3	SIC	220	RC	0	1	02VD 02VO 02VC 02MD 02MO 02MC 02RD 09RO	0	1	3.4479970932	229.0	-147.0	None	None	0
2.7	2015_May_06_1259	s	s	4	3	SIC	221	RC	1	0	02VD 02VO 02VC 02MD 02MO 09MC 02RD 02RO	1	0	0.772202968597	148.0	140.0	150	137	1
2.7	2015_May_06_1259	s	s	4	3	SIC	222	ABS	2	0	02VD 02VO 10VC 02MD 02MO 02MC 02RD 02RO	0	1	3.0361559391	None	None	None	None	1
2.7	2015_May_06_1259	s	s	4	3	SIC	223	ABS	1	0	02VD 02VO 02VC 02MD 02MO 10MC 02RD 02RO	0	1	2.38534593582	None	None	None	None	1
2.7	2015_May_06_1259	s	s	4	3	SIC	224	ABS	2	1	02VD 10VO 02VC 02MD 02MO 02MC 02RD 02RO	0	1	1.54927396774	None	None	None	None	1
2.7	2015_May_06_1259	s	s	4	3	SIC	225	ABS	0	2	02VD 02VO 02VC 02MD 02MO 02MC 10RD 02RO	0	1	1.71388101578	None	None	None	None	1
2.7	2015_May_06_1259	s	s	4	3	SIC	226	ABS	0	1	02VD 02VO 02VC 02MD 02MO 02MC 02RD 10RO	0	1	3.01922798157	None	None	None	None	1
2.7	2015_May_06_1259	s	s	4	3	SIC	227	ABS	1	2	02VD 02VO 02VC 10MD 02MO 02MC 02RD 02RO	0	1	1.4201169014	None	None	None	None	1
2.7	2015_May_06_1259	s	s	4	3	SIC	228	ABS	2	1	02VD 10VO 02VC 02MD 02MO 02MC 02RD 02RO	0	1	1.75312685966	None	None	None	None	1
2.7	2015_May_06_1259	s	s	4	3	SIC	229	RC	1	2	02VD 02VO 02VC 09MD 02MO 02MC 02RD 02RO	1	0	0.890474081039	-72.0	-58.0	-79	-59	1
2.7	2015_May_06_1259	s	s	4	3	SIC	230	RC	2	2	09VD 02VO 02VC 02MD 02MO 02MC 02RD 02RO	1	0	0.712905883789	-180.0	-143.0	-188	-149	1
2.7	2015_May_06_1259	s	s	4	3	SIC	231	RC	1	0	02VD 02VO 02VC 02MD 02MO 09MC 02RD 02RO	1	0	1.5060107708	-438.0	232.0	-441	231	1
2.7	2015_May_06_1259	s	s	4	3	SIC	232	RC	0	2	02VD 02VO 02VC 02MD 02MO 02MC 09RD 02RO	1	0	1.77370905876	335.0	-142.0	337	-140	1
2.7	2015_May_06_1259	s	s	4	3	SIC	233	ABS	2	2	10VD 02VO 02VC 02MD 02MO 02MC 02RD 02RO	0	1	1.80029296875	None	None	None	None	1
2.7	2015_May_06_1259	s	s	4	3	SIC	234	ABS	2	0	02VD 02VO 10VC 02MD 02MO 02MC 02RD 02RO	0	1	1.68880605698	None	None	None	None	1
2.7	2015_May_06_1259	s	s	4	3	SIC	235	RC	0	1	02VD 02VO 02VC 02MD 02MO 02MC 02RD 09RO	1	0	1.50325703621	235.0	368.0	245	369	1
2.7	2015_May_06_1259	s	s	4	3	SIC	236	RC	2	0	02VD 02VO 09VC 02MD 02MO 02MC 02RD 02RO	1	0	1.764980793	207.0	-133.0	208	-141	1
2.7	2015_May_06_1259	s	s	4	3	SIC	237	ABS	1	1	02VD 02VO 02VC 02MD 10MO 02MC 02RD 02RO	0	1	1.94147491455	None	None	None	None	1
2.7	2015_May_06_1259	s	s	4	3	SIC	238	ABS	1	0	02VD 02VO 02VC 02MD 02MO 10MC 02RD 02RO	0	1	2.21226215363	None	None	None	None	1
2.7	2015_May_06_1259	s	s	4	3	SIC	239	RC	2	1	02VD 09VO 02VC 02MD 02MO 02MC 02RD 02RO	1	0	1.00658202171	176.0	112.0	172	109	1
2.7	2015_May_06_1259	s	s	4	3	SIC	240	RC	1	1	02VD 02VO 02VC 02MD 09MO 02MC 02RD 02RO	1	0	1.26557207108	-327.0	80.0	-331	90	1
2.7	2015_May_06_1259	s	s	4	3	SIC	241	RC	0	1	02VD 02VO 02VC 02MD 02MO 02MC 02RD 09RO	0	1	2.76046085358	355.0	291.0	None	None	0
2.7	2015_May_06_1259	s	s	4	3	SIC	242	RC	2	1	02VD 09VO 02VC 02MD 02MO 02MC 02RD 02RO	1	0	1.02341198921	227.0	324.0	221	330	1
2.7	2015_May_06_1259	s	s	4	3	SIC	243	RC	0	2	02VD 02VO 02VC 02MD 02MO 02MC 09RD 02RO	1	0	1.30248713493	92.0	-96.0	96	-94	1
2.7	2015_May_06_1259	s	s	4	3	SIC	244	ABS	2	1	02VD 10VO 02VC 02MD 02MO 02MC 02RD 02RO	0	1	2.12987494469	None	None	None	None	1
2.7	2015_May_06_1259	s	s	4	3	SIC	245	RC	1	1	02VD 02VO 02VC 02MD 09MO 02MC 02RD 02RO	1	0	0.940899133682	-434.0	263.0	-435	267	1
2.7	2015_May_06_1259	s	s	4	3	SIC	246	RC	1	0	02VD 02VO 02VC 02MD 02MO 09MC 02RD 02RO	1	0	2.24336504936	31.0	-116.0	33	-123	1
2.7	2015_May_06_1259	s	s	4	3	SIC	247	ABS	0	1	02VD 02VO 02VC 02MD 02MO 02MC 02RD 10RO	0	1	3.10692501068	None	None	None	None	1
2.7	2015_May_06_1259	s	s	4	3	SIC	248	RC	2	2	09VD 02VO 02VC 02MD 02MO 02MC 02RD 02RO	1	0	0.949407100677	-470.0	-65.0	-481	-56	1
2.7	2015_May_06_1259	s	s	4	3	SIC	249	RC	2	0	02VD 02VO 09VC 02MD 02MO 02MC 02RD 02RO	1	0	0.823296070099	-145.0	-330.0	-141	-334	1
2.7	2015_May_06_1259	s	s	4	3	SIC	250	ABS	1	2	02VD 02VO 02VC 10MD 02MO 02MC 02RD 02RO	0	1	1.95329093933	None	None	None	None	1
2.7	2015_May_06_1259	s	s	4	3	SIC	251	ABS	0	2	02VD 02VO 02VC 02MD 02MO 02MC 10RD 02RO	0	1	2.50141406059	None	None	None	None	1
2.7	2015_May_06_1259	s	s	4	3	SIC	252	RC	1	2	02VD 02VO 02VC 09MD 02MO 02MC 02RD 02RO	1	0	0.677228927612	99.0	116.0	103	119	1
2.7	2015_May_06_1259	s	s	4	3	SIC	253	ABS	1	0	02VD 02VO 02VC 02MD 02MO 10MC 02RD 02RO	0	1	2.91838002205	None	None	None	None	1
2.7	2015_May_06_1259	s	s	4	3	SIC	254	ABS	2	2	10VD 02VO 02VC 02MD 02MO 02MC 02RD 02RO	0	1	1.98387694359	None	None	None	None	1
2.7	2015_May_06_1259	s	s	4	3	SIC	255	ABS	1	1	02VD 02VO 02VC 02MD 10MO 02MC 02RD 02RO	0	1	1.71300005913	None	None	None	None	1
2.7	2015_May_06_1259	s	s	4	3	SIC	256	ABS	2	0	02VD 02VO 10VC 02MD 02MO 02MC 02RD 02RO	0	1	1.48246693611	None	None	None	None	1
2.7	2015_May_06_1259	s	s	4	3	SIC	257	RC	1	1	02VD 02VO 02VC 02MD 09MO 02MC 02RD 02RO	1	0	1.17132520676	-368.0	97.0	-364	99	1
2.7	2015_May_06_1259	s	s	4	3	SIC	258	ABS	1	1	02VD 02VO 02VC 02MD 10MO 02MC 02RD 02RO	0	1	2.56013393402	None	None	None	None	1
2.7	2015_May_06_1259	s	s	4	3	SIC	259	RC	1	0	02VD 02VO 02VC 02MD 02MO 09MC 02RD 02RO	1	0	2.25928997993	364.0	-26.0	365	-21	1
2.7	2015_May_06_1259	s	s	4	3	SIC	260	RC	2	2	09VD 02VO 02VC 02MD 02MO 02MC 02RD 02RO	1	0	1.16461992264	-288.0	44.0	-280	48	1
2.7	2015_May_06_1259	s	s	4	3	SIC	261	RC	1	2	02VD 02VO 02VC 09MD 02MO 02MC 02RD 02RO	1	0	1.28909492493	477.0	-343.0	484	-338	1
2.7	2015_May_06_1259	s	s	4	3	SIC	262	ABS	1	2	02VD 02VO 02VC 10MD 02MO 02MC 02RD 02RO	0	1	2.43100309372	None	None	None	None	1
2.7	2015_May_06_1259	s	s	4	3	SIC	263	ABS	1	0	02VD 02VO 02VC 02MD 02MO 10MC 02RD 02RO	0	1	1.60017704964	None	None	None	None	1
2.7	2015_May_06_1259	s	s	4	3	SIC	264	RC	0	1	02VD 02VO 02VC 02MD 02MO 02MC 02RD 09RO	1	0	2.6359910965	-406.0	-40.0	-409	-35	1
2.7	2015_May_06_1259	s	s	4	3	SIC	265	ABS	0	2	02VD 02VO 02VC 02MD 02MO 02MC 10RD 02RO	0	1	1.87897586823	None	None	None	None	1
2.7	2015_May_06_1259	s	s	4	3	SIC	266	RC	0	2	02VD 02VO 02VC 02MD 02MO 02MC 09RD 02RO	1	0	1.15998888016	233.0	321.0	232	326	1
2.7	2015_May_06_1259	s	s	4	3	SIC	267	RC	2	1	02VD 09VO 02VC 02MD 02MO 02MC 02RD 02RO	1	0	1.66593503952	-341.0	-410.0	-343	-423	1
2.7	2015_May_06_1259	s	s	4	3	SIC	268	ABS	2	1	02VD 10VO 02VC 02MD 02MO 02MC 02RD 02RO	0	1	1.85636901855	None	None	None	None	1
2.7	2015_May_06_1259	s	s	4	3	SIC	269	RC	2	0	02VD 02VO 09VC 02MD 02MO 02MC 02RD 02RO	1	0	0.929257154465	54.0	174.0	59	179	1
2.7	2015_May_06_1259	s	s	4	3	SIC	270	ABS	0	1	02VD 02VO 02VC 02MD 02MO 02MC 02RD 10RO	0	1	3.6314599514	None	None	None	None	1
2.7	2015_May_06_1259	s	s	4	3	SIC	271	ABS	2	0	02VD 02VO 10VC 02MD 02MO 02MC 02RD 02RO	0	1	2.1485490799	None	None	None	None	1
2.7	2015_May_06_1259	s	s	4	3	SIC	272	ABS	2	2	10VD 02VO 02VC 02MD 02MO 02MC 02RD 02RO	0	1	2.12503099442	None	None	None	None	1
2.7	2015_May_06_1259	s	s	4	3	SIC	273	ABS	2	0	02VD 02VO 10VC 02MD 02MO 02MC 02RD 02RO	0	1	1.88890385628	None	None	None	None	1
2.7	2015_May_06_1259	s	s	4	3	SIC	274	ABS	0	1	02VD 02VO 02VC 02MD 02MO 02MC 02RD 10RO	0	1	2.54175591469	None	None	None	None	1
2.7	2015_May_06_1259	s	s	4	3	SIC	275	RC	1	0	02VD 02VO 02VC 02MD 02MO 09MC 02RD 02RO	1	0	1.35973000526	222.0	337.0	226	345	1
2.7	2015_May_06_1259	s	s	4	3	SIC	276	ABS	2	1	02VD 10VO 02VC 02MD 02MO 02MC 02RD 02RO	0	1	1.45560407639	None	None	None	None	1
2.7	2015_May_06_1259	s	s	4	3	SIC	277	ABS	2	2	10VD 02VO 02VC 02MD 02MO 02MC 02RD 02RO	0	1	2.39556217194	None	None	None	None	1
2.7	2015_May_06_1259	s	s	4	3	SIC	278	ABS	1	2	02VD 02VO 02VC 10MD 02MO 02MC 02RD 02RO	0	1	2.06769299507	None	None	None	None	1
2.7	2015_May_06_1259	s	s	4	3	SIC	279	RC	1	1	02VD 02VO 02VC 02MD 09MO 02MC 02RD 02RO	1	0	1.37145614624	-447.0	-364.0	-439	-370	1
2.7	2015_May_06_1259	s	s	4	3	SIC	280	RC	0	1	02VD 02VO 02VC 02MD 02MO 02MC 02RD 09RO	0	1	3.97508096695	-36.0	29.0	None	None	0
2.7	2015_May_06_1259	s	s	4	3	SIC	281	ABS	1	1	02VD 02VO 02VC 02MD 10MO 02MC 02RD 02RO	0	1	1.90144586563	None	None	None	None	1
2.7	2015_May_06_1259	s	s	4	3	SIC	282	RC	1	2	02VD 02VO 02VC 09MD 02MO 02MC 02RD 02RO	1	0	0.752565145493	-109.0	12.0	-94	18	1
2.7	2015_May_06_1259	s	s	4	3	SIC	283	RC	2	2	09VD 02VO 02VC 02MD 02MO 02MC 02RD 02RO	1	0	1.07690095901	-469.0	383.0	-469	376	1
2.7	2015_May_06_1259	s	s	4	3	SIC	284	RC	2	1	02VD 09VO 02VC 02MD 02MO 02MC 02RD 02RO	1	0	1.90615797043	415.0	23.0	424	29	1
2.7	2015_May_06_1259	s	s	4	3	SIC	285	RC	2	0	02VD 02VO 09VC 02MD 02MO 02MC 02RD 02RO	1	0	1.66555500031	-424.0	74.0	-425	70	1
2.7	2015_May_06_1259	s	s	4	3	SIC	286	ABS	0	2	02VD 02VO 02VC 02MD 02MO 02MC 10RD 02RO	0	1	2.72528505325	None	None	None	None	1
2.7	2015_May_06_1259	s	s	4	3	SIC	287	RC	0	2	02VD 02VO 02VC 02MD 02MO 02MC 09RD 02RO	1	0	2.25478100777	-118.0	-387.0	-115	-385	1
2.7	2015_May_06_1259	s	s	4	3	SIC	288	ABS	1	0	02VD 02VO 02VC 02MD 02MO 10MC 02RD 02RO	0	1	2.64444208145	None	None	None	None	1
2.7	2015_May_06_1259	s	s	4	3	SIC	289	ABS	2	1	02VD 10VO 02VC 02MD 02MO 02MC 02RD 02RO	0	1	1.47744083405	None	None	None	None	1
2.7	2015_May_06_1259	s	s	4	3	SIC	290	ABS	2	2	10VD 02VO 02VC 02MD 02MO 02MC 02RD 02RO	0	1	2.2475669384	None	None	None	None	1
2.7	2015_May_06_1259	s	s	4	3	SIC	291	RC	0	1	02VD 02VO 02VC 02MD 02MO 02MC 02RD 09RO	1	0	3.09016394615	-424.0	43.0	-424	43	1
2.7	2015_May_06_1259	s	s	4	3	SIC	292	RC	2	0	02VD 02VO 09VC 02MD 02MO 02MC 02RD 02RO	1	0	2.06450414658	510.0	215.0	508	214	1
2.7	2015_May_06_1259	s	s	4	3	SIC	293	RC	2	1	02VD 09VO 02VC 02MD 02MO 02MC 02RD 02RO	1	0	1.9597928524	168.0	370.0	170	372	1
2.7	2015_May_06_1259	s	s	4	3	SIC	294	RC	1	1	02VD 02VO 02VC 02MD 09MO 02MC 02RD 02RO	1	0	1.2327580452	202.0	194.0	200	188	1
2.7	2015_May_06_1259	s	s	4	3	SIC	295	RC	1	2	02VD 02VO 02VC 09MD 02MO 02MC 02RD 02RO	1	0	1.17642903328	-273.0	-21.0	-282	-17	1
2.7	2015_May_06_1259	s	s	4	3	SIC	296	ABS	1	1	02VD 02VO 02VC 02MD 10MO 02MC 02RD 02RO	0	1	2.67816400528	None	None	None	None	1
2.7	2015_May_06_1259	s	s	4	3	SIC	297	ABS	2	0	02VD 02VO 10VC 02MD 02MO 02MC 02RD 02RO	0	1	2.06770300865	None	None	None	None	1
2.7	2015_May_06_1259	s	s	4	3	SIC	298	RC	0	2	02VD 02VO 02VC 02MD 02MO 02MC 09RD 02RO	1	0	0.747789859772	62.0	-68.0	74	-59	1
2.7	2015_May_06_1259	s	s	4	3	SIC	299	RC	1	0	02VD 02VO 02VC 02MD 02MO 09MC 02RD 02RO	1	0	1.09400200844	307.0	-180.0	314	-180	1
2.7	2015_May_06_1259	s	s	4	3	SIC	300	ABS	0	2	02VD 02VO 02VC 02MD 02MO 02MC 10RD 02RO	0	1	2.09463381767	None	None	None	None	1
2.7	2015_May_06_1259	s	s	4	3	SIC	301	RC	2	2	09VD 02VO 02VC 02MD 02MO 02MC 02RD 02RO	1	0	1.62013792992	383.0	349.0	390	345	1
2.7	2015_May_06_1259	s	s	4	3	SIC	302	ABS	0	1	02VD 02VO 02VC 02MD 02MO 02MC 02RD 10RO	0	1	3.17350506783	None	None	None	None	1
2.7	2015_May_06_1259	s	s	4	3	SIC	303	ABS	1	0	02VD 02VO 02VC 02MD 02MO 10MC 02RD 02RO	0	1	1.63189888	None	None	None	None	1
2.7	2015_May_06_1259	s	s	4	3	SIC	304	ABS	1	2	02VD 02VO 02VC 10MD 02MO 02MC 02RD 02RO	0	1	1.96872591972	None	None	None	None	1
2.7	2015_May_06_1259	s	s	4	3	SIC	305	RC	2	1	02VD 09VO 02VC 02MD 02MO 02MC 02RD 02RO	1	0	0.606416940689	107.0	-23.0	107	-17	1
2.7	2015_May_06_1259	s	s	4	3	SIC	306	ABS	0	1	02VD 02VO 02VC 02MD 02MO 02MC 02RD 10RO	0	1	3.23627614975	None	None	None	None	1
2.7	2015_May_06_1259	s	s	4	3	SIC	307	RC	2	2	09VD 02VO 02VC 02MD 02MO 02MC 02RD 02RO	1	0	1.61191415787	478.0	-46.0	483	-53	1
2.7	2015_May_06_1259	s	s	4	3	SIC	308	ABS	1	1	02VD 02VO 02VC 02MD 10MO 02MC 02RD 02RO	0	1	2.64758896828	None	None	None	None	1
2.7	2015_May_06_1259	s	s	4	3	SIC	309	ABS	1	2	02VD 02VO 02VC 10MD 02MO 02MC 02RD 02RO	0	1	2.44277000427	None	None	None	None	1
2.7	2015_May_06_1259	s	s	4	3	SIC	310	RC	2	0	02VD 02VO 09VC 02MD 02MO 02MC 02RD 02RO	1	0	0.952836036682	-312.0	-200.0	-311	-198	1
2.7	2015_May_06_1259	s	s	4	3	SIC	311	RC	1	0	02VD 02VO 02VC 02MD 02MO 09MC 02RD 02RO	1	0	0.688581943512	-449.0	-117.0	-443	-110	1
2.7	2015_May_06_1259	s	s	4	3	SIC	312	ABS	2	0	02VD 02VO 10VC 02MD 02MO 02MC 02RD 02RO	0	1	1.4471180439	None	None	None	None	1
2.7	2015_May_06_1259	s	s	4	3	SIC	313	ABS	2	1	02VD 10VO 02VC 02MD 02MO 02MC 02RD 02RO	0	1	2.0087389946	None	None	None	None	1
2.7	2015_May_06_1259	s	s	4	3	SIC	314	RC	0	1	02VD 02VO 02VC 02MD 02MO 02MC 02RD 09RO	0	1	3.20110297203	-109.0	95.0	None	None	0
2.7	2015_May_06_1259	s	s	4	3	SIC	315	RC	1	2	02VD 02VO 02VC 09MD 02MO 02MC 02RD 02RO	1	0	1.28915095329	300.0	-33.0	297	-31	1
2.7	2015_May_06_1259	s	s	4	3	SIC	316	ABS	2	2	10VD 02VO 02VC 02MD 02MO 02MC 02RD 02RO	0	1	2.06472802162	None	None	None	None	1
2.7	2015_May_06_1259	s	s	4	3	SIC	317	ABS	1	0	02VD 02VO 02VC 02MD 02MO 10MC 02RD 02RO	0	1	2.96547293663	None	None	None	None	1
2.7	2015_May_06_1259	s	s	4	3	SIC	318	RC	0	2	02VD 02VO 02VC 02MD 02MO 02MC 09RD 02RO	1	0	1.36476397514	58.0	-160.0	58	-169	1
2.7	2015_May_06_1259	s	s	4	3	SIC	319	ABS	0	2	02VD 02VO 02VC 02MD 02MO 02MC 10RD 02RO	0	1	2.1577808857	None	None	None	None	1
2.7	2015_May_06_1259	s	s	4	3	SIC	320	RC	1	1	02VD 02VO 02VC 02MD 09MO 02MC 02RD 02RO	1	0	0.693861961365	-154.0	17.0	-152	24	1
2.7	2015_May_06_1259	s	s	4	3	SIC	321	RC	0	2	02VD 02VO 02VC 02MD 02MO 02MC 09RD 02RO	1	0	0.51397395134	-79.0	35.0	-76	38	1
2.7	2015_May_06_1259	s	s	4	3	SIC	322	RC	0	1	02VD 02VO 02VC 02MD 02MO 02MC 02RD 09RO	1	0	3.91884112358	466.0	370.0	459	368	1
2.7	2015_May_06_1259	s	s	4	3	SIC	323	RC	2	2	09VD 02VO 02VC 02MD 02MO 02MC 02RD 02RO	1	0	1.28916692734	148.0	-242.0	147	-248	1
2.7	2015_May_06_1259	s	s	4	3	SIC	324	ABS	2	1	02VD 10VO 02VC 02MD 02MO 02MC 02RD 02RO	0	1	2.09446310997	None	None	None	None	1
2.7	2015_May_06_1259	s	s	4	3	SIC	325	ABS	2	2	10VD 02VO 02VC 02MD 02MO 02MC 02RD 02RO	0	1	1.99764180183	None	None	None	None	1
2.7	2015_May_06_1259	s	s	4	3	SIC	326	ABS	1	2	02VD 02VO 02VC 10MD 02MO 02MC 02RD 02RO	0	1	2.46552109718	None	None	None	None	1
2.7	2015_May_06_1259	s	s	4	3	SIC	327	ABS	0	1	02VD 02VO 02VC 02MD 02MO 02MC 02RD 10RO	0	1	3.27164101601	None	None	None	None	1
2.7	2015_May_06_1259	s	s	4	3	SIC	328	ABS	2	0	02VD 02VO 10VC 02MD 02MO 02MC 02RD 02RO	0	1	1.8825969696	None	None	None	None	1
2.7	2015_May_06_1259	s	s	4	3	SIC	329	RC	1	1	02VD 02VO 02VC 02MD 09MO 02MC 02RD 02RO	1	0	0.912476062775	-494.0	-140.0	-497	-143	1
2.7	2015_May_06_1259	s	s	4	3	SIC	330	ABS	0	2	02VD 02VO 02VC 02MD 02MO 02MC 10RD 02RO	0	1	1.80026984215	None	None	None	None	1
2.7	2015_May_06_1259	s	s	4	3	SIC	331	ABS	1	0	02VD 02VO 02VC 02MD 02MO 10MC 02RD 02RO	0	1	2.67498993874	None	None	None	None	1
2.7	2015_May_06_1259	s	s	4	3	SIC	332	RC	2	1	02VD 09VO 02VC 02MD 02MO 02MC 02RD 02RO	1	0	0.811522006989	296.0	-16.0	291	-16	1
2.7	2015_May_06_1259	s	s	4	3	SIC	333	RC	1	0	02VD 02VO 02VC 02MD 02MO 09MC 02RD 02RO	1	0	2.28979301453	291.0	348.0	286	353	1
2.7	2015_May_06_1259	s	s	4	3	SIC	334	ABS	1	1	02VD 02VO 02VC 02MD 10MO 02MC 02RD 02RO	0	1	2.64527201653	None	None	None	None	1
2.7	2015_May_06_1259	s	s	4	3	SIC	335	RC	1	2	02VD 02VO 02VC 09MD 02MO 02MC 02RD 02RO	1	0	0.93591094017	304.0	20.0	304	15	1
2.7	2015_May_06_1259	s	s	4	3	SIC	336	RC	2	0	02VD 02VO 09VC 02MD 02MO 02MC 02RD 02RO	1	0	1.72446584702	-382.0	-378.0	-379	-379	1
2.7	2015_May_06_1259	s	s	4	3	SIC	337	RC	1	2	02VD 02VO 02VC 09MD 02MO 02MC 02RD 02RO	1	0	1.09087204933	-212.0	-109.0	-206	-106	1
2.7	2015_May_06_1259	s	s	4	3	SIC	338	ABS	1	2	02VD 02VO 02VC 10MD 02MO 02MC 02RD 02RO	0	1	2.65948200226	None	None	None	None	1
2.7	2015_May_06_1259	s	s	4	3	SIC	339	ABS	2	1	02VD 10VO 02VC 02MD 02MO 02MC 02RD 02RO	0	1	1.88260293007	None	None	None	None	1
2.7	2015_May_06_1259	s	s	4	3	SIC	340	RC	2	1	02VD 09VO 02VC 02MD 02MO 02MC 02RD 02RO	1	0	1.15821790695	55.0	-395.0	63	-397	1
2.7	2015_May_06_1259	s	s	4	3	SIC	341	RC	2	2	09VD 02VO 02VC 02MD 02MO 02MC 02RD 02RO	1	0	0.92910194397	-225.0	-370.0	-228	-371	1
2.7	2015_May_06_1259	s	s	4	3	SIC	342	RC	0	1	02VD 02VO 02VC 02MD 02MO 02MC 02RD 09RO	0	1	2.76542711258	73.0	328.0	None	None	0
2.7	2015_May_06_1259	s	s	4	3	SIC	343	ABS	1	1	02VD 02VO 02VC 02MD 10MO 02MC 02RD 02RO	0	1	2.23622107506	None	None	None	None	1
2.7	2015_May_06_1259	s	s	4	3	SIC	344	ABS	1	0	02VD 02VO 02VC 02MD 02MO 10MC 02RD 02RO	0	1	2.1250398159	None	None	None	None	1
2.7	2015_May_06_1259	s	s	4	3	SIC	345	RC	1	0	02VD 02VO 02VC 02MD 02MO 09MC 02RD 02RO	1	0	2.80763697624	536.0	353.0	546	354	1
2.7	2015_May_06_1259	s	s	4	3	SIC	346	ABS	2	2	10VD 02VO 02VC 02MD 02MO 02MC 02RD 02RO	0	1	1.40682983398	None	None	None	None	1
2.7	2015_May_06_1259	s	s	4	3	SIC	347	ABS	0	1	02VD 02VO 02VC 02MD 02MO 02MC 02RD 10RO	0	1	2.83131504059	None	None	None	None	1
2.7	2015_May_06_1259	s	s	4	3	SIC	348	ABS	2	0	02VD 02VO 10VC 02MD 02MO 02MC 02RD 02RO	0	1	1.58508396149	None	None	None	None	1
2.7	2015_May_06_1259	s	s	4	3	SIC	349	RC	2	0	02VD 02VO 09VC 02MD 02MO 02MC 02RD 02RO	1	0	1.30082297325	525.0	346.0	522	344	1
2.7	2015_May_06_1259	s	s	4	3	SIC	350	RC	0	2	02VD 02VO 02VC 02MD 02MO 02MC 09RD 02RO	1	0	0.941101074219	465.0	116.0	466	122	1
2.7	2015_May_06_1259	s	s	4	3	SIC	351	ABS	0	2	02VD 02VO 02VC 02MD 02MO 02MC 10RD 02RO	0	1	2.67759799957	None	None	None	None	1
2.7	2015_May_06_1259	s	s	4	3	SIC	352	RC	1	1	02VD 02VO 02VC 02MD 09MO 02MC 02RD 02RO	1	0	0.538385868073	15.0	52.0	10	52	1
2.7	2015_May_06_1259	s	s	4	3	SIC	353	ABS	0	2	02VD 02VO 02VC 02MD 02MO 02MC 10RD 02RO	1	0	1.282351017	None	None	121	414	0
2.7	2015_May_06_1259	s	s	4	3	SIC	354	RC	1	2	02VD 02VO 02VC 09MD 02MO 02MC 02RD 02RO	1	0	0.655252218246	-89.0	134.0	-95	138	1
2.7	2015_May_06_1259	s	s	4	3	SIC	355	RC	0	1	02VD 02VO 02VC 02MD 02MO 02MC 02RD 09RO	1	0	1.83925485611	-473.0	110.0	-466	120	1
2.7	2015_May_06_1259	s	s	4	3	SIC	356	ABS	1	1	02VD 02VO 02VC 02MD 10MO 02MC 02RD 02RO	0	1	2.32510304451	None	None	None	None	1
2.7	2015_May_06_1259	s	s	4	3	SIC	357	ABS	1	0	02VD 02VO 02VC 02MD 02MO 10MC 02RD 02RO	0	1	2.32982110977	None	None	None	None	1
2.7	2015_May_06_1259	s	s	4	3	SIC	358	RC	2	0	02VD 02VO 09VC 02MD 02MO 02MC 02RD 02RO	1	0	0.771255016327	-400.0	54.0	-392	59	1
2.7	2015_May_06_1259	s	s	4	3	SIC	359	ABS	2	2	10VD 02VO 02VC 02MD 02MO 02MC 02RD 02RO	0	1	2.24753189087	None	None	None	None	1
2.7	2015_May_06_1259	s	s	4	3	SIC	360	RC	1	1	02VD 02VO 02VC 02MD 09MO 02MC 02RD 02RO	1	0	2.29463911057	233.0	-73.0	233	-66	1
2.7	2015_May_06_1259	s	s	4	3	SIC	361	ABS	2	0	02VD 02VO 10VC 02MD 02MO 02MC 02RD 02RO	0	1	2.32501196861	None	None	None	None	1
2.7	2015_May_06_1259	s	s	4	3	SIC	362	RC	1	0	02VD 02VO 02VC 02MD 02MO 09MC 02RD 02RO	1	0	0.747493982315	-25.0	104.0	-22	101	1
2.7	2015_May_06_1259	s	s	4	3	SIC	363	RC	2	1	02VD 09VO 02VC 02MD 02MO 02MC 02RD 02RO	1	0	1.28263688087	492.0	28.0	497	26	1
2.7	2015_May_06_1259	s	s	4	3	SIC	364	RC	2	2	09VD 02VO 02VC 02MD 02MO 02MC 02RD 02RO	1	0	0.964883089066	142.0	-104.0	146	-102	1
2.7	2015_May_06_1259	s	s	4	3	SIC	365	ABS	1	2	02VD 02VO 02VC 10MD 02MO 02MC 02RD 02RO	0	1	3.11148810387	None	None	None	None	1
2.7	2015_May_06_1259	s	s	4	3	SIC	366	ABS	0	1	02VD 02VO 02VC 02MD 02MO 02MC 02RD 10RO	0	1	3.37748408318	None	None	None	None	1
2.7	2015_May_06_1259	s	s	4	3	SIC	367	ABS	2	1	02VD 10VO 02VC 02MD 02MO 02MC 02RD 02RO	0	1	2.13634395599	None	None	None	None	1
2.7	2015_May_06_1259	s	s	4	3	SIC	368	RC	0	2	02VD 02VO 02VC 02MD 02MO 02MC 09RD 02RO	1	0	1.80025196075	241.0	209.0	237	205	1
2.7	2015_May_06_1259	s	s	4	3	SIC	369	ABS	1	1	02VD 02VO 02VC 02MD 10MO 02MC 02RD 02RO	0	1	2.44764685631	None	None	None	None	1
2.7	2015_May_06_1259	s	s	4	3	SIC	370	RC	0	2	02VD 02VO 02VC 02MD 02MO 02MC 09RD 02RO	1	0	1.69161200523	-459.0	-379.0	-455	-372	1
2.7	2015_May_06_1259	s	s	4	3	SIC	371	ABS	0	2	02VD 02VO 02VC 02MD 02MO 02MC 10RD 02RO	0	1	2.83294487	None	None	None	None	1
2.7	2015_May_06_1259	s	s	4	3	SIC	372	ABS	2	0	02VD 02VO 10VC 02MD 02MO 02MC 02RD 02RO	0	1	1.55304789543	None	None	None	None	1
2.7	2015_May_06_1259	s	s	4	3	SIC	373	ABS	1	0	02VD 02VO 02VC 02MD 02MO 10MC 02RD 02RO	0	1	2.43091106415	None	None	None	None	1
2.7	2015_May_06_1259	s	s	4	3	SIC	374	ABS	1	2	02VD 02VO 02VC 10MD 02MO 02MC 02RD 02RO	0	1	1.93539214134	None	None	None	None	1
2.7	2015_May_06_1259	s	s	4	3	SIC	375	RC	1	0	02VD 02VO 02VC 02MD 02MO 09MC 02RD 02RO	1	0	2.43956398964	-50.0	-310.0	-38	-309	1
2.7	2015_May_06_1259	s	s	4	3	SIC	376	RC	1	1	02VD 02VO 02VC 02MD 09MO 02MC 02RD 02RO	1	0	0.831822156906	26.0	96.0	24	101	1
2.7	2015_May_06_1259	s	s	4	3	SIC	377	ABS	0	1	02VD 02VO 02VC 02MD 02MO 02MC 02RD 10RO	0	1	2.67950296402	None	None	None	None	1
2.7	2015_May_06_1259	s	s	4	3	SIC	378	RC	2	2	09VD 02VO 02VC 02MD 02MO 02MC 02RD 02RO	1	0	1.30084085464	-107.0	328.0	-104	334	1
2.7	2015_May_06_1259	s	s	4	3	SIC	379	RC	2	1	02VD 09VO 02VC 02MD 02MO 02MC 02RD 02RO	1	0	1.51271104813	512.0	-303.0	513	-301	1
2.7	2015_May_06_1259	s	s	4	3	SIC	380	ABS	2	1	02VD 10VO 02VC 02MD 02MO 02MC 02RD 02RO	0	1	1.82046699524	None	None	None	None	1
2.7	2015_May_06_1259	s	s	4	3	SIC	381	RC	1	2	02VD 02VO 02VC 09MD 02MO 02MC 02RD 02RO	1	0	1.06651902199	206.0	154.0	205	158	1
2.7	2015_May_06_1259	s	s	4	3	SIC	382	ABS	2	2	10VD 02VO 02VC 02MD 02MO 02MC 02RD 02RO	0	1	1.28239107132	None	None	None	None	1
2.7	2015_May_06_1259	s	s	4	3	SIC	383	RC	2	0	02VD 02VO 09VC 02MD 02MO 02MC 02RD 02RO	1	0	0.670297145844	172.0	-134.0	173	-128	1
2.7	2015_May_06_1259	s	s	4	3	SIC	384	RC	0	1	02VD 02VO 02VC 02MD 02MO 02MC 02RD 09RO	1	0	1.12290120125	115.0	336.0	111	329	1
2.7	2015_May_06_1259	s	s	4	3	SIC	385	RC	2	1	02VD 09VO 02VC 02MD 02MO 02MC 02RD 02RO	1	0	1.25376701355	126.0	-101.0	128	-97	1
2.7	2015_May_06_1259	s	s	4	3	SIC	386	RC	1	2	02VD 02VO 02VC 09MD 02MO 02MC 02RD 02RO	1	0	1.5059940815	322.0	240.0	318	228	1
2.7	2015_May_06_1259	s	s	4	3	SIC	387	RC	2	2	09VD 02VO 02VC 02MD 02MO 02MC 02RD 02RO	1	0	1.8328101635	429.0	410.0	435	413	1
2.7	2015_May_06_1259	s	s	4	3	SIC	388	RC	1	1	02VD 02VO 02VC 02MD 09MO 02MC 02RD 02RO	1	0	1.68646407127	-170.0	342.0	-174	342	1
2.7	2015_May_06_1259	s	s	4	3	SIC	389	ABS	0	2	02VD 02VO 02VC 02MD 02MO 02MC 10RD 02RO	0	1	2.56031012535	None	None	None	None	1
2.7	2015_May_06_1259	s	s	4	3	SIC	390	ABS	1	0	02VD 02VO 02VC 02MD 02MO 10MC 02RD 02RO	0	1	2.42772102356	None	None	None	None	1
2.7	2015_May_06_1259	s	s	4	3	SIC	391	RC	0	2	02VD 02VO 02VC 02MD 02MO 02MC 09RD 02RO	1	0	1.05502104759	338.0	146.0	340	149	1
2.7	2015_May_06_1259	s	s	4	3	SIC	392	RC	2	0	02VD 02VO 09VC 02MD 02MO 02MC 02RD 02RO	1	0	0.86573600769	-238.0	287.0	-238	282	1
2.7	2015_May_06_1259	s	s	4	3	SIC	393	ABS	0	1	02VD 02VO 02VC 02MD 02MO 02MC 02RD 10RO	0	1	3.60116410255	None	None	None	None	1
2.7	2015_May_06_1259	s	s	4	3	SIC	394	ABS	2	1	02VD 10VO 02VC 02MD 02MO 02MC 02RD 02RO	0	1	2.08955693245	None	None	None	None	1
2.7	2015_May_06_1259	s	s	4	3	SIC	395	RC	0	1	02VD 02VO 02VC 02MD 02MO 02MC 02RD 09RO	1	0	1.98371601105	-484.0	-70.0	-486	-70	1
2.7	2015_May_06_1259	s	s	4	3	SIC	396	RC	1	0	02VD 02VO 02VC 02MD 02MO 09MC 02RD 02RO	1	0	2.28969216347	199.0	381.0	200	384	1
2.7	2015_May_06_1259	s	s	4	3	SIC	397	ABS	2	2	10VD 02VO 02VC 02MD 02MO 02MC 02RD 02RO	0	1	2.17210102081	None	None	None	None	1
2.7	2015_May_06_1259	s	s	4	3	SIC	398	ABS	1	1	02VD 02VO 02VC 02MD 10MO 02MC 02RD 02RO	0	1	1.90990185738	None	None	None	None	1
2.7	2015_May_06_1259	s	s	4	3	SIC	399	ABS	2	0	02VD 02VO 10VC 02MD 02MO 02MC 02RD 02RO	0	1	1.8916990757	None	None	None	None	1
2.7	2015_May_06_1259	s	s	4	3	SIC	400	ABS	1	2	02VD 02VO 02VC 10MD 02MO 02MC 02RD 02RO	0	1	1.52459406853	None	None	None	None	1
2.7	2015_May_06_1259	s	s	4	3	SIC	401	ABS	1	2	02VD 02VO 02VC 10MD 02MO 02MC 02RD 02RO	0	1	1.47524213791	None	None	None	None	1
2.7	2015_May_06_1259	s	s	4	3	SIC	402	RC	2	1	02VD 09VO 02VC 02MD 02MO 02MC 02RD 02RO	1	0	1.96507501602	516.0	382.0	512	386	1
2.7	2015_May_06_1259	s	s	4	3	SIC	403	ABS	1	0	02VD 02VO 02VC 02MD 02MO 10MC 02RD 02RO	0	1	1.63070607185	None	None	None	None	1
2.7	2015_May_06_1259	s	s	4	3	SIC	404	RC	2	2	09VD 02VO 02VC 02MD 02MO 02MC 02RD 02RO	1	0	1.40700697899	116.0	54.0	116	53	1
2.7	2015_May_06_1259	s	s	4	3	SIC	405	RC	0	1	02VD 02VO 02VC 02MD 02MO 02MC 02RD 09RO	1	0	2.26641011238	324.0	307.0	323	307	1
2.7	2015_May_06_1259	s	s	4	3	SIC	406	ABS	2	0	02VD 02VO 10VC 02MD 02MO 02MC 02RD 02RO	0	1	1.53630304337	None	None	None	None	1
2.7	2015_May_06_1259	s	s	4	3	SIC	407	RC	0	2	02VD 02VO 02VC 02MD 02MO 02MC 09RD 02RO	1	0	1.36478590965	275.0	-307.0	271	-310	1
2.7	2015_May_06_1259	s	s	4	3	SIC	408	ABS	1	1	02VD 02VO 02VC 02MD 10MO 02MC 02RD 02RO	0	1	1.87672591209	None	None	None	None	1
2.7	2015_May_06_1259	s	s	4	3	SIC	409	RC	2	0	02VD 02VO 09VC 02MD 02MO 02MC 02RD 02RO	1	0	0.641840934753	-221.0	68.0	-222	66	1
2.7	2015_May_06_1259	s	s	4	3	SIC	410	ABS	0	2	02VD 02VO 02VC 02MD 02MO 02MC 10RD 02RO	0	1	2.47118902206	None	None	None	None	1
2.7	2015_May_06_1259	s	s	4	3	SIC	411	ABS	2	1	02VD 10VO 02VC 02MD 02MO 02MC 02RD 02RO	0	1	1.611951828	None	None	None	None	1
2.7	2015_May_06_1259	s	s	4	3	SIC	412	RC	1	2	02VD 02VO 02VC 09MD 02MO 02MC 02RD 02RO	1	0	0.988118171692	-413.0	142.0	-408	141	1
2.7	2015_May_06_1259	s	s	4	3	SIC	413	ABS	0	1	02VD 02VO 02VC 02MD 02MO 02MC 02RD 10RO	0	1	3.407943964	None	None	None	None	1
2.7	2015_May_06_1259	s	s	4	3	SIC	414	RC	1	0	02VD 02VO 02VC 02MD 02MO 09MC 02RD 02RO	1	0	0.870717048645	-227.0	147.0	-216	150	1
2.7	2015_May_06_1259	s	s	4	3	SIC	415	RC	1	1	02VD 02VO 02VC 02MD 09MO 02MC 02RD 02RO	1	0	0.711215019226	-136.0	24.0	-142	33	1
2.7	2015_May_06_1259	s	s	4	3	SIC	416	ABS	2	2	10VD 02VO 02VC 02MD 02MO 02MC 02RD 02RO	0	1	1.32940387726	None	None	None	None	1
2.7	2015_May_06_1259	s	s	4	3	SIC	417	ABS	2	0	02VD 02VO 10VC 02MD 02MO 02MC 02RD 02RO	0	1	1.2180480957	None	None	None	None	1
2.7	2015_May_06_1259	s	s	4	3	SIC	418	ABS	1	0	02VD 02VO 02VC 02MD 02MO 10MC 02RD 02RO	0	1	2.82146310806	None	None	None	None	1
2.7	2015_May_06_1259	s	s	4	3	SIC	419	RC	2	0	02VD 02VO 09VC 02MD 02MO 02MC 02RD 02RO	1	0	1.04296112061	-325.0	-381.0	-329	-386	1
2.7	2015_May_06_1259	s	s	4	3	SIC	420	ABS	1	1	02VD 02VO 02VC 02MD 10MO 02MC 02RD 02RO	0	1	2.09450316429	None	None	None	None	1
2.7	2015_May_06_1259	s	s	4	3	SIC	421	ABS	2	1	02VD 10VO 02VC 02MD 02MO 02MC 02RD 02RO	0	1	1.74150919914	None	None	None	None	1
2.7	2015_May_06_1259	s	s	4	3	SIC	422	RC	2	2	09VD 02VO 02VC 02MD 02MO 02MC 02RD 02RO	1	0	1.25488805771	-180.0	-172.0	-180	-172	1
2.7	2015_May_06_1259	s	s	4	3	SIC	423	RC	1	0	02VD 02VO 02VC 02MD 02MO 09MC 02RD 02RO	1	0	1.58357310295	-105.0	243.0	-104	242	1
2.7	2015_May_06_1259	s	s	4	3	SIC	424	RC	0	1	02VD 02VO 02VC 02MD 02MO 02MC 02RD 09RO	1	0	1.51295804977	-139.0	-145.0	-132	-150	1
2.7	2015_May_06_1259	s	s	4	3	SIC	425	RC	1	2	02VD 02VO 02VC 09MD 02MO 02MC 02RD 02RO	1	0	0.865402936935	103.0	-130.0	110	-126	1
2.7	2015_May_06_1259	s	s	4	3	SIC	426	RC	1	1	02VD 02VO 02VC 02MD 09MO 02MC 02RD 02RO	1	0	0.952718019485	-57.0	-258.0	-56	-257	1
2.7	2015_May_06_1259	s	s	4	3	SIC	427	RC	2	1	02VD 09VO 02VC 02MD 02MO 02MC 02RD 02RO	1	0	0.794751882553	-154.0	109.0	-155	110	1
2.7	2015_May_06_1259	s	s	4	3	SIC	428	ABS	0	1	02VD 02VO 02VC 02MD 02MO 02MC 02RD 10RO	0	1	3.54922986031	None	None	None	None	1
2.7	2015_May_06_1259	s	s	4	3	SIC	429	RC	0	2	02VD 02VO 02VC 02MD 02MO 02MC 09RD 02RO	1	0	0.799702882767	-182.0	-47.0	-180	-42	1
2.7	2015_May_06_1259	s	s	4	3	SIC	430	ABS	0	2	02VD 02VO 02VC 02MD 02MO 02MC 10RD 02RO	0	1	2.43643903732	None	None	None	None	1
2.7	2015_May_06_1259	s	s	4	3	SIC	431	ABS	1	2	02VD 02VO 02VC 10MD 02MO 02MC 02RD 02RO	0	1	1.7888610363	None	None	None	None	1
2.7	2015_May_06_1259	s	s	4	3	SIC	432	ABS	2	2	10VD 02VO 02VC 02MD 02MO 02MC 02RD 02RO	0	1	2.6364171505	None	None	None	None	1
2.7	2015_May_06_1259	s	s	4	3	SIC	433	RC	0	1	02VD 02VO 02VC 02MD 02MO 02MC 02RD 09RO	0	1	2.60115981102	462.0	194.0	None	None	0
2.7	2015_May_06_1259	s	s	4	3	SIC	434	RC	2	1	02VD 09VO 02VC 02MD 02MO 02MC 02RD 02RO	1	0	0.92405796051	-402.0	-12.0	-402	-16	1
2.7	2015_May_06_1259	s	s	4	3	SIC	435	RC	1	1	02VD 02VO 02VC 02MD 09MO 02MC 02RD 02RO	1	0	1.18334317207	-160.0	178.0	-151	183	1
2.7	2015_May_06_1259	s	s	4	3	SIC	436	RC	1	0	02VD 02VO 02VC 02MD 02MO 09MC 02RD 02RO	1	0	1.62365412712	-84.0	-275.0	-79	-279	1
2.7	2015_May_06_1259	s	s	4	3	SIC	437	RC	2	0	02VD 02VO 09VC 02MD 02MO 02MC 02RD 02RO	1	0	0.785288095474	-85.0	67.0	-73	69	1
2.7	2015_May_06_1259	s	s	4	3	SIC	438	RC	0	2	02VD 02VO 02VC 02MD 02MO 02MC 09RD 02RO	1	0	0.736073970795	145.0	-200.0	147	-195	1
2.7	2015_May_06_1259	s	s	4	3	SIC	439	ABS	2	2	10VD 02VO 02VC 02MD 02MO 02MC 02RD 02RO	0	1	2.73018693924	None	None	None	None	1
2.7	2015_May_06_1259	s	s	4	3	SIC	440	ABS	0	2	02VD 02VO 02VC 02MD 02MO 02MC 10RD 02RO	0	1	1.81196689606	None	None	None	None	1
2.7	2015_May_06_1259	s	s	4	3	SIC	441	ABS	1	0	02VD 02VO 02VC 02MD 02MO 10MC 02RD 02RO	0	1	2.38878202438	None	None	None	None	1
2.7	2015_May_06_1259	s	s	4	3	SIC	442	ABS	0	1	02VD 02VO 02VC 02MD 02MO 02MC 02RD 10RO	0	1	2.58894395828	None	None	None	None	1
2.7	2015_May_06_1259	s	s	4	3	SIC	443	ABS	1	2	02VD 02VO 02VC 10MD 02MO 02MC 02RD 02RO	0	1	1.34532785416	None	None	None	None	1
2.7	2015_May_06_1259	s	s	4	3	SIC	444	ABS	1	1	02VD 02VO 02VC 02MD 10MO 02MC 02RD 02RO	0	1	2.62094783783	None	None	None	None	1
2.7	2015_May_06_1259	s	s	4	3	SIC	445	RC	1	2	02VD 02VO 02VC 09MD 02MO 02MC 02RD 02RO	1	0	0.893798112869	-313.0	-282.0	-307	-288	1
2.7	2015_May_06_1259	s	s	4	3	SIC	446	RC	2	2	09VD 02VO 02VC 02MD 02MO 02MC 02RD 02RO	1	0	1.27058887482	195.0	-222.0	206	-221	1
2.7	2015_May_06_1259	s	s	4	3	SIC	447	ABS	2	1	02VD 10VO 02VC 02MD 02MO 02MC 02RD 02RO	0	1	3.01621699333	None	None	None	None	1
2.7	2015_May_06_1259	s	s	4	3	SIC	448	ABS	2	0	02VD 02VO 10VC 02MD 02MO 02MC 02RD 02RO	0	1	1.94143891335	None	None	None	None	1
2.7	2015_May_06_1259	s	s	4	3	SIC	449	ABS	1	0	02VD 02VO 02VC 02MD 02MO 10MC 02RD 02RO	0	1	2.81944680214	None	None	None	None	1
2.7	2015_May_06_1259	s	s	4	3	SIC	450	RC	1	2	02VD 02VO 02VC 09MD 02MO 02MC 02RD 02RO	1	0	1.19492888451	-341.0	102.0	-345	105	1
2.7	2015_May_06_1259	s	s	4	3	SIC	451	RC	0	2	02VD 02VO 02VC 02MD 02MO 02MC 09RD 02RO	1	0	0.929228067398	-134.0	125.0	-134	126	1
2.7	2015_May_06_1259	s	s	4	3	SIC	452	RC	1	1	02VD 02VO 02VC 02MD 09MO 02MC 02RD 02RO	1	0	0.581439971924	78.0	-2.0	86	-2	1
2.7	2015_May_06_1259	s	s	4	3	SIC	453	ABS	1	1	02VD 02VO 02VC 02MD 10MO 02MC 02RD 02RO	0	1	2.26526212692	None	None	None	None	1
2.7	2015_May_06_1259	s	s	4	3	SIC	454	RC	0	1	02VD 02VO 02VC 02MD 02MO 02MC 02RD 09RO	1	0	2.21897983551	415.0	-105.0	415	-105	1
2.7	2015_May_06_1259	s	s	4	3	SIC	455	ABS	1	2	02VD 02VO 02VC 10MD 02MO 02MC 02RD 02RO	0	1	1.7011859417	None	None	None	None	1
2.7	2015_May_06_1259	s	s	4	3	SIC	456	RC	2	1	02VD 09VO 02VC 02MD 02MO 02MC 02RD 02RO	1	0	0.658581018448	-82.0	-209.0	-76	-207	1
2.7	2015_May_06_1259	s	s	4	3	SIC	457	RC	1	0	02VD 02VO 02VC 02MD 02MO 09MC 02RD 02RO	1	0	0.905677080154	-247.0	71.0	-248	66	1
2.7	2015_May_06_1259	s	s	4	3	SIC	458	ABS	2	1	02VD 10VO 02VC 02MD 02MO 02MC 02RD 02RO	0	1	2.21900606155	None	None	None	None	1
2.7	2015_May_06_1259	s	s	4	3	SIC	459	ABS	0	2	02VD 02VO 02VC 02MD 02MO 02MC 10RD 02RO	0	1	2.20732617378	None	None	None	None	1
2.7	2015_May_06_1259	s	s	4	3	SIC	460	RC	2	0	02VD 02VO 09VC 02MD 02MO 02MC 02RD 02RO	1	0	1.25521183014	486.0	-281.0	486	-295	1
2.7	2015_May_06_1259	s	s	4	3	SIC	461	ABS	0	1	02VD 02VO 02VC 02MD 02MO 02MC 02RD 10RO	0	1	4.26755976677	None	None	None	None	1
2.7	2015_May_06_1259	s	s	4	3	SIC	462	RC	2	2	09VD 02VO 02VC 02MD 02MO 02MC 02RD 02RO	1	0	1.38580918312	-13.0	199.0	-16	204	1
2.7	2015_May_06_1259	s	s	4	3	SIC	463	ABS	2	2	10VD 02VO 02VC 02MD 02MO 02MC 02RD 02RO	0	1	1.83914089203	None	None	None	None	1
2.7	2015_May_06_1259	s	s	4	3	SIC	464	ABS	2	0	02VD 02VO 10VC 02MD 02MO 02MC 02RD 02RO	0	1	1.78848791122	None	None	None	None	1
2.7	2015_May_06_1259	s	s	4	3	SIC	465	ABS	2	1	02VD 10VO 02VC 02MD 02MO 02MC 02RD 02RO	0	1	1.9414229393	None	None	None	None	1
2.7	2015_May_06_1259	s	s	4	3	SIC	466	RC	1	1	02VD 02VO 02VC 02MD 09MO 02MC 02RD 02RO	1	0	1.01825284958	-482.0	-284.0	-491	-287	1
2.7	2015_May_06_1259	s	s	4	3	SIC	467	ABS	0	2	02VD 02VO 02VC 02MD 02MO 02MC 10RD 02RO	0	1	2.52500295639	None	None	None	None	1
2.7	2015_May_06_1259	s	s	4	3	SIC	468	ABS	2	0	02VD 02VO 10VC 02MD 02MO 02MC 02RD 02RO	0	1	1.60715389252	None	None	None	None	1
2.7	2015_May_06_1259	s	s	4	3	SIC	469	RC	0	2	02VD 02VO 02VC 02MD 02MO 02MC 09RD 02RO	1	0	1.32947993279	-534.0	69.0	-532	57	1
2.7	2015_May_06_1259	s	s	4	3	SIC	470	ABS	1	2	02VD 02VO 02VC 10MD 02MO 02MC 02RD 02RO	0	1	1.61880302429	None	None	None	None	1
2.7	2015_May_06_1259	s	s	4	3	SIC	471	RC	2	0	02VD 02VO 09VC 02MD 02MO 02MC 02RD 02RO	1	0	1.70107603073	202.0	-106.0	209	-107	1
2.7	2015_May_06_1259	s	s	4	3	SIC	472	RC	0	1	02VD 02VO 02VC 02MD 02MO 02MC 02RD 09RO	1	0	1.00669598579	-395.0	-9.0	-391	-17	1
2.7	2015_May_06_1259	s	s	4	3	SIC	473	RC	1	2	02VD 02VO 02VC 09MD 02MO 02MC 02RD 02RO	1	0	2.41230797768	340.0	339.0	337	342	1
2.7	2015_May_06_1259	s	s	4	3	SIC	474	RC	2	2	09VD 02VO 02VC 02MD 02MO 02MC 02RD 02RO	1	0	1.51765298843	-406.0	-316.0	-404	-316	1
2.7	2015_May_06_1259	s	s	4	3	SIC	475	ABS	2	2	10VD 02VO 02VC 02MD 02MO 02MC 02RD 02RO	0	1	2.00697684288	None	None	None	None	1
2.7	2015_May_06_1259	s	s	4	3	SIC	476	ABS	0	1	02VD 02VO 02VC 02MD 02MO 02MC 02RD 10RO	0	1	2.76045799255	None	None	None	None	1
2.7	2015_May_06_1259	s	s	4	3	SIC	477	ABS	1	1	02VD 02VO 02VC 02MD 10MO 02MC 02RD 02RO	0	1	1.83553814888	None	None	None	None	1
2.7	2015_May_06_1259	s	s	4	3	SIC	478	RC	2	1	02VD 09VO 02VC 02MD 02MO 02MC 02RD 02RO	1	0	0.953140974045	90.0	-76.0	98	-75	1
2.7	2015_May_06_1259	s	s	4	3	SIC	479	ABS	1	0	02VD 02VO 02VC 02MD 02MO 10MC 02RD 02RO	0	1	2.13912582397	None	None	None	None	1
2.7	2015_May_06_1259	s	s	4	3	SIC	480	RC	1	0	02VD 02VO 02VC 02MD 02MO 09MC 02RD 02RO	1	0	1.96279788017	-47.0	-372.0	-49	-377	1
