Version	Date	Stimuli	Method	Subject	Session	Condition	Trial	Target	Channel1	Channel2	Distractors	LMouseButton	RMouseButton	RT	TargetX	TargetY	ResponseX	ResponseY	Correct
2.7	2015_May_05_1307	s	s	4	2	Capacity	1	RC	0	1	08RD 15RO	1	0	3.62172007561	418.0	-239.0	415	-234	1
2.7	2015_May_05_1307	s	s	4	2	Capacity	2	ABS	0	1	08RD 16RO	0	1	4.77825784683	None	None	None	None	1
2.7	2015_May_05_1307	s	s	4	2	Capacity	3	RC	0	2	15RD 08RO	1	0	2.2828810215	-220.0	240.0	-216	245	1
2.7	2015_May_05_1307	s	s	4	2	Capacity	4	ABS	0	2	16RD 08RO	0	1	4.0131509304	None	None	None	None	1
2.7	2015_May_05_1307	s	s	4	2	Capacity	5	ABS	0	1	08RD 16RO	0	1	3.73970794678	None	None	None	None	1
2.7	2015_May_05_1307	s	s	4	2	Capacity	6	ABS	0	2	16RD 08RO	0	1	3.20706105232	None	None	None	None	1
2.7	2015_May_05_1307	s	s	4	2	Capacity	7	RC	0	2	15RD 08RO	0	1	3.30688810349	16.0	-56.0	None	None	0
2.7	2015_May_05_1307	s	s	4	2	Capacity	8	RC	0	1	08RD 15RO	1	0	1.54861402512	292.0	331.0	291	328	1
2.7	2015_May_05_1307	s	s	4	2	Capacity	9	ABS	0	2	16RD 08RO	0	1	3.07150006294	None	None	None	None	1
2.7	2015_May_05_1307	s	s	4	2	Capacity	10	RC	0	1	08RD 15RO	1	0	2.12978887558	470.0	12.0	466	14	1
2.7	2015_May_05_1307	s	s	4	2	Capacity	11	ABS	0	1	08RD 16RO	0	1	3.88109111786	None	None	None	None	1
2.7	2015_May_05_1307	s	s	4	2	Capacity	12	RC	0	2	15RD 08RO	1	0	1.34812903404	182.0	295.0	188	290	1
2.7	2015_May_05_1307	s	s	4	2	Capacity	13	RC	0	2	15RD 08RO	1	0	1.98497104645	246.0	-273.0	233	-267	1
2.7	2015_May_05_1307	s	s	4	2	Capacity	14	ABS	0	2	16RD 08RO	0	1	2.61908197403	None	None	None	None	1
2.7	2015_May_05_1307	s	s	4	2	Capacity	15	ABS	0	1	08RD 16RO	0	1	3.9777739048	None	None	None	None	1
2.7	2015_May_05_1307	s	s	4	2	Capacity	16	RC	0	1	08RD 15RO	1	0	1.06718182564	153.0	310.0	156	312	1
2.7	2015_May_05_1307	s	s	4	2	Capacity	17	ABS	0	2	16RD 08RO	0	1	3.50137901306	None	None	None	None	1
2.7	2015_May_05_1307	s	s	4	2	Capacity	18	RC	0	2	15RD 08RO	1	0	2.30641698837	59.0	-177.0	53	-176	1
2.7	2015_May_05_1307	s	s	4	2	Capacity	19	ABS	0	1	08RD 16RO	0	1	4.46047186852	None	None	None	None	1
2.7	2015_May_05_1307	s	s	4	2	Capacity	20	RC	0	1	08RD 15RO	1	0	1.78849601746	-265.0	211.0	-264	220	1
2.7	2015_May_05_1307	s	s	4	2	Capacity	21	RC	0	2	15RD 08RO	1	0	2.21224999428	113.0	-270.0	124	-265	1
2.7	2015_May_05_1307	s	s	4	2	Capacity	22	ABS	0	2	16RD 08RO	0	1	6.50354886055	None	None	None	None	1
2.7	2015_May_05_1307	s	s	4	2	Capacity	23	RC	0	1	08RD 15RO	1	0	3.75422787666	-419.0	-319.0	-411	-310	1
2.7	2015_May_05_1307	s	s	4	2	Capacity	24	ABS	0	1	08RD 16RO	0	1	4.41332697868	None	None	None	None	1
2.7	2015_May_05_1307	s	s	4	2	Capacity	25	ABS	0	1	08RD 16RO	0	1	4.25551199913	None	None	None	None	1
2.7	2015_May_05_1307	s	s	4	2	Capacity	26	RC	0	1	08RD 15RO	0	1	4.53103804588	-332.0	-31.0	None	None	0
2.7	2015_May_05_1307	s	s	4	2	Capacity	27	RC	0	2	15RD 08RO	0	1	2.5956890583	-346.0	-200.0	None	None	0
2.7	2015_May_05_1307	s	s	4	2	Capacity	28	ABS	0	2	16RD 08RO	0	1	3.41277599335	None	None	None	None	1
2.7	2015_May_05_1307	s	s	4	2	Capacity	29	RC	0	1	08RD 15RO	1	0	0.776262998581	-359.0	201.0	-355	198	1
2.7	2015_May_05_1307	s	s	4	2	Capacity	30	RC	0	2	15RD 08RO	1	0	1.70114803314	352.0	-6.0	355	-4	1
2.7	2015_May_05_1307	s	s	4	2	Capacity	31	ABS	0	2	16RD 08RO	0	1	2.18379807472	None	None	None	None	1
2.7	2015_May_05_1307	s	s	4	2	Capacity	32	ABS	0	1	08RD 16RO	0	1	3.47831201553	None	None	None	None	1
2.7	2015_May_05_1307	s	s	4	2	Capacity	33	ABS	0	1	08RD 16RO	0	1	3.63315200806	None	None	None	None	1
2.7	2015_May_05_1307	s	s	4	2	Capacity	34	ABS	0	2	16RD 08RO	0	1	2.97244286537	None	None	None	None	1
2.7	2015_May_05_1307	s	s	4	2	Capacity	35	RC	0	2	15RD 08RO	1	0	2.64775300026	293.0	-335.0	300	-342	1
2.7	2015_May_05_1307	s	s	4	2	Capacity	36	RC	0	1	08RD 15RO	1	0	2.9716219902	40.0	163.0	36	162	1
2.7	2015_May_05_1307	s	s	4	2	Capacity	37	RC	0	2	15RD 08RO	1	0	3.04443001747	261.0	-35.0	249	-30	1
2.7	2015_May_05_1307	s	s	4	2	Capacity	38	ABS	0	1	08RD 16RO	0	1	3.74896407127	None	None	None	None	1
2.7	2015_May_05_1307	s	s	4	2	Capacity	39	ABS	0	2	16RD 08RO	0	1	2.81950116158	None	None	None	None	1
2.7	2015_May_05_1307	s	s	4	2	Capacity	40	RC	0	1	08RD 15RO	1	0	1.71218705177	189.0	347.0	181	343	1
2.7	2015_May_05_1307	s	s	4	2	Capacity	41	ABS	0	1	08RD 16RO	0	1	3.58433818817	None	None	None	None	1
2.7	2015_May_05_1307	s	s	4	2	Capacity	42	RC	0	2	15RD 08RO	1	0	2.53671097755	-134.0	-355.0	-137	-349	1
2.7	2015_May_05_1307	s	s	4	2	Capacity	43	ABS	0	2	16RD 08RO	0	1	3.27818393707	None	None	None	None	1
2.7	2015_May_05_1307	s	s	4	2	Capacity	44	RC	0	1	08RD 15RO	1	0	1.19185304642	-11.0	400.0	-11	386	1
2.7	2015_May_05_1307	s	s	4	2	Capacity	45	ABS	0	2	16RD 08RO	0	1	3.11852884293	None	None	None	None	1
2.7	2015_May_05_1307	s	s	4	2	Capacity	46	RC	0	2	15RD 08RO	1	0	1.78849887848	290.0	151.0	296	155	1
2.7	2015_May_05_1307	s	s	4	2	Capacity	47	RC	0	1	08RD 15RO	1	0	3.54920911789	-442.0	-68.0	-438	-73	1
2.7	2015_May_05_1307	s	s	4	2	Capacity	48	ABS	0	1	08RD 16RO	0	1	3.89057302475	None	None	None	None	1
2.7	2015_May_05_1307	s	s	4	2	Capacity	49	ABS	0	2	16RD 08RO	0	1	2.6952559948	None	None	None	None	1
2.7	2015_May_05_1307	s	s	4	2	Capacity	50	RC	0	2	15RD 08RO	1	0	1.90348386765	75.0	14.0	76	10	1
2.7	2015_May_05_1307	s	s	4	2	Capacity	51	ABS	0	1	08RD 16RO	0	1	4.21336817741	None	None	None	None	1
2.7	2015_May_05_1307	s	s	4	2	Capacity	52	RC	0	1	08RD 15RO	1	0	1.56468319893	355.0	53.0	351	45	1
2.7	2015_May_05_1307	s	s	4	2	Capacity	53	RC	0	1	08RD 15RO	0	1	3.4307410717	-332.0	93.0	None	None	0
2.7	2015_May_05_1307	s	s	4	2	Capacity	54	ABS	0	2	16RD 08RO	0	1	2.77719497681	None	None	None	None	1
2.7	2015_May_05_1307	s	s	4	2	Capacity	55	ABS	0	1	08RD 16RO	0	1	3.73959898949	None	None	None	None	1
2.7	2015_May_05_1307	s	s	4	2	Capacity	56	RC	0	2	15RD 08RO	1	0	2.01585793495	-172.0	-128.0	-167	-134	1
2.7	2015_May_05_1307	s	s	4	2	Capacity	57	ABS	0	1	08RD 16RO	0	1	4.74297499657	None	None	None	None	1
2.7	2015_May_05_1307	s	s	4	2	Capacity	58	RC	0	2	15RD 08RO	1	0	1.48248410225	321.0	182.0	328	187	1
2.7	2015_May_05_1307	s	s	4	2	Capacity	59	ABS	0	2	16RD 08RO	0	1	3.2667529583	None	None	None	None	1
2.7	2015_May_05_1307	s	s	4	2	Capacity	60	RC	0	1	08RD 15RO	1	0	0.832279920578	-56.0	-7.0	-59	-21	1
2.7	2015_May_05_1307	s	s	4	2	Capacity	61	RC	0	2	15RD 08RO	1	0	0.712308168411	-195.0	-23.0	-185	-25	1
2.7	2015_May_05_1307	s	s	4	2	Capacity	62	RC	0	1	08RD 15RO	0	1	3.2664539814	-513.0	-205.0	None	None	0
2.7	2015_May_05_1307	s	s	4	2	Capacity	63	ABS	0	1	08RD 16RO	0	1	3.57778000832	None	None	None	None	1
2.7	2015_May_05_1307	s	s	4	2	Capacity	64	ABS	0	2	16RD 08RO	0	1	2.61290097237	None	None	None	None	1
2.7	2015_May_05_1307	s	s	4	2	Capacity	1	ABS	1	0	08VC 16MC	0	1	2.70061898232	None	None	None	None	1
2.7	2015_May_05_1307	s	s	4	2	Capacity	2	ABS	2	0	16VC 08MC	0	1	2.69477200508	None	None	None	None	1
2.7	2015_May_05_1307	s	s	4	2	Capacity	3	RC	2	0	15VC 08MC	1	0	3.24305415154	436.0	263.0	442	270	1
2.7	2015_May_05_1307	s	s	4	2	Capacity	4	RC	1	0	08VC 15MC	1	0	2.27089905739	507.0	-361.0	514	-359	1
2.7	2015_May_05_1307	s	s	4	2	Capacity	5	ABS	2	0	16VC 08MC	0	1	3.03122210503	None	None	None	None	1
2.7	2015_May_05_1307	s	s	4	2	Capacity	6	ABS	1	0	08VC 16MC	0	1	4.719383955	None	None	None	None	1
2.7	2015_May_05_1307	s	s	4	2	Capacity	7	RC	2	0	15VC 08MC	1	0	1.28918814659	-346.0	360.0	-356	366	1
2.7	2015_May_05_1307	s	s	4	2	Capacity	8	RC	1	0	08VC 15MC	1	0	1.11256504059	-287.0	-382.0	-283	-377	1
2.7	2015_May_05_1307	s	s	4	2	Capacity	9	RC	2	0	15VC 08MC	1	0	1.19482183456	-358.0	404.0	-359	404	1
2.7	2015_May_05_1307	s	s	4	2	Capacity	10	ABS	1	0	08VC 16MC	0	1	4.79631686211	None	None	None	None	1
2.7	2015_May_05_1307	s	s	4	2	Capacity	11	ABS	2	0	16VC 08MC	0	1	4.06026291847	None	None	None	None	1
2.7	2015_May_05_1307	s	s	4	2	Capacity	12	RC	1	0	08VC 15MC	1	0	1.71290111542	468.0	-73.0	470	-72	1
2.7	2015_May_05_1307	s	s	4	2	Capacity	13	ABS	1	0	08VC 16MC	0	1	5.01372599602	None	None	None	None	1
2.7	2015_May_05_1307	s	s	4	2	Capacity	14	ABS	2	0	16VC 08MC	0	1	2.75404596329	None	None	None	None	1
2.7	2015_May_05_1307	s	s	4	2	Capacity	15	RC	1	0	08VC 15MC	1	0	1.61197710037	515.0	165.0	518	167	1
2.7	2015_May_05_1307	s	s	4	2	Capacity	16	RC	2	0	15VC 08MC	1	0	1.11310100555	261.0	-252.0	267	-246	1
2.7	2015_May_05_1307	s	s	4	2	Capacity	17	RC	1	0	08VC 15MC	1	0	0.941200971603	-341.0	85.0	-343	91	1
2.7	2015_May_05_1307	s	s	4	2	Capacity	18	ABS	2	0	16VC 08MC	0	1	2.58357691765	None	None	None	None	1
2.7	2015_May_05_1307	s	s	4	2	Capacity	19	ABS	1	0	08VC 16MC	0	1	2.20691800117	None	None	None	None	1
2.7	2015_May_05_1307	s	s	4	2	Capacity	20	RC	2	0	15VC 08MC	1	0	0.99489402771	205.0	289.0	213	283	1
2.7	2015_May_05_1307	s	s	4	2	Capacity	21	RC	1	0	08VC 15MC	1	0	2.065969944	-425.0	-319.0	-425	-328	1
2.7	2015_May_05_1307	s	s	4	2	Capacity	22	ABS	2	0	16VC 08MC	0	1	2.24749898911	None	None	None	None	1
2.7	2015_May_05_1307	s	s	4	2	Capacity	23	RC	2	0	15VC 08MC	1	0	1.33650898933	357.0	389.0	362	392	1
2.7	2015_May_05_1307	s	s	4	2	Capacity	24	ABS	1	0	08VC 16MC	0	1	3.44259595871	None	None	None	None	1
2.7	2015_May_05_1307	s	s	4	2	Capacity	25	RC	1	0	08VC 15MC	1	0	0.938624858856	-401.0	11.0	-404	2	1
2.7	2015_May_05_1307	s	s	4	2	Capacity	26	ABS	1	0	08VC 16MC	0	1	2.63273286819	None	None	None	None	1
2.7	2015_May_05_1307	s	s	4	2	Capacity	27	ABS	2	0	16VC 08MC	0	1	3.31877994537	None	None	None	None	1
2.7	2015_May_05_1307	s	s	4	2	Capacity	28	RC	2	0	15VC 08MC	1	0	0.964570999146	-468.0	-175.0	-466	-175	1
2.7	2015_May_05_1307	s	s	4	2	Capacity	29	ABS	1	0	08VC 16MC	0	1	2.7840590477	None	None	None	None	1
2.7	2015_May_05_1307	s	s	4	2	Capacity	30	RC	1	0	08VC 15MC	1	0	2.23063611984	489.0	203.0	491	209	1
2.7	2015_May_05_1307	s	s	4	2	Capacity	31	ABS	2	0	16VC 08MC	0	1	2.29459404945	None	None	None	None	1
2.7	2015_May_05_1307	s	s	4	2	Capacity	32	RC	2	0	15VC 08MC	1	0	0.846883058548	-158.0	-3.0	-163	-7	1
2.7	2015_May_05_1307	s	s	4	2	Capacity	33	ABS	1	0	08VC 16MC	0	1	1.83563899994	None	None	None	None	1
2.7	2015_May_05_1307	s	s	4	2	Capacity	34	RC	2	0	15VC 08MC	1	0	0.723531007767	62.0	76.0	67	77	1
2.7	2015_May_05_1307	s	s	4	2	Capacity	35	ABS	2	0	16VC 08MC	0	1	2.33919692039	None	None	None	None	1
2.7	2015_May_05_1307	s	s	4	2	Capacity	36	RC	1	0	08VC 15MC	1	0	1.34493494034	523.0	360.0	526	354	1
2.7	2015_May_05_1307	s	s	4	2	Capacity	37	RC	1	0	08VC 15MC	1	0	0.764395952225	120.0	114.0	114	110	1
2.7	2015_May_05_1307	s	s	4	2	Capacity	38	ABS	1	0	08VC 16MC	0	1	2.28291201591	None	None	None	None	1
2.7	2015_May_05_1307	s	s	4	2	Capacity	39	ABS	2	0	16VC 08MC	0	1	2.53874087334	None	None	None	None	1
2.7	2015_May_05_1307	s	s	4	2	Capacity	40	RC	2	0	15VC 08MC	1	0	1.00892615318	-395.0	-278.0	-404	-281	1
2.7	2015_May_05_1307	s	s	4	2	Capacity	41	RC	1	0	08VC 15MC	1	0	1.28606390953	5.0	-175.0	11	-166	1
2.7	2015_May_05_1307	s	s	4	2	Capacity	42	RC	2	0	15VC 08MC	1	0	1.12940716743	-9.0	252.0	-11	251	1
2.7	2015_May_05_1307	s	s	4	2	Capacity	43	ABS	1	0	08VC 16MC	0	1	3.44547700882	None	None	None	None	1
2.7	2015_May_05_1307	s	s	4	2	Capacity	44	ABS	2	0	16VC 08MC	0	1	1.89485096931	None	None	None	None	1
2.7	2015_May_05_1307	s	s	4	2	Capacity	45	RC	1	0	08VC 15MC	1	0	1.82422208786	-526.0	-239.0	-537	-238	1
2.7	2015_May_05_1307	s	s	4	2	Capacity	46	ABS	1	0	08VC 16MC	0	1	4.23719000816	None	None	None	None	1
2.7	2015_May_05_1307	s	s	4	2	Capacity	47	ABS	2	0	16VC 08MC	0	1	2.64253401756	None	None	None	None	1
2.7	2015_May_05_1307	s	s	4	2	Capacity	48	RC	2	0	15VC 08MC	1	0	0.823319196701	177.0	-108.0	180	-103	1
2.7	2015_May_05_1307	s	s	4	2	Capacity	49	RC	2	0	15VC 08MC	1	0	0.865557909012	-385.0	-99.0	-380	-98	1
2.7	2015_May_05_1307	s	s	4	2	Capacity	50	ABS	1	0	08VC 16MC	0	1	2.25650000572	None	None	None	None	1
2.7	2015_May_05_1307	s	s	4	2	Capacity	51	ABS	2	0	16VC 08MC	0	1	3.1185939312	None	None	None	None	1
2.7	2015_May_05_1307	s	s	4	2	Capacity	52	RC	1	0	08VC 15MC	1	0	0.59574007988	32.0	81.0	28	82	1
2.7	2015_May_05_1307	s	s	4	2	Capacity	53	ABS	2	0	16VC 08MC	0	1	2.38381910324	None	None	None	None	1
2.7	2015_May_05_1307	s	s	4	2	Capacity	54	ABS	1	0	08VC 16MC	0	1	2.94201898575	None	None	None	None	1
2.7	2015_May_05_1307	s	s	4	2	Capacity	55	RC	2	0	15VC 08MC	1	0	0.893843889236	-380.0	341.0	-379	343	1
2.7	2015_May_05_1307	s	s	4	2	Capacity	56	RC	1	0	08VC 15MC	1	0	0.829925060272	77.0	245.0	83	249	1
2.7	2015_May_05_1307	s	s	4	2	Capacity	57	RC	1	0	08VC 15MC	1	0	1.02344703674	-5.0	-295.0	5	-287	1
2.7	2015_May_05_1307	s	s	4	2	Capacity	58	RC	2	0	15VC 08MC	1	0	0.771066188812	506.0	143.0	501	136	1
2.7	2015_May_05_1307	s	s	4	2	Capacity	59	ABS	1	0	08VC 16MC	0	1	2.94199895859	None	None	None	None	1
2.7	2015_May_05_1307	s	s	4	2	Capacity	60	ABS	2	0	16VC 08MC	0	1	2.10108709335	None	None	None	None	1
2.7	2015_May_05_1307	s	s	4	2	Capacity	61	RC	2	0	15VC 08MC	1	0	0.653676986694	-385.0	-122.0	-387	-137	1
2.7	2015_May_05_1307	s	s	4	2	Capacity	62	RC	1	0	08VC 15MC	1	0	0.735949039459	-263.0	-197.0	-263	-198	1
2.7	2015_May_05_1307	s	s	4	2	Capacity	63	ABS	1	0	08VC 16MC	0	1	2.51346802711	None	None	None	None	1
2.7	2015_May_05_1307	s	s	4	2	Capacity	64	ABS	2	0	16VC 08MC	0	1	2.32995200157	None	None	None	None	1
2.7	2015_May_05_1307	s	s	4	2	SIC	1	RC	1	1	02VD 02VO 02VC 02MD 09MO 02MC 02RD 02RO	1	0	1.56488394737	-28.0	202.0	-22	202	1
2.7	2015_May_05_1307	s	s	4	2	SIC	2	ABS	1	1	02VD 02VO 02VC 02MD 10MO 02MC 02RD 02RO	0	1	3.10664176941	None	None	None	None	1
2.7	2015_May_05_1307	s	s	4	2	SIC	3	RC	1	2	02VD 02VO 02VC 09MD 02MO 02MC 02RD 02RO	1	0	1.26797389984	265.0	-221.0	269	-216	1
2.7	2015_May_05_1307	s	s	4	2	SIC	4	ABS	2	1	02VD 10VO 02VC 02MD 02MO 02MC 02RD 02RO	0	1	2.5418419838	None	None	None	None	1
2.7	2015_May_05_1307	s	s	4	2	SIC	5	ABS	0	1	02VD 02VO 02VC 02MD 02MO 02MC 02RD 10RO	0	1	4.56127500534	None	None	None	None	1
2.7	2015_May_05_1307	s	s	4	2	SIC	6	RC	0	2	02VD 02VO 02VC 02MD 02MO 02MC 09RD 02RO	1	0	0.783376932144	-379.0	167.0	-377	168	1
2.7	2015_May_05_1307	s	s	4	2	SIC	7	ABS	0	2	02VD 02VO 02VC 02MD 02MO 02MC 10RD 02RO	0	1	2.93011307716	None	None	None	None	1
2.7	2015_May_05_1307	s	s	4	2	SIC	8	ABS	2	2	10VD 02VO 02VC 02MD 02MO 02MC 02RD 02RO	0	1	2.10634493828	None	None	None	None	1
2.7	2015_May_05_1307	s	s	4	2	SIC	9	RC	1	0	02VD 02VO 02VC 02MD 02MO 09MC 02RD 02RO	1	0	2.00033116341	-501.0	-234.0	-502	-235	1
2.7	2015_May_05_1307	s	s	4	2	SIC	10	RC	2	2	09VD 02VO 02VC 02MD 02MO 02MC 02RD 02RO	1	0	2.36528992653	399.0	-393.0	399	-395	1
2.7	2015_May_05_1307	s	s	4	2	SIC	11	ABS	1	0	02VD 02VO 02VC 02MD 02MO 10MC 02RD 02RO	0	1	2.90656709671	None	None	None	None	1
2.7	2015_May_05_1307	s	s	4	2	SIC	12	ABS	2	0	02VD 02VO 10VC 02MD 02MO 02MC 02RD 02RO	0	1	1.94825005531	None	None	None	None	1
2.7	2015_May_05_1307	s	s	4	2	SIC	13	ABS	1	2	02VD 02VO 02VC 10MD 02MO 02MC 02RD 02RO	0	1	2.56530594826	None	None	None	None	1
2.7	2015_May_05_1307	s	s	4	2	SIC	14	RC	0	1	02VD 02VO 02VC 02MD 02MO 02MC 02RD 09RO	1	0	1.76538705826	-48.0	-305.0	-61	-300	1
2.7	2015_May_05_1307	s	s	4	2	SIC	15	RC	2	1	02VD 09VO 02VC 02MD 02MO 02MC 02RD 02RO	1	0	1.37676620483	403.0	31.0	406	32	1
2.7	2015_May_05_1307	s	s	4	2	SIC	16	RC	2	0	02VD 02VO 09VC 02MD 02MO 02MC 02RD 02RO	1	0	1.38828706741	-454.0	-170.0	-455	-169	1
2.7	2015_May_05_1307	s	s	4	2	SIC	17	RC	1	2	02VD 02VO 02VC 09MD 02MO 02MC 02RD 02RO	1	0	1.70612692833	-442.0	209.0	-445	202	1
2.7	2015_May_05_1307	s	s	4	2	SIC	18	RC	2	2	09VD 02VO 02VC 02MD 02MO 02MC 02RD 02RO	1	0	1.32436108589	464.0	135.0	458	135	1
2.7	2015_May_05_1307	s	s	4	2	SIC	19	RC	1	0	02VD 02VO 02VC 02MD 02MO 09MC 02RD 02RO	1	0	2.64405894279	-178.0	-222.0	-182	-227	1
2.7	2015_May_05_1307	s	s	4	2	SIC	20	ABS	1	2	02VD 02VO 02VC 10MD 02MO 02MC 02RD 02RO	0	1	2.58407711983	None	None	None	None	1
2.7	2015_May_05_1307	s	s	4	2	SIC	21	ABS	2	2	10VD 02VO 02VC 02MD 02MO 02MC 02RD 02RO	0	1	2.39562392235	None	None	None	None	1
2.7	2015_May_05_1307	s	s	4	2	SIC	22	ABS	1	0	02VD 02VO 02VC 02MD 02MO 10MC 02RD 02RO	0	1	3.16073203087	None	None	None	None	1
2.7	2015_May_05_1307	s	s	4	2	SIC	23	RC	2	1	02VD 09VO 02VC 02MD 02MO 02MC 02RD 02RO	1	0	1.35300707817	420.0	-24.0	427	-29	1
2.7	2015_May_05_1307	s	s	4	2	SIC	24	ABS	2	1	02VD 10VO 02VC 02MD 02MO 02MC 02RD 02RO	0	1	2.89496898651	None	None	None	None	1
2.7	2015_May_05_1307	s	s	4	2	SIC	25	ABS	2	0	02VD 02VO 10VC 02MD 02MO 02MC 02RD 02RO	0	1	2.13007688522	None	None	None	None	1
2.7	2015_May_05_1307	s	s	4	2	SIC	26	ABS	0	1	02VD 02VO 02VC 02MD 02MO 02MC 02RD 10RO	0	1	2.8596200943	None	None	None	None	1
2.7	2015_May_05_1307	s	s	4	2	SIC	27	RC	0	2	02VD 02VO 02VC 02MD 02MO 02MC 09RD 02RO	1	0	1.16462898254	323.0	-102.0	329	-102	1
2.7	2015_May_05_1307	s	s	4	2	SIC	28	ABS	0	2	02VD 02VO 02VC 02MD 02MO 02MC 10RD 02RO	0	1	2.20730495453	None	None	None	None	1
2.7	2015_May_05_1307	s	s	4	2	SIC	29	ABS	1	1	02VD 02VO 02VC 02MD 10MO 02MC 02RD 02RO	0	1	2.25656890869	None	None	None	None	1
2.7	2015_May_05_1307	s	s	4	2	SIC	30	RC	1	1	02VD 02VO 02VC 02MD 09MO 02MC 02RD 02RO	1	0	1.25877308846	-188.0	159.0	-184	159	1
2.7	2015_May_05_1307	s	s	4	2	SIC	31	RC	0	1	02VD 02VO 02VC 02MD 02MO 02MC 02RD 09RO	1	0	1.66573810577	96.0	-133.0	88	-126	1
2.7	2015_May_05_1307	s	s	4	2	SIC	32	RC	2	0	02VD 02VO 09VC 02MD 02MO 02MC 02RD 02RO	1	0	5.6448829174	-479.0	392.0	-479	398	1
2.7	2015_May_05_1307	s	s	4	2	SIC	33	RC	1	2	02VD 02VO 02VC 09MD 02MO 02MC 02RD 02RO	1	0	0.988053798676	-147.0	-40.0	-141	-39	1
2.7	2015_May_05_1307	s	s	4	2	SIC	34	ABS	0	2	02VD 02VO 02VC 02MD 02MO 02MC 10RD 02RO	0	1	3.07145810127	None	None	None	None	1
2.7	2015_May_05_1307	s	s	4	2	SIC	35	RC	2	1	02VD 09VO 02VC 02MD 02MO 02MC 02RD 02RO	1	0	1.4775891304	-222.0	354.0	-213	351	1
2.7	2015_May_05_1307	s	s	4	2	SIC	36	RC	2	0	02VD 02VO 09VC 02MD 02MO 02MC 02RD 02RO	1	0	1.29408502579	165.0	25.0	166	21	1
2.7	2015_May_05_1307	s	s	4	2	SIC	37	RC	0	1	02VD 02VO 02VC 02MD 02MO 02MC 02RD 09RO	1	0	2.73602700233	112.0	-326.0	116	-331	1
2.7	2015_May_05_1307	s	s	4	2	SIC	38	ABS	2	0	02VD 02VO 10VC 02MD 02MO 02MC 02RD 02RO	0	1	2.33669281006	None	None	None	None	1
2.7	2015_May_05_1307	s	s	4	2	SIC	39	ABS	1	1	02VD 02VO 02VC 02MD 10MO 02MC 02RD 02RO	0	1	2.46603989601	None	None	None	None	1
2.7	2015_May_05_1307	s	s	4	2	SIC	40	ABS	2	2	10VD 02VO 02VC 02MD 02MO 02MC 02RD 02RO	0	1	2.14795994759	None	None	None	None	1
2.7	2015_May_05_1307	s	s	4	2	SIC	41	RC	2	2	09VD 02VO 02VC 02MD 02MO 02MC 02RD 02RO	1	0	0.988070011139	44.0	10.0	53	20	1
2.7	2015_May_05_1307	s	s	4	2	SIC	42	RC	0	2	02VD 02VO 02VC 02MD 02MO 02MC 09RD 02RO	1	0	2.86834597588	-224.0	-73.0	-223	-73	1
2.7	2015_May_05_1307	s	s	4	2	SIC	43	RC	1	1	02VD 02VO 02VC 02MD 09MO 02MC 02RD 02RO	1	0	1.19996190071	101.0	-139.0	98	-142	1
2.7	2015_May_05_1307	s	s	4	2	SIC	44	ABS	2	1	02VD 10VO 02VC 02MD 02MO 02MC 02RD 02RO	0	1	2.17355394363	None	None	None	None	1
2.7	2015_May_05_1307	s	s	4	2	SIC	45	ABS	0	1	02VD 02VO 02VC 02MD 02MO 02MC 02RD 10RO	0	1	3.33711695671	None	None	None	None	1
2.7	2015_May_05_1307	s	s	4	2	SIC	46	ABS	1	0	02VD 02VO 02VC 02MD 02MO 10MC 02RD 02RO	0	1	2.33652496338	None	None	None	None	1
2.7	2015_May_05_1307	s	s	4	2	SIC	47	ABS	1	2	02VD 02VO 02VC 10MD 02MO 02MC 02RD 02RO	0	1	1.75967502594	None	None	None	None	1
2.7	2015_May_05_1307	s	s	4	2	SIC	48	RC	1	0	02VD 02VO 02VC 02MD 02MO 09MC 02RD 02RO	1	0	3.25981807709	504.0	-85.0	513	-83	1
2.7	2015_May_05_1307	s	s	4	2	SIC	49	RC	0	2	02VD 02VO 02VC 02MD 02MO 02MC 09RD 02RO	1	0	1.01157999039	403.0	-292.0	404	-292	1
2.7	2015_May_05_1307	s	s	4	2	SIC	50	ABS	1	1	02VD 02VO 02VC 02MD 10MO 02MC 02RD 02RO	0	1	3.07153701782	None	None	None	None	1
2.7	2015_May_05_1307	s	s	4	2	SIC	51	RC	2	1	02VD 09VO 02VC 02MD 02MO 02MC 02RD 02RO	1	0	1.11758494377	-109.0	132.0	-112	128	1
2.7	2015_May_05_1307	s	s	4	2	SIC	52	RC	1	2	02VD 02VO 02VC 09MD 02MO 02MC 02RD 02RO	1	0	1.80027198792	-392.0	-241.0	-388	-247	1
2.7	2015_May_05_1307	s	s	4	2	SIC	53	ABS	2	0	02VD 02VO 10VC 02MD 02MO 02MC 02RD 02RO	0	1	2.480437994	None	None	None	None	1
2.7	2015_May_05_1307	s	s	4	2	SIC	54	ABS	1	0	02VD 02VO 02VC 02MD 02MO 10MC 02RD 02RO	0	1	3.00874614716	None	None	None	None	1
2.7	2015_May_05_1307	s	s	4	2	SIC	55	RC	0	1	02VD 02VO 02VC 02MD 02MO 02MC 02RD 09RO	1	0	3.42459702492	192.0	-32.0	197	-31	1
2.7	2015_May_05_1307	s	s	4	2	SIC	56	ABS	0	2	02VD 02VO 02VC 02MD 02MO 02MC 10RD 02RO	0	1	2.50147104263	None	None	None	None	1
2.7	2015_May_05_1307	s	s	4	2	SIC	57	RC	2	2	09VD 02VO 02VC 02MD 02MO 02MC 02RD 02RO	1	0	1.41185688972	-481.0	3.0	-479	0	1
2.7	2015_May_05_1307	s	s	4	2	SIC	58	RC	1	0	02VD 02VO 02VC 02MD 02MO 09MC 02RD 02RO	1	0	1.35293602943	151.0	-328.0	154	-326	1
2.7	2015_May_05_1307	s	s	4	2	SIC	59	RC	2	0	02VD 02VO 09VC 02MD 02MO 02MC 02RD 02RO	1	0	1.35976910591	256.0	81.0	262	83	1
2.7	2015_May_05_1307	s	s	4	2	SIC	60	ABS	2	1	02VD 10VO 02VC 02MD 02MO 02MC 02RD 02RO	0	1	2.32995295525	None	None	None	None	1
2.7	2015_May_05_1307	s	s	4	2	SIC	61	RC	1	1	02VD 02VO 02VC 02MD 09MO 02MC 02RD 02RO	1	0	1.19666385651	539.0	52.0	541	56	1
2.7	2015_May_05_1307	s	s	4	2	SIC	62	ABS	2	2	10VD 02VO 02VC 02MD 02MO 02MC 02RD 02RO	0	1	2.59770298004	None	None	None	None	1
2.7	2015_May_05_1307	s	s	4	2	SIC	63	ABS	0	1	02VD 02VO 02VC 02MD 02MO 02MC 02RD 10RO	0	1	2.95382785797	None	None	None	None	1
2.7	2015_May_05_1307	s	s	4	2	SIC	64	ABS	1	2	02VD 02VO 02VC 10MD 02MO 02MC 02RD 02RO	0	1	2.5653629303	None	None	None	None	1
2.7	2015_May_05_1307	s	s	4	2	SIC	65	ABS	1	0	02VD 02VO 02VC 02MD 02MO 10MC 02RD 02RO	0	1	2.64292407036	None	None	None	None	1
2.7	2015_May_05_1307	s	s	4	2	SIC	66	ABS	2	1	02VD 10VO 02VC 02MD 02MO 02MC 02RD 02RO	0	1	1.8540699482	None	None	None	None	1
2.7	2015_May_05_1307	s	s	4	2	SIC	67	RC	1	0	02VD 02VO 02VC 02MD 02MO 09MC 02RD 02RO	1	0	1.93882417679	-537.0	372.0	-537	361	1
2.7	2015_May_05_1307	s	s	4	2	SIC	68	ABS	2	2	10VD 02VO 02VC 02MD 02MO 02MC 02RD 02RO	0	1	2.25430989265	None	None	None	None	1
2.7	2015_May_05_1307	s	s	4	2	SIC	69	ABS	0	2	02VD 02VO 02VC 02MD 02MO 02MC 10RD 02RO	0	1	2.81977510452	None	None	None	None	1
2.7	2015_May_05_1307	s	s	4	2	SIC	70	RC	0	2	02VD 02VO 02VC 02MD 02MO 02MC 09RD 02RO	1	0	1.05615901947	-309.0	-108.0	-310	-110	1
2.7	2015_May_05_1307	s	s	4	2	SIC	71	ABS	1	2	02VD 02VO 02VC 10MD 02MO 02MC 02RD 02RO	0	1	2.44248986244	None	None	None	None	1
2.7	2015_May_05_1307	s	s	4	2	SIC	72	ABS	1	1	02VD 02VO 02VC 02MD 10MO 02MC 02RD 02RO	0	1	2.23579716682	None	None	None	None	1
2.7	2015_May_05_1307	s	s	4	2	SIC	73	RC	2	2	09VD 02VO 02VC 02MD 02MO 02MC 02RD 02RO	1	0	1.10218214989	-94.0	237.0	-101	239	1
2.7	2015_May_05_1307	s	s	4	2	SIC	74	RC	2	0	02VD 02VO 09VC 02MD 02MO 02MC 02RD 02RO	1	0	0.776181221008	-91.0	-155.0	-85	-155	1
2.7	2015_May_05_1307	s	s	4	2	SIC	75	RC	1	2	02VD 02VO 02VC 09MD 02MO 02MC 02RD 02RO	1	0	1.37650704384	256.0	196.0	261	196	1
2.7	2015_May_05_1307	s	s	4	2	SIC	76	RC	2	1	02VD 09VO 02VC 02MD 02MO 02MC 02RD 02RO	1	0	1.71206188202	75.0	372.0	81	375	1
2.7	2015_May_05_1307	s	s	4	2	SIC	77	ABS	2	0	02VD 02VO 10VC 02MD 02MO 02MC 02RD 02RO	0	1	2.67816019058	None	None	None	None	1
2.7	2015_May_05_1307	s	s	4	2	SIC	78	ABS	0	1	02VD 02VO 02VC 02MD 02MO 02MC 02RD 10RO	0	1	5.31477808952	None	None	None	None	1
2.7	2015_May_05_1307	s	s	4	2	SIC	79	RC	0	1	02VD 02VO 02VC 02MD 02MO 02MC 02RD 09RO	1	0	0.595063924789	65.0	-6.0	68	-14	1
2.7	2015_May_05_1307	s	s	4	2	SIC	80	RC	1	1	02VD 02VO 02VC 02MD 09MO 02MC 02RD 02RO	1	0	1.34935283661	-282.0	205.0	-288	206	1
2.7	2015_May_05_1307	s	s	4	2	SIC	81	RC	2	0	02VD 02VO 09VC 02MD 02MO 02MC 02RD 02RO	1	0	1.67912602425	268.0	97.0	270	105	1
2.7	2015_May_05_1307	s	s	4	2	SIC	82	RC	2	2	09VD 02VO 02VC 02MD 02MO 02MC 02RD 02RO	1	0	1.61186408997	475.0	-201.0	475	-197	1
2.7	2015_May_05_1307	s	s	4	2	SIC	83	RC	1	1	02VD 02VO 02VC 02MD 09MO 02MC 02RD 02RO	1	0	0.905599832535	50.0	78.0	47	78	1
2.7	2015_May_05_1307	s	s	4	2	SIC	84	RC	0	2	02VD 02VO 02VC 02MD 02MO 02MC 09RD 02RO	1	0	4.89594578743	-57.0	-158.0	-58	-152	1
2.7	2015_May_05_1307	s	s	4	2	SIC	85	ABS	2	0	02VD 02VO 10VC 02MD 02MO 02MC 02RD 02RO	0	1	3.17229604721	None	None	None	None	1
2.7	2015_May_05_1307	s	s	4	2	SIC	86	ABS	1	0	02VD 02VO 02VC 02MD 02MO 10MC 02RD 02RO	0	1	4.19792294502	None	None	None	None	1
2.7	2015_May_05_1307	s	s	4	2	SIC	87	ABS	0	1	02VD 02VO 02VC 02MD 02MO 02MC 02RD 10RO	0	1	4.667096138	None	None	None	None	1
2.7	2015_May_05_1307	s	s	4	2	SIC	88	ABS	2	1	02VD 10VO 02VC 02MD 02MO 02MC 02RD 02RO	0	1	2.38370394707	None	None	None	None	1
2.7	2015_May_05_1307	s	s	4	2	SIC	89	RC	0	1	02VD 02VO 02VC 02MD 02MO 02MC 02RD 09RO	1	0	2.3250849247	463.0	-213.0	466	-211	1
2.7	2015_May_05_1307	s	s	4	2	SIC	90	ABS	1	2	02VD 02VO 02VC 10MD 02MO 02MC 02RD 02RO	0	1	3.15396404266	None	None	None	None	1
2.7	2015_May_05_1307	s	s	4	2	SIC	91	ABS	2	2	10VD 02VO 02VC 02MD 02MO 02MC 02RD 02RO	0	1	2.72643709183	None	None	None	None	1
2.7	2015_May_05_1307	s	s	4	2	SIC	92	RC	1	2	02VD 02VO 02VC 09MD 02MO 02MC 02RD 02RO	1	0	1.71474289894	43.0	384.0	42	384	1
2.7	2015_May_05_1307	s	s	4	2	SIC	93	RC	1	0	02VD 02VO 02VC 02MD 02MO 09MC 02RD 02RO	1	0	1.11256814003	-144.0	156.0	-151	154	1
2.7	2015_May_05_1307	s	s	4	2	SIC	94	ABS	1	1	02VD 02VO 02VC 02MD 10MO 02MC 02RD 02RO	0	1	2.64770102501	None	None	None	None	1
2.7	2015_May_05_1307	s	s	4	2	SIC	95	RC	2	1	02VD 09VO 02VC 02MD 02MO 02MC 02RD 02RO	1	0	0.948521852493	224.0	-101.0	214	-99	1
2.7	2015_May_05_1307	s	s	4	2	SIC	96	ABS	0	2	02VD 02VO 02VC 02MD 02MO 02MC 10RD 02RO	0	1	3.6903128624	None	None	None	None	1
2.7	2015_May_05_1307	s	s	4	2	SIC	97	ABS	2	0	02VD 02VO 10VC 02MD 02MO 02MC 02RD 02RO	0	1	2.3486468792	None	None	None	None	1
2.7	2015_May_05_1307	s	s	4	2	SIC	98	ABS	2	2	10VD 02VO 02VC 02MD 02MO 02MC 02RD 02RO	0	1	2.52512693405	None	None	None	None	1
2.7	2015_May_05_1307	s	s	4	2	SIC	99	RC	1	0	02VD 02VO 02VC 02MD 02MO 09MC 02RD 02RO	1	0	2.63327097893	88.0	-400.0	91	-405	1
2.7	2015_May_05_1307	s	s	4	2	SIC	100	RC	0	2	02VD 02VO 02VC 02MD 02MO 02MC 09RD 02RO	1	0	0.865036010742	-361.0	-248.0	-363	-253	1
2.7	2015_May_05_1307	s	s	4	2	SIC	101	RC	0	1	02VD 02VO 02VC 02MD 02MO 02MC 02RD 09RO	1	0	2.78595995903	-234.0	399.0	-234	392	1
2.7	2015_May_05_1307	s	s	4	2	SIC	102	RC	2	2	09VD 02VO 02VC 02MD 02MO 02MC 02RD 02RO	1	0	1.00776600838	-103.0	-348.0	-100	-342	1
2.7	2015_May_05_1307	s	s	4	2	SIC	103	ABS	0	1	02VD 02VO 02VC 02MD 02MO 02MC 02RD 10RO	0	1	4.02039599419	None	None	None	None	1
2.7	2015_May_05_1307	s	s	4	2	SIC	104	ABS	1	1	02VD 02VO 02VC 02MD 10MO 02MC 02RD 02RO	0	1	2.84783911705	None	None	None	None	1
2.7	2015_May_05_1307	s	s	4	2	SIC	105	RC	1	2	02VD 02VO 02VC 09MD 02MO 02MC 02RD 02RO	1	0	0.81839799881	-301.0	198.0	-299	190	1
2.7	2015_May_05_1307	s	s	4	2	SIC	106	RC	1	1	02VD 02VO 02VC 02MD 09MO 02MC 02RD 02RO	1	0	1.76250195503	515.0	212.0	517	215	1
2.7	2015_May_05_1307	s	s	4	2	SIC	107	ABS	2	1	02VD 10VO 02VC 02MD 02MO 02MC 02RD 02RO	0	1	2.77131104469	None	None	None	None	1
2.7	2015_May_05_1307	s	s	4	2	SIC	108	ABS	0	2	02VD 02VO 02VC 02MD 02MO 02MC 10RD 02RO	0	1	2.11240792274	None	None	None	None	1
2.7	2015_May_05_1307	s	s	4	2	SIC	109	ABS	1	2	02VD 02VO 02VC 10MD 02MO 02MC 02RD 02RO	0	1	2.40701198578	None	None	None	None	1
2.7	2015_May_05_1307	s	s	4	2	SIC	110	ABS	1	0	02VD 02VO 02VC 02MD 02MO 10MC 02RD 02RO	0	1	4.16619586945	None	None	None	None	1
2.7	2015_May_05_1307	s	s	4	2	SIC	111	RC	2	0	02VD 02VO 09VC 02MD 02MO 02MC 02RD 02RO	1	0	1.66595411301	418.0	238.0	119	10	0
2.7	2015_May_05_1307	s	s	4	2	SIC	112	RC	2	1	02VD 09VO 02VC 02MD 02MO 02MC 02RD 02RO	1	0	1.92604398727	-485.0	-182.0	-483	-187	1
2.7	2015_May_05_1307	s	s	4	2	SIC	113	ABS	2	0	02VD 02VO 10VC 02MD 02MO 02MC 02RD 02RO	0	1	2.91845798492	None	None	None	None	1
2.7	2015_May_05_1307	s	s	4	2	SIC	114	ABS	0	2	02VD 02VO 02VC 02MD 02MO 02MC 10RD 02RO	0	1	3.41968488693	None	None	None	None	1
2.7	2015_May_05_1307	s	s	4	2	SIC	115	RC	1	0	02VD 02VO 02VC 02MD 02MO 09MC 02RD 02RO	1	0	1.12971496582	-264.0	-44.0	-265	-55	1
2.7	2015_May_05_1307	s	s	4	2	SIC	116	ABS	2	1	02VD 10VO 02VC 02MD 02MO 02MC 02RD 02RO	0	1	2.46841192245	None	None	None	None	1
2.7	2015_May_05_1307	s	s	4	2	SIC	117	RC	1	2	02VD 02VO 02VC 09MD 02MO 02MC 02RD 02RO	0	1	2.15343880653	491.0	256.0	None	None	0
2.7	2015_May_05_1307	s	s	4	2	SIC	118	RC	0	1	02VD 02VO 02VC 02MD 02MO 02MC 02RD 09RO	1	0	2.3249900341	-270.0	276.0	-269	274	1
2.7	2015_May_05_1307	s	s	4	2	SIC	119	ABS	1	1	02VD 02VO 02VC 02MD 10MO 02MC 02RD 02RO	0	1	2.12985897064	None	None	None	None	1
2.7	2015_May_05_1307	s	s	4	2	SIC	120	RC	2	2	09VD 02VO 02VC 02MD 02MO 02MC 02RD 02RO	1	0	1.67753815651	347.0	-361.0	350	-361	1
2.7	2015_May_05_1307	s	s	4	2	SIC	121	RC	2	0	02VD 02VO 09VC 02MD 02MO 02MC 02RD 02RO	1	0	1.26546311378	126.0	-143.0	121	-142	1
2.7	2015_May_05_1307	s	s	4	2	SIC	122	ABS	2	2	10VD 02VO 02VC 02MD 02MO 02MC 02RD 02RO	0	1	2.48020482063	None	None	None	None	1
2.7	2015_May_05_1307	s	s	4	2	SIC	123	RC	1	1	02VD 02VO 02VC 02MD 09MO 02MC 02RD 02RO	1	0	2.97214508057	-464.0	283.0	-474	285	1
2.7	2015_May_05_1307	s	s	4	2	SIC	124	ABS	0	1	02VD 02VO 02VC 02MD 02MO 02MC 02RD 10RO	0	1	3.63108420372	None	None	None	None	1
2.7	2015_May_05_1307	s	s	4	2	SIC	125	RC	0	2	02VD 02VO 02VC 02MD 02MO 02MC 09RD 02RO	1	0	1.44761991501	-478.0	-197.0	-483	-197	1
2.7	2015_May_05_1307	s	s	4	2	SIC	126	RC	2	1	02VD 09VO 02VC 02MD 02MO 02MC 02RD 02RO	1	0	1.91261005402	-386.0	282.0	-387	278	1
2.7	2015_May_05_1307	s	s	4	2	SIC	127	ABS	1	2	02VD 02VO 02VC 10MD 02MO 02MC 02RD 02RO	0	1	2.25424194336	None	None	None	None	1
2.7	2015_May_05_1307	s	s	4	2	SIC	128	ABS	1	0	02VD 02VO 02VC 02MD 02MO 10MC 02RD 02RO	0	1	4.08093690872	None	None	None	None	1
2.7	2015_May_05_1307	s	s	4	2	SIC	129	RC	2	1	02VD 09VO 02VC 02MD 02MO 02MC 02RD 02RO	1	0	1.57665395737	304.0	11.0	303	13	1
2.7	2015_May_05_1307	s	s	4	2	SIC	130	ABS	2	0	02VD 02VO 10VC 02MD 02MO 02MC 02RD 02RO	0	1	3.36073517799	None	None	None	None	1
2.7	2015_May_05_1307	s	s	4	2	SIC	131	ABS	1	0	02VD 02VO 02VC 02MD 02MO 10MC 02RD 02RO	0	1	3.06814908981	None	None	None	None	1
2.7	2015_May_05_1307	s	s	4	2	SIC	132	RC	0	2	02VD 02VO 02VC 02MD 02MO 02MC 09RD 02RO	1	0	2.34846401215	-234.0	301.0	-227	298	1
2.7	2015_May_05_1307	s	s	4	2	SIC	133	ABS	1	1	02VD 02VO 02VC 02MD 10MO 02MC 02RD 02RO	0	1	3.14211511612	None	None	None	None	1
2.7	2015_May_05_1307	s	s	4	2	SIC	134	RC	1	1	02VD 02VO 02VC 02MD 09MO 02MC 02RD 02RO	1	0	1.04696202278	-135.0	230.0	-138	231	1
2.7	2015_May_05_1307	s	s	4	2	SIC	135	ABS	0	1	02VD 02VO 02VC 02MD 02MO 02MC 02RD 10RO	0	1	2.73031497002	None	None	None	None	1
2.7	2015_May_05_1307	s	s	4	2	SIC	136	RC	0	1	02VD 02VO 02VC 02MD 02MO 02MC 02RD 09RO	1	0	1.63046693802	31.0	78.0	25	75	1
2.7	2015_May_05_1307	s	s	4	2	SIC	137	RC	2	2	09VD 02VO 02VC 02MD 02MO 02MC 02RD 02RO	1	0	1.37655305862	-439.0	-182.0	-445	-187	1
2.7	2015_May_05_1307	s	s	4	2	SIC	138	ABS	1	2	02VD 02VO 02VC 10MD 02MO 02MC 02RD 02RO	0	1	2.07098793983	None	None	None	None	1
2.7	2015_May_05_1307	s	s	4	2	SIC	139	RC	1	0	02VD 02VO 02VC 02MD 02MO 09MC 02RD 02RO	1	0	1.61198091507	-407.0	-304.0	-408	-301	1
2.7	2015_May_05_1307	s	s	4	2	SIC	140	RC	1	2	02VD 02VO 02VC 09MD 02MO 02MC 02RD 02RO	1	0	1.63553214073	293.0	-19.0	296	-13	1
2.7	2015_May_05_1307	s	s	4	2	SIC	141	ABS	2	2	10VD 02VO 02VC 02MD 02MO 02MC 02RD 02RO	0	1	2.25474405289	None	None	None	None	1
2.7	2015_May_05_1307	s	s	4	2	SIC	142	ABS	0	2	02VD 02VO 02VC 02MD 02MO 02MC 10RD 02RO	0	1	2.81935596466	None	None	None	None	1
2.7	2015_May_05_1307	s	s	4	2	SIC	143	ABS	2	1	02VD 10VO 02VC 02MD 02MO 02MC 02RD 02RO	0	1	2.83121800423	None	None	None	None	1
2.7	2015_May_05_1307	s	s	4	2	SIC	144	RC	2	0	02VD 02VO 09VC 02MD 02MO 02MC 02RD 02RO	1	0	1.47760510445	-126.0	-318.0	-122	-326	1
2.7	2015_May_05_1307	s	s	4	2	SIC	145	ABS	1	0	02VD 02VO 02VC 02MD 02MO 10MC 02RD 02RO	0	1	2.68306207657	None	None	None	None	1
2.7	2015_May_05_1307	s	s	4	2	SIC	146	RC	1	1	02VD 02VO 02VC 02MD 09MO 02MC 02RD 02RO	1	0	2.58387589455	-524.0	276.0	-526	279	1
2.7	2015_May_05_1307	s	s	4	2	SIC	147	ABS	0	2	02VD 02VO 02VC 02MD 02MO 02MC 10RD 02RO	0	1	1.96019220352	None	None	None	None	1
2.7	2015_May_05_1307	s	s	4	2	SIC	148	RC	0	1	02VD 02VO 02VC 02MD 02MO 02MC 02RD 09RO	1	0	2.47159600258	-272.0	248.0	-271	246	1
2.7	2015_May_05_1307	s	s	4	2	SIC	149	ABS	1	1	02VD 02VO 02VC 02MD 10MO 02MC 02RD 02RO	0	1	2.58401608467	None	None	None	None	1
2.7	2015_May_05_1307	s	s	4	2	SIC	150	RC	2	0	02VD 02VO 09VC 02MD 02MO 02MC 02RD 02RO	1	0	1.2654209137	-244.0	-70.0	-244	-82	1
2.7	2015_May_05_1307	s	s	4	2	SIC	151	RC	2	1	02VD 09VO 02VC 02MD 02MO 02MC 02RD 02RO	1	0	1.27058005333	-26.0	-264.0	-26	-268	1
2.7	2015_May_05_1307	s	s	4	2	SIC	152	RC	1	0	02VD 02VO 02VC 02MD 02MO 09MC 02RD 02RO	1	0	4.32792711258	-312.0	259.0	-309	254	1
2.7	2015_May_05_1307	s	s	4	2	SIC	153	RC	2	2	09VD 02VO 02VC 02MD 02MO 02MC 02RD 02RO	1	0	1.40002584457	-177.0	410.0	-177	415	1
2.7	2015_May_05_1307	s	s	4	2	SIC	154	RC	0	2	02VD 02VO 02VC 02MD 02MO 02MC 09RD 02RO	1	0	1.05361294746	-229.0	-51.0	-235	-52	1
2.7	2015_May_05_1307	s	s	4	2	SIC	155	ABS	2	2	10VD 02VO 02VC 02MD 02MO 02MC 02RD 02RO	0	1	2.15344190598	None	None	None	None	1
2.7	2015_May_05_1307	s	s	4	2	SIC	156	ABS	0	1	02VD 02VO 02VC 02MD 02MO 02MC 02RD 10RO	0	1	3.92745709419	None	None	None	None	1
2.7	2015_May_05_1307	s	s	4	2	SIC	157	ABS	1	2	02VD 02VO 02VC 10MD 02MO 02MC 02RD 02RO	0	1	2.30686497688	None	None	None	None	1
2.7	2015_May_05_1307	s	s	4	2	SIC	158	ABS	2	1	02VD 10VO 02VC 02MD 02MO 02MC 02RD 02RO	0	1	1.88991308212	None	None	None	None	1
2.7	2015_May_05_1307	s	s	4	2	SIC	159	RC	1	2	02VD 02VO 02VC 09MD 02MO 02MC 02RD 02RO	1	0	1.51868391037	-44.0	-224.0	-36	-227	1
2.7	2015_May_05_1307	s	s	4	2	SIC	160	ABS	2	0	02VD 02VO 10VC 02MD 02MO 02MC 02RD 02RO	0	1	2.04746198654	None	None	None	None	1
2.7	2015_May_05_1307	s	s	4	2	SIC	161	RC	0	1	02VD 02VO 02VC 02MD 02MO 02MC 02RD 09RO	1	0	3.11362695694	220.0	-411.0	226	-410	1
2.7	2015_May_05_1307	s	s	4	2	SIC	162	ABS	1	2	02VD 02VO 02VC 10MD 02MO 02MC 02RD 02RO	0	1	2.47773790359	None	None	None	None	1
2.7	2015_May_05_1307	s	s	4	2	SIC	163	RC	2	2	09VD 02VO 02VC 02MD 02MO 02MC 02RD 02RO	1	0	1.35982489586	227.0	319.0	229	325	1
2.7	2015_May_05_1307	s	s	4	2	SIC	164	ABS	1	1	02VD 02VO 02VC 02MD 10MO 02MC 02RD 02RO	0	1	3.11297392845	None	None	None	None	1
2.7	2015_May_05_1307	s	s	4	2	SIC	165	RC	1	2	02VD 02VO 02VC 09MD 02MO 02MC 02RD 02RO	1	0	1.07722306252	-98.0	-158.0	-93	-154	1
2.7	2015_May_05_1307	s	s	4	2	SIC	166	RC	2	0	02VD 02VO 09VC 02MD 02MO 02MC 02RD 02RO	1	0	1.20688819885	-120.0	-150.0	-123	-155	1
2.7	2015_May_05_1307	s	s	4	2	SIC	167	RC	1	1	02VD 02VO 02VC 02MD 09MO 02MC 02RD 02RO	1	0	1.17261886597	-216.0	102.0	-221	93	1
2.7	2015_May_05_1307	s	s	4	2	SIC	168	ABS	2	1	02VD 10VO 02VC 02MD 02MO 02MC 02RD 02RO	0	1	2.56110501289	None	None	None	None	1
2.7	2015_May_05_1307	s	s	4	2	SIC	169	ABS	0	2	02VD 02VO 02VC 02MD 02MO 02MC 10RD 02RO	0	1	2.62419509888	None	None	None	None	1
2.7	2015_May_05_1307	s	s	4	2	SIC	170	RC	1	0	02VD 02VO 02VC 02MD 02MO 09MC 02RD 02RO	1	0	1.83565616608	511.0	-177.0	503	-174	1
2.7	2015_May_05_1307	s	s	4	2	SIC	171	RC	2	1	02VD 09VO 02VC 02MD 02MO 02MC 02RD 02RO	1	0	5.72680401802	522.0	-261.0	524	-253	1
2.7	2015_May_05_1307	s	s	4	2	SIC	172	ABS	0	1	02VD 02VO 02VC 02MD 02MO 02MC 02RD 10RO	0	1	4.04577803612	None	None	None	None	1
2.7	2015_May_05_1307	s	s	4	2	SIC	173	ABS	2	2	10VD 02VO 02VC 02MD 02MO 02MC 02RD 02RO	0	1	2.13840699196	None	None	None	None	1
2.7	2015_May_05_1307	s	s	4	2	SIC	174	RC	0	2	02VD 02VO 02VC 02MD 02MO 02MC 09RD 02RO	1	0	1.42359304428	40.0	375.0	50	381	1
2.7	2015_May_05_1307	s	s	4	2	SIC	175	ABS	1	0	02VD 02VO 02VC 02MD 02MO 10MC 02RD 02RO	0	1	0.517242908478	None	None	None	None	1
2.7	2015_May_05_1307	s	s	4	2	SIC	176	ABS	2	0	02VD 02VO 10VC 02MD 02MO 02MC 02RD 02RO	0	1	2.08277487755	None	None	None	None	1
2.7	2015_May_05_1307	s	s	4	2	SIC	177	RC	2	0	02VD 02VO 09VC 02MD 02MO 02MC 02RD 02RO	1	0	1.94875192642	450.0	-147.0	452	-143	1
2.7	2015_May_05_1307	s	s	4	2	SIC	178	ABS	2	0	02VD 02VO 10VC 02MD 02MO 02MC 02RD 02RO	0	1	2.34172606468	None	None	None	None	1
2.7	2015_May_05_1307	s	s	4	2	SIC	179	ABS	1	2	02VD 02VO 02VC 10MD 02MO 02MC 02RD 02RO	0	1	2.012155056	None	None	None	None	1
2.7	2015_May_05_1307	s	s	4	2	SIC	180	ABS	0	2	02VD 02VO 02VC 02MD 02MO 02MC 10RD 02RO	0	1	2.0982298851	None	None	None	None	1
2.7	2015_May_05_1307	s	s	4	2	SIC	181	RC	1	2	02VD 02VO 02VC 09MD 02MO 02MC 02RD 02RO	1	0	1.18329906464	-305.0	249.0	-296	246	1
2.7	2015_May_05_1307	s	s	4	2	SIC	182	ABS	1	1	02VD 02VO 02VC 02MD 10MO 02MC 02RD 02RO	0	1	2.69479894638	None	None	None	None	1
2.7	2015_May_05_1307	s	s	4	2	SIC	183	ABS	2	1	02VD 10VO 02VC 02MD 02MO 02MC 02RD 02RO	0	1	1.8473470211	None	None	None	None	1
2.7	2015_May_05_1307	s	s	4	2	SIC	184	RC	1	1	02VD 02VO 02VC 02MD 09MO 02MC 02RD 02RO	1	0	0.971447944641	-106.0	-281.0	-119	-278	1
2.7	2015_May_05_1307	s	s	4	2	SIC	185	RC	1	0	02VD 02VO 02VC 02MD 02MO 09MC 02RD 02RO	1	0	1.64719080925	-228.0	16.0	-226	1	1
2.7	2015_May_05_1307	s	s	4	2	SIC	186	ABS	0	1	02VD 02VO 02VC 02MD 02MO 02MC 02RD 10RO	0	1	3.75061702728	None	None	None	None	1
2.7	2015_May_05_1307	s	s	4	2	SIC	187	RC	2	1	02VD 09VO 02VC 02MD 02MO 02MC 02RD 02RO	1	0	1.1361579895	-486.0	-319.0	-478	-320	1
2.7	2015_May_05_1307	s	s	4	2	SIC	188	RC	2	2	09VD 02VO 02VC 02MD 02MO 02MC 02RD 02RO	1	0	0.867159128189	192.0	-86.0	199	-84	1
2.7	2015_May_05_1307	s	s	4	2	SIC	189	ABS	1	0	02VD 02VO 02VC 02MD 02MO 10MC 02RD 02RO	0	1	2.54176592827	None	None	None	None	1
2.7	2015_May_05_1307	s	s	4	2	SIC	190	RC	0	1	02VD 02VO 02VC 02MD 02MO 02MC 02RD 09RO	1	0	1.40973591805	-334.0	328.0	-335	333	1
2.7	2015_May_05_1307	s	s	4	2	SIC	191	RC	0	2	02VD 02VO 02VC 02MD 02MO 02MC 09RD 02RO	1	0	1.46506094933	-381.0	-184.0	-375	-181	1
2.7	2015_May_05_1307	s	s	4	2	SIC	192	ABS	2	2	10VD 02VO 02VC 02MD 02MO 02MC 02RD 02RO	0	1	1.97084283829	None	None	None	None	1
2.7	2015_May_05_1307	s	s	4	2	SIC	193	ABS	2	1	02VD 10VO 02VC 02MD 02MO 02MC 02RD 02RO	0	1	1.47748017311	None	None	None	None	1
2.7	2015_May_05_1307	s	s	4	2	SIC	194	ABS	1	0	02VD 02VO 02VC 02MD 02MO 10MC 02RD 02RO	0	1	2.1065762043	None	None	None	None	1
2.7	2015_May_05_1307	s	s	4	2	SIC	195	ABS	2	0	02VD 02VO 10VC 02MD 02MO 02MC 02RD 02RO	0	1	2.02390122414	None	None	None	None	1
2.7	2015_May_05_1307	s	s	4	2	SIC	196	ABS	2	2	10VD 02VO 02VC 02MD 02MO 02MC 02RD 02RO	0	1	2.08942198753	None	None	None	None	1
2.7	2015_May_05_1307	s	s	4	2	SIC	197	RC	1	2	02VD 02VO 02VC 09MD 02MO 02MC 02RD 02RO	1	0	2.18428301811	468.0	35.0	468	35	1
2.7	2015_May_05_1307	s	s	4	2	SIC	198	RC	1	1	02VD 02VO 02VC 02MD 09MO 02MC 02RD 02RO	1	0	0.935982942581	-107.0	26.0	-100	19	1
2.7	2015_May_05_1307	s	s	4	2	SIC	199	RC	2	2	09VD 02VO 02VC 02MD 02MO 02MC 02RD 02RO	1	0	1.01159906387	-462.0	-161.0	-454	-163	1
2.7	2015_May_05_1307	s	s	4	2	SIC	200	RC	1	0	02VD 02VO 02VC 02MD 02MO 09MC 02RD 02RO	1	0	2.5624499321	-108.0	-329.0	-108	-333	1
2.7	2015_May_05_1307	s	s	4	2	SIC	201	ABS	1	2	02VD 02VO 02VC 10MD 02MO 02MC 02RD 02RO	0	1	2.48966693878	None	None	None	None	1
2.7	2015_May_05_1307	s	s	4	2	SIC	202	RC	2	0	02VD 02VO 09VC 02MD 02MO 02MC 02RD 02RO	1	0	2.10627388954	101.0	329.0	99	326	1
2.7	2015_May_05_1307	s	s	4	2	SIC	203	RC	2	1	02VD 09VO 02VC 02MD 02MO 02MC 02RD 02RO	1	0	0.92591714859	83.0	-245.0	73	-238	1
2.7	2015_May_05_1307	s	s	4	2	SIC	204	ABS	0	2	02VD 02VO 02VC 02MD 02MO 02MC 10RD 02RO	0	1	2.61244916916	None	None	None	None	1
2.7	2015_May_05_1307	s	s	4	2	SIC	205	ABS	1	1	02VD 02VO 02VC 02MD 10MO 02MC 02RD 02RO	0	1	2.70142197609	None	None	None	None	1
2.7	2015_May_05_1307	s	s	4	2	SIC	206	RC	0	1	02VD 02VO 02VC 02MD 02MO 02MC 02RD 09RO	1	0	0.900795936584	132.0	-80.0	136	-72	1
2.7	2015_May_05_1307	s	s	4	2	SIC	207	RC	0	2	02VD 02VO 02VC 02MD 02MO 02MC 09RD 02RO	1	0	0.994204998016	9.0	164.0	-1	168	1
2.7	2015_May_05_1307	s	s	4	2	SIC	208	ABS	0	1	02VD 02VO 02VC 02MD 02MO 02MC 02RD 10RO	0	1	4.10775184631	None	None	None	None	1
2.7	2015_May_05_1307	s	s	4	2	SIC	209	ABS	2	2	10VD 02VO 02VC 02MD 02MO 02MC 02RD 02RO	0	1	1.94150805473	None	None	None	None	1
2.7	2015_May_05_1307	s	s	4	2	SIC	210	RC	0	2	02VD 02VO 02VC 02MD 02MO 02MC 09RD 02RO	1	0	0.819529056549	-340.0	-357.0	-336	-361	1
2.7	2015_May_05_1307	s	s	4	2	SIC	211	ABS	1	0	02VD 02VO 02VC 02MD 02MO 10MC 02RD 02RO	0	1	2.44267702103	None	None	None	None	1
2.7	2015_May_05_1307	s	s	4	2	SIC	212	RC	1	1	02VD 02VO 02VC 02MD 09MO 02MC 02RD 02RO	1	0	1.63047409058	-463.0	-306.0	-462	-301	1
2.7	2015_May_05_1307	s	s	4	2	SIC	213	RC	1	0	02VD 02VO 02VC 02MD 02MO 09MC 02RD 02RO	1	0	3.07561302185	-332.0	347.0	-330	335	1
2.7	2015_May_05_1307	s	s	4	2	SIC	214	ABS	0	2	02VD 02VO 02VC 02MD 02MO 02MC 10RD 02RO	0	1	2.75359487534	None	None	None	None	1
2.7	2015_May_05_1307	s	s	4	2	SIC	215	ABS	0	1	02VD 02VO 02VC 02MD 02MO 02MC 02RD 10RO	0	1	3.40146207809	None	None	None	None	1
2.7	2015_May_05_1307	s	s	4	2	SIC	216	RC	2	0	02VD 02VO 09VC 02MD 02MO 02MC 02RD 02RO	1	0	1.6917309761	318.0	-216.0	312	-211	1
2.7	2015_May_05_1307	s	s	4	2	SIC	217	RC	2	2	09VD 02VO 02VC 02MD 02MO 02MC 02RD 02RO	1	0	1.02347493172	-41.0	227.0	-45	226	1
2.7	2015_May_05_1307	s	s	4	2	SIC	218	ABS	1	2	02VD 02VO 02VC 10MD 02MO 02MC 02RD 02RO	0	1	2.58891391754	None	None	None	None	1
2.7	2015_May_05_1307	s	s	4	2	SIC	219	ABS	1	1	02VD 02VO 02VC 02MD 10MO 02MC 02RD 02RO	0	1	2.86880111694	None	None	None	None	1
2.7	2015_May_05_1307	s	s	4	2	SIC	220	RC	0	1	02VD 02VO 02VC 02MD 02MO 02MC 02RD 09RO	1	0	2.51826095581	425.0	-349.0	422	-354	1
2.7	2015_May_05_1307	s	s	4	2	SIC	221	RC	1	2	02VD 02VO 02VC 09MD 02MO 02MC 02RD 02RO	1	0	0.77627491951	-86.0	-217.0	-88	-218	1
2.7	2015_May_05_1307	s	s	4	2	SIC	222	ABS	2	1	02VD 10VO 02VC 02MD 02MO 02MC 02RD 02RO	0	1	2.7600440979	None	None	None	None	1
2.7	2015_May_05_1307	s	s	4	2	SIC	223	RC	2	1	02VD 09VO 02VC 02MD 02MO 02MC 02RD 02RO	1	0	1.58840203285	394.0	180.0	399	178	1
2.7	2015_May_05_1307	s	s	4	2	SIC	224	ABS	2	0	02VD 02VO 10VC 02MD 02MO 02MC 02RD 02RO	0	1	2.34168696404	None	None	None	None	1
2.7	2015_May_05_1307	s	s	4	2	SIC	225	RC	1	1	02VD 02VO 02VC 02MD 09MO 02MC 02RD 02RO	1	0	1.25876307487	-76.0	202.0	-76	194	1
2.7	2015_May_05_1307	s	s	4	2	SIC	226	ABS	1	0	02VD 02VO 02VC 02MD 02MO 10MC 02RD 02RO	0	1	3.07924795151	None	None	None	None	1
2.7	2015_May_05_1307	s	s	4	2	SIC	227	RC	2	0	02VD 02VO 09VC 02MD 02MO 02MC 02RD 02RO	1	0	0.935986995697	64.0	-16.0	61	-10	1
2.7	2015_May_05_1307	s	s	4	2	SIC	228	ABS	0	2	02VD 02VO 02VC 02MD 02MO 02MC 10RD 02RO	0	1	2.39733290672	None	None	None	None	1
2.7	2015_May_05_1307	s	s	4	2	SIC	229	RC	1	0	02VD 02VO 02VC 02MD 02MO 09MC 02RD 02RO	1	0	1.49033403397	-34.0	291.0	-32	291	1
2.7	2015_May_05_1307	s	s	4	2	SIC	230	ABS	1	2	02VD 02VO 02VC 10MD 02MO 02MC 02RD 02RO	0	1	2.08950805664	None	None	None	None	1
2.7	2015_May_05_1307	s	s	4	2	SIC	231	ABS	1	1	02VD 02VO 02VC 02MD 10MO 02MC 02RD 02RO	0	1	2.09451007843	None	None	None	None	1
2.7	2015_May_05_1307	s	s	4	2	SIC	232	RC	1	2	02VD 02VO 02VC 09MD 02MO 02MC 02RD 02RO	1	0	2.11309909821	271.0	-291.0	268	-298	1
2.7	2015_May_05_1307	s	s	4	2	SIC	233	RC	0	1	02VD 02VO 02VC 02MD 02MO 02MC 02RD 09RO	0	1	3.5305390358	152.0	32.0	None	None	0
2.7	2015_May_05_1307	s	s	4	2	SIC	234	RC	0	2	02VD 02VO 02VC 02MD 02MO 02MC 09RD 02RO	1	0	1.68259191513	-395.0	92.0	-397	94	1
2.7	2015_May_05_1307	s	s	4	2	SIC	235	ABS	0	1	02VD 02VO 02VC 02MD 02MO 02MC 02RD 10RO	0	1	3.8719098568	None	None	None	None	1
2.7	2015_May_05_1307	s	s	4	2	SIC	236	ABS	2	0	02VD 02VO 10VC 02MD 02MO 02MC 02RD 02RO	0	1	2.18367910385	None	None	None	None	1
2.7	2015_May_05_1307	s	s	4	2	SIC	237	RC	2	2	09VD 02VO 02VC 02MD 02MO 02MC 02RD 02RO	1	0	1.73866009712	-339.0	10.0	-341	5	1
2.7	2015_May_05_1307	s	s	4	2	SIC	238	RC	2	1	02VD 09VO 02VC 02MD 02MO 02MC 02RD 02RO	1	0	1.89445996284	242.0	249.0	243	248	1
2.7	2015_May_05_1307	s	s	4	2	SIC	239	ABS	2	2	10VD 02VO 02VC 02MD 02MO 02MC 02RD 02RO	1	0	2.65951299667	None	None	117	-36	0
2.7	2015_May_05_1307	s	s	4	2	SIC	240	ABS	2	1	02VD 10VO 02VC 02MD 02MO 02MC 02RD 02RO	0	1	2.02387404442	None	None	None	None	1
2.7	2015_May_05_1307	s	s	4	2	SIC	241	RC	2	2	09VD 02VO 02VC 02MD 02MO 02MC 02RD 02RO	1	0	1.88265395164	-488.0	398.0	-488	397	1
2.7	2015_May_05_1307	s	s	4	2	SIC	242	ABS	2	1	02VD 10VO 02VC 02MD 02MO 02MC 02RD 02RO	0	1	2.28978586197	None	None	None	None	1
2.7	2015_May_05_1307	s	s	4	2	SIC	243	RC	1	2	02VD 02VO 02VC 09MD 02MO 02MC 02RD 02RO	1	0	0.858526945114	-98.0	163.0	-100	157	1
2.7	2015_May_05_1307	s	s	4	2	SIC	244	ABS	1	1	02VD 02VO 02VC 02MD 10MO 02MC 02RD 02RO	0	1	2.26539897919	None	None	None	None	1
2.7	2015_May_05_1307	s	s	4	2	SIC	245	ABS	1	2	02VD 02VO 02VC 10MD 02MO 02MC 02RD 02RO	0	1	2.14814090729	None	None	None	None	1
2.7	2015_May_05_1307	s	s	4	2	SIC	246	RC	2	1	02VD 09VO 02VC 02MD 02MO 02MC 02RD 02RO	1	0	1.42362594604	-101.0	222.0	-99	222	1
2.7	2015_May_05_1307	s	s	4	2	SIC	247	RC	1	1	02VD 02VO 02VC 02MD 09MO 02MC 02RD 02RO	1	0	2.25929307938	55.0	392.0	59	393	1
2.7	2015_May_05_1307	s	s	4	2	SIC	248	ABS	1	0	02VD 02VO 02VC 02MD 02MO 10MC 02RD 02RO	0	1	2.34536290169	None	None	None	None	1
2.7	2015_May_05_1307	s	s	4	2	SIC	249	RC	1	0	02VD 02VO 02VC 02MD 02MO 09MC 02RD 02RO	1	0	1.43581008911	-125.0	-184.0	-118	-191	1
2.7	2015_May_05_1307	s	s	4	2	SIC	250	ABS	0	2	02VD 02VO 02VC 02MD 02MO 02MC 10RD 02RO	0	1	1.90625	None	None	None	None	1
2.7	2015_May_05_1307	s	s	4	2	SIC	251	RC	0	2	02VD 02VO 02VC 02MD 02MO 02MC 09RD 02RO	1	0	0.771280765533	-211.0	-62.0	-208	-57	1
2.7	2015_May_05_1307	s	s	4	2	SIC	252	ABS	2	0	02VD 02VO 10VC 02MD 02MO 02MC 02RD 02RO	0	1	3.06643605232	None	None	None	None	1
2.7	2015_May_05_1307	s	s	4	2	SIC	253	RC	0	1	02VD 02VO 02VC 02MD 02MO 02MC 02RD 09RO	1	0	0.820487976074	-79.0	-94.0	-76	-99	1
2.7	2015_May_05_1307	s	s	4	2	SIC	254	RC	2	0	02VD 02VO 09VC 02MD 02MO 02MC 02RD 02RO	1	0	2.01580500603	263.0	19.0	273	29	1
2.7	2015_May_05_1307	s	s	4	2	SIC	255	ABS	2	2	10VD 02VO 02VC 02MD 02MO 02MC 02RD 02RO	0	1	2.25461387634	None	None	None	None	1
2.7	2015_May_05_1307	s	s	4	2	SIC	256	ABS	0	1	02VD 02VO 02VC 02MD 02MO 02MC 02RD 10RO	0	1	3.37488102913	None	None	None	None	1
2.7	2015_May_05_1307	s	s	4	2	SIC	257	ABS	1	2	02VD 02VO 02VC 10MD 02MO 02MC 02RD 02RO	0	1	2.16000103951	None	None	None	None	1
2.7	2015_May_05_1307	s	s	4	2	SIC	258	RC	0	2	02VD 02VO 02VC 02MD 02MO 02MC 09RD 02RO	0	1	2.53619289398	501.0	-107.0	None	None	0
2.7	2015_May_05_1307	s	s	4	2	SIC	259	RC	1	2	02VD 02VO 02VC 09MD 02MO 02MC 02RD 02RO	1	0	0.834990978241	271.0	-157.0	283	-152	1
2.7	2015_May_05_1307	s	s	4	2	SIC	260	RC	0	1	02VD 02VO 02VC 02MD 02MO 02MC 02RD 09RO	1	0	1.65904092789	273.0	-89.0	276	-90	1
2.7	2015_May_05_1307	s	s	4	2	SIC	261	ABS	1	0	02VD 02VO 02VC 02MD 02MO 10MC 02RD 02RO	0	1	3.94251704216	None	None	None	None	1
2.7	2015_May_05_1307	s	s	4	2	SIC	262	RC	1	1	02VD 02VO 02VC 02MD 09MO 02MC 02RD 02RO	1	0	1.11314582825	-222.0	-358.0	-228	-362	1
2.7	2015_May_05_1307	s	s	4	2	SIC	263	ABS	0	2	02VD 02VO 02VC 02MD 02MO 02MC 10RD 02RO	0	1	3.38420701027	None	None	None	None	1
2.7	2015_May_05_1307	s	s	4	2	SIC	264	ABS	1	1	02VD 02VO 02VC 02MD 10MO 02MC 02RD 02RO	0	1	3.41281700134	None	None	None	None	1
2.7	2015_May_05_1307	s	s	4	2	SIC	265	ABS	2	0	02VD 02VO 10VC 02MD 02MO 02MC 02RD 02RO	0	1	3.01266002655	None	None	None	None	1
2.7	2015_May_05_1307	s	s	4	2	SIC	266	RC	2	1	02VD 09VO 02VC 02MD 02MO 02MC 02RD 02RO	1	0	3.2429997921	-207.0	264.0	-207	264	1
2.7	2015_May_05_1307	s	s	4	2	SIC	267	ABS	2	2	10VD 02VO 02VC 02MD 02MO 02MC 02RD 02RO	0	1	2.53660798073	None	None	None	None	1
2.7	2015_May_05_1307	s	s	4	2	SIC	268	RC	2	2	09VD 02VO 02VC 02MD 02MO 02MC 02RD 02RO	1	0	0.846842050552	259.0	81.0	259	89	1
2.7	2015_May_05_1307	s	s	4	2	SIC	269	ABS	2	1	02VD 10VO 02VC 02MD 02MO 02MC 02RD 02RO	0	1	2.24249601364	None	None	None	None	1
2.7	2015_May_05_1307	s	s	4	2	SIC	270	RC	1	0	02VD 02VO 02VC 02MD 02MO 09MC 02RD 02RO	1	0	1.10076808929	106.0	160.0	109	154	1
2.7	2015_May_05_1307	s	s	4	2	SIC	271	RC	2	0	02VD 02VO 09VC 02MD 02MO 02MC 02RD 02RO	1	0	2.52244305611	452.0	372.0	461	376	1
2.7	2015_May_05_1307	s	s	4	2	SIC	272	ABS	0	1	02VD 02VO 02VC 02MD 02MO 02MC 02RD 10RO	0	1	2.78277301788	None	None	None	None	1
2.7	2015_May_05_1307	s	s	4	2	SIC	273	RC	2	0	02VD 02VO 09VC 02MD 02MO 02MC 02RD 02RO	1	0	0.882251977921	-297.0	133.0	-291	129	1
2.7	2015_May_05_1307	s	s	4	2	SIC	274	ABS	1	1	02VD 02VO 02VC 02MD 10MO 02MC 02RD 02RO	0	1	1.72958517075	None	None	None	None	1
2.7	2015_May_05_1307	s	s	4	2	SIC	275	ABS	0	1	02VD 02VO 02VC 02MD 02MO 02MC 02RD 10RO	0	1	3.73760604858	None	None	None	None	1
2.7	2015_May_05_1307	s	s	4	2	SIC	276	RC	2	2	09VD 02VO 02VC 02MD 02MO 02MC 02RD 02RO	1	0	1.79508090019	-240.0	-383.0	-231	-387	1
2.7	2015_May_05_1307	s	s	4	2	SIC	277	RC	1	2	02VD 02VO 02VC 09MD 02MO 02MC 02RD 02RO	1	0	0.891187906265	-101.0	-32.0	-91	-33	1
2.7	2015_May_05_1307	s	s	4	2	SIC	278	RC	2	1	02VD 09VO 02VC 02MD 02MO 02MC 02RD 02RO	1	0	1.45407581329	463.0	-185.0	457	-191	1
2.7	2015_May_05_1307	s	s	4	2	SIC	279	ABS	2	0	02VD 02VO 10VC 02MD 02MO 02MC 02RD 02RO	0	1	2.32483100891	None	None	None	None	1
2.7	2015_May_05_1307	s	s	4	2	SIC	280	RC	1	1	02VD 02VO 02VC 02MD 09MO 02MC 02RD 02RO	1	0	1.18861603737	247.0	-295.0	247	-292	1
2.7	2015_May_05_1307	s	s	4	2	SIC	281	ABS	0	2	02VD 02VO 02VC 02MD 02MO 02MC 10RD 02RO	0	1	2.13656997681	None	None	None	None	1
2.7	2015_May_05_1307	s	s	4	2	SIC	282	RC	1	0	02VD 02VO 02VC 02MD 02MO 09MC 02RD 02RO	1	0	0.7526512146	6.0	-195.0	3	-190	1
2.7	2015_May_05_1307	s	s	4	2	SIC	283	ABS	1	2	02VD 02VO 02VC 10MD 02MO 02MC 02RD 02RO	0	1	1.9034409523	None	None	None	None	1
2.7	2015_May_05_1307	s	s	4	2	SIC	284	ABS	1	0	02VD 02VO 02VC 02MD 02MO 10MC 02RD 02RO	0	1	2.61997294426	None	None	None	None	1
2.7	2015_May_05_1307	s	s	4	2	SIC	285	ABS	2	1	02VD 10VO 02VC 02MD 02MO 02MC 02RD 02RO	0	1	1.71332097054	None	None	None	None	1
2.7	2015_May_05_1307	s	s	4	2	SIC	286	ABS	2	2	10VD 02VO 02VC 02MD 02MO 02MC 02RD 02RO	0	1	2.09133696556	None	None	None	None	1
2.7	2015_May_05_1307	s	s	4	2	SIC	287	RC	0	2	02VD 02VO 02VC 02MD 02MO 02MC 09RD 02RO	1	0	0.905725955963	28.0	-210.0	24	-211	1
2.7	2015_May_05_1307	s	s	4	2	SIC	288	RC	0	1	02VD 02VO 02VC 02MD 02MO 02MC 02RD 09RO	1	0	1.88254499435	290.0	-210.0	292	-218	1
2.7	2015_May_05_1307	s	s	4	2	SIC	289	ABS	2	0	02VD 02VO 10VC 02MD 02MO 02MC 02RD 02RO	0	1	1.85096096992	None	None	None	None	1
2.7	2015_May_05_1307	s	s	4	2	SIC	290	RC	2	2	09VD 02VO 02VC 02MD 02MO 02MC 02RD 02RO	1	0	1.0591211319	-72.0	238.0	-75	235	1
2.7	2015_May_05_1307	s	s	4	2	SIC	291	RC	0	1	02VD 02VO 02VC 02MD 02MO 02MC 02RD 09RO	1	0	1.43900203705	361.0	340.0	357	338	1
2.7	2015_May_05_1307	s	s	4	2	SIC	292	RC	2	0	02VD 02VO 09VC 02MD 02MO 02MC 02RD 02RO	1	0	1.74850893021	214.0	-211.0	212	-207	1
2.7	2015_May_05_1307	s	s	4	2	SIC	293	ABS	1	0	02VD 02VO 02VC 02MD 02MO 10MC 02RD 02RO	0	1	2.84281897545	None	None	None	None	1
2.7	2015_May_05_1307	s	s	4	2	SIC	294	RC	0	2	02VD 02VO 02VC 02MD 02MO 02MC 09RD 02RO	1	0	2.28959584236	-254.0	93.0	-252	90	1
2.7	2015_May_05_1307	s	s	4	2	SIC	295	ABS	0	1	02VD 02VO 02VC 02MD 02MO 02MC 02RD 10RO	0	1	2.98909401894	None	None	None	None	1
2.7	2015_May_05_1307	s	s	4	2	SIC	296	RC	1	0	02VD 02VO 02VC 02MD 02MO 09MC 02RD 02RO	1	0	1.58326101303	395.0	-259.0	392	-259	1
2.7	2015_May_05_1307	s	s	4	2	SIC	297	ABS	2	1	02VD 10VO 02VC 02MD 02MO 02MC 02RD 02RO	0	1	1.96017003059	None	None	None	None	1
2.7	2015_May_05_1307	s	s	4	2	SIC	298	ABS	2	2	10VD 02VO 02VC 02MD 02MO 02MC 02RD 02RO	0	1	1.51505994797	None	None	None	None	1
2.7	2015_May_05_1307	s	s	4	2	SIC	299	RC	2	1	02VD 09VO 02VC 02MD 02MO 02MC 02RD 02RO	0	1	1.70090198517	-310.0	76.0	None	None	0
2.7	2015_May_05_1307	s	s	4	2	SIC	300	RC	1	2	02VD 02VO 02VC 09MD 02MO 02MC 02RD 02RO	1	0	1.92983198166	345.0	-389.0	347	-387	1
2.7	2015_May_05_1307	s	s	4	2	SIC	301	RC	1	1	02VD 02VO 02VC 02MD 09MO 02MC 02RD 02RO	1	0	1.48947811127	-377.0	-122.0	-373	-131	1
2.7	2015_May_05_1307	s	s	4	2	SIC	302	ABS	1	2	02VD 02VO 02VC 10MD 02MO 02MC 02RD 02RO	0	1	2.45964598656	None	None	None	None	1
2.7	2015_May_05_1307	s	s	4	2	SIC	303	ABS	1	1	02VD 02VO 02VC 02MD 10MO 02MC 02RD 02RO	0	1	2.93889307976	None	None	None	None	1
2.7	2015_May_05_1307	s	s	4	2	SIC	304	ABS	0	2	02VD 02VO 02VC 02MD 02MO 02MC 10RD 02RO	0	1	2.06601595879	None	None	None	None	1
2.7	2015_May_05_1307	s	s	4	2	SIC	305	ABS	0	1	02VD 02VO 02VC 02MD 02MO 02MC 02RD 10RO	0	1	3.12529611588	None	None	None	None	1
2.7	2015_May_05_1307	s	s	4	2	SIC	306	RC	2	0	02VD 02VO 09VC 02MD 02MO 02MC 02RD 02RO	1	0	0.902961969376	104.0	10.0	112	7	1
2.7	2015_May_05_1307	s	s	4	2	SIC	307	RC	1	2	02VD 02VO 02VC 09MD 02MO 02MC 02RD 02RO	1	0	1.4422211647	-386.0	-94.0	-386	-92	1
2.7	2015_May_05_1307	s	s	4	2	SIC	308	ABS	1	1	02VD 02VO 02VC 02MD 10MO 02MC 02RD 02RO	0	1	2.02138805389	None	None	None	None	1
2.7	2015_May_05_1307	s	s	4	2	SIC	309	ABS	1	0	02VD 02VO 02VC 02MD 02MO 10MC 02RD 02RO	0	1	2.16244196892	None	None	None	None	1
2.7	2015_May_05_1307	s	s	4	2	SIC	310	ABS	2	1	02VD 10VO 02VC 02MD 02MO 02MC 02RD 02RO	0	1	2.30640006065	None	None	None	None	1
2.7	2015_May_05_1307	s	s	4	2	SIC	311	RC	1	0	02VD 02VO 02VC 02MD 02MO 09MC 02RD 02RO	1	0	0.882230997086	117.0	96.0	114	97	1
2.7	2015_May_05_1307	s	s	4	2	SIC	312	RC	0	2	02VD 02VO 02VC 02MD 02MO 02MC 09RD 02RO	1	0	2.04233384132	-263.0	347.0	-258	353	1
2.7	2015_May_05_1307	s	s	4	2	SIC	313	RC	2	1	02VD 09VO 02VC 02MD 02MO 02MC 02RD 02RO	1	0	1.78839993477	-521.0	15.0	-520	10	1
2.7	2015_May_05_1307	s	s	4	2	SIC	314	ABS	1	2	02VD 02VO 02VC 10MD 02MO 02MC 02RD 02RO	0	1	1.61555695534	None	None	None	None	1
2.7	2015_May_05_1307	s	s	4	2	SIC	315	RC	0	1	02VD 02VO 02VC 02MD 02MO 02MC 02RD 09RO	1	0	2.09469819069	490.0	-225.0	496	-229	1
2.7	2015_May_05_1307	s	s	4	2	SIC	316	RC	1	1	02VD 02VO 02VC 02MD 09MO 02MC 02RD 02RO	1	0	1.88993811607	-419.0	272.0	-413	276	1
2.7	2015_May_05_1307	s	s	4	2	SIC	317	ABS	2	0	02VD 02VO 10VC 02MD 02MO 02MC 02RD 02RO	0	1	2.42413806915	None	None	None	None	1
2.7	2015_May_05_1307	s	s	4	2	SIC	318	ABS	0	2	02VD 02VO 02VC 02MD 02MO 02MC 10RD 02RO	0	1	2.88292884827	None	None	None	None	1
2.7	2015_May_05_1307	s	s	4	2	SIC	319	ABS	2	2	10VD 02VO 02VC 02MD 02MO 02MC 02RD 02RO	0	1	2.20052194595	None	None	None	None	1
2.7	2015_May_05_1307	s	s	4	2	SIC	320	RC	2	2	09VD 02VO 02VC 02MD 02MO 02MC 02RD 02RO	0	1	0.643069982529	-462.0	-52.0	None	None	0
2.7	2015_May_05_1307	s	s	4	2	SIC	321	ABS	2	2	10VD 02VO 02VC 02MD 02MO 02MC 02RD 02RO	0	1	1.97688293457	None	None	None	None	1
2.7	2015_May_05_1307	s	s	4	2	SIC	322	ABS	0	2	02VD 02VO 02VC 02MD 02MO 02MC 10RD 02RO	0	1	2.28956794739	None	None	None	None	1
2.7	2015_May_05_1307	s	s	4	2	SIC	323	ABS	1	2	02VD 02VO 02VC 10MD 02MO 02MC 02RD 02RO	0	1	2.38388299942	None	None	None	None	1
2.7	2015_May_05_1307	s	s	4	2	SIC	324	RC	2	0	02VD 02VO 09VC 02MD 02MO 02MC 02RD 02RO	1	0	0.693721055984	68.0	113.0	76	110	1
2.7	2015_May_05_1307	s	s	4	2	SIC	325	ABS	2	1	02VD 10VO 02VC 02MD 02MO 02MC 02RD 02RO	0	1	1.98855400085	None	None	None	None	1
2.7	2015_May_05_1307	s	s	4	2	SIC	326	RC	1	0	02VD 02VO 02VC 02MD 02MO 09MC 02RD 02RO	1	0	2.44762206078	248.0	33.0	255	34	1
2.7	2015_May_05_1307	s	s	4	2	SIC	327	RC	1	2	02VD 02VO 02VC 09MD 02MO 02MC 02RD 02RO	1	0	1.23007678986	-157.0	328.0	-159	333	1
2.7	2015_May_05_1307	s	s	4	2	SIC	328	ABS	1	1	02VD 02VO 02VC 02MD 10MO 02MC 02RD 02RO	0	1	2.70156121254	None	None	None	None	1
2.7	2015_May_05_1307	s	s	4	2	SIC	329	ABS	0	1	02VD 02VO 02VC 02MD 02MO 02MC 02RD 10RO	0	1	2.80677580833	None	None	None	None	1
2.7	2015_May_05_1307	s	s	4	2	SIC	330	ABS	2	0	02VD 02VO 10VC 02MD 02MO 02MC 02RD 02RO	0	1	1.76220178604	None	None	None	None	1
2.7	2015_May_05_1307	s	s	4	2	SIC	331	RC	2	2	09VD 02VO 02VC 02MD 02MO 02MC 02RD 02RO	1	0	0.846841096878	-15.0	242.0	-10	231	1
2.7	2015_May_05_1307	s	s	4	2	SIC	332	RC	0	1	02VD 02VO 02VC 02MD 02MO 02MC 02RD 09RO	1	0	1.80026698112	-48.0	-371.0	-46	-373	1
2.7	2015_May_05_1307	s	s	4	2	SIC	333	RC	2	1	02VD 09VO 02VC 02MD 02MO 02MC 02RD 02RO	1	0	0.968212127686	-494.0	-358.0	-497	-372	1
2.7	2015_May_05_1307	s	s	4	2	SIC	334	RC	1	1	02VD 02VO 02VC 02MD 09MO 02MC 02RD 02RO	1	0	4.29558205605	333.0	239.0	330	248	1
2.7	2015_May_05_1307	s	s	4	2	SIC	335	RC	0	2	02VD 02VO 02VC 02MD 02MO 02MC 09RD 02RO	1	0	2.15333294868	183.0	-74.0	184	-68	1
2.7	2015_May_05_1307	s	s	4	2	SIC	336	ABS	1	0	02VD 02VO 02VC 02MD 02MO 10MC 02RD 02RO	0	1	2.70141816139	None	None	None	None	1
2.7	2015_May_05_1307	s	s	4	2	SIC	337	ABS	0	1	02VD 02VO 02VC 02MD 02MO 02MC 02RD 10RO	0	1	2.94849991798	None	None	None	None	1
2.7	2015_May_05_1307	s	s	4	2	SIC	338	ABS	1	1	02VD 02VO 02VC 02MD 10MO 02MC 02RD 02RO	0	1	3.02438807487	None	None	None	None	1
2.7	2015_May_05_1307	s	s	4	2	SIC	339	RC	2	2	09VD 02VO 02VC 02MD 02MO 02MC 02RD 02RO	1	0	1.37143301964	266.0	-394.0	265	-395	1
2.7	2015_May_05_1307	s	s	4	2	SIC	340	ABS	1	2	02VD 02VO 02VC 10MD 02MO 02MC 02RD 02RO	0	1	3.08068704605	None	None	None	None	1
2.7	2015_May_05_1307	s	s	4	2	SIC	341	RC	0	2	02VD 02VO 02VC 02MD 02MO 02MC 09RD 02RO	1	0	3.95436501503	-150.0	370.0	-155	373	1
2.7	2015_May_05_1307	s	s	4	2	SIC	342	ABS	0	2	02VD 02VO 02VC 02MD 02MO 02MC 10RD 02RO	0	1	2.4208920002	None	None	None	None	1
2.7	2015_May_05_1307	s	s	4	2	SIC	343	ABS	1	0	02VD 02VO 02VC 02MD 02MO 10MC 02RD 02RO	0	1	3.31861805916	None	None	None	None	1
2.7	2015_May_05_1307	s	s	4	2	SIC	344	RC	0	1	02VD 02VO 02VC 02MD 02MO 02MC 02RD 09RO	1	0	2.9489428997	512.0	-246.0	513	-246	1
2.7	2015_May_05_1307	s	s	4	2	SIC	345	RC	1	1	02VD 02VO 02VC 02MD 09MO 02MC 02RD 02RO	1	0	1.4775929451	330.0	-43.0	335	-39	1
2.7	2015_May_05_1307	s	s	4	2	SIC	346	RC	2	1	02VD 09VO 02VC 02MD 02MO 02MC 02RD 02RO	1	0	1.36843585968	458.0	129.0	460	132	1
2.7	2015_May_05_1307	s	s	4	2	SIC	347	RC	1	2	02VD 02VO 02VC 09MD 02MO 02MC 02RD 02RO	1	0	1.51776003838	-214.0	153.0	-219	150	1
2.7	2015_May_05_1307	s	s	4	2	SIC	348	ABS	2	1	02VD 10VO 02VC 02MD 02MO 02MC 02RD 02RO	0	1	2.04397511482	None	None	None	None	1
2.7	2015_May_05_1307	s	s	4	2	SIC	349	ABS	2	0	02VD 02VO 10VC 02MD 02MO 02MC 02RD 02RO	0	1	0.642822027206	None	None	None	None	1
2.7	2015_May_05_1307	s	s	4	2	SIC	350	RC	2	0	02VD 02VO 09VC 02MD 02MO 02MC 02RD 02RO	1	0	1.16474604607	371.0	266.0	376	271	1
2.7	2015_May_05_1307	s	s	4	2	SIC	351	RC	1	0	02VD 02VO 02VC 02MD 02MO 09MC 02RD 02RO	1	0	2.69491791725	-479.0	339.0	-478	334	1
2.7	2015_May_05_1307	s	s	4	2	SIC	352	ABS	2	2	10VD 02VO 02VC 02MD 02MO 02MC 02RD 02RO	0	1	1.976790905	None	None	None	None	1
2.7	2015_May_05_1307	s	s	4	2	SIC	353	ABS	0	2	02VD 02VO 02VC 02MD 02MO 02MC 10RD 02RO	0	1	2.03071689606	None	None	None	None	1
2.7	2015_May_05_1307	s	s	4	2	SIC	354	RC	0	2	02VD 02VO 02VC 02MD 02MO 02MC 09RD 02RO	1	0	2.06616806984	-295.0	-252.0	-299	-250	1
2.7	2015_May_05_1307	s	s	4	2	SIC	355	RC	0	1	02VD 02VO 02VC 02MD 02MO 02MC 02RD 09RO	1	0	2.11280989647	33.0	-360.0	30	-353	1
2.7	2015_May_05_1307	s	s	4	2	SIC	356	RC	2	0	02VD 02VO 09VC 02MD 02MO 02MC 02RD 02RO	1	0	1.17647886276	-120.0	-310.0	-117	-306	1
2.7	2015_May_05_1307	s	s	4	2	SIC	357	ABS	2	2	10VD 02VO 02VC 02MD 02MO 02MC 02RD 02RO	0	1	1.74804902077	None	None	None	None	1
2.7	2015_May_05_1307	s	s	4	2	SIC	358	RC	1	0	02VD 02VO 02VC 02MD 02MO 09MC 02RD 02RO	1	0	1.42947292328	466.0	186.0	467	180	1
2.7	2015_May_05_1307	s	s	4	2	SIC	359	ABS	1	2	02VD 02VO 02VC 10MD 02MO 02MC 02RD 02RO	0	1	2.50206804276	None	None	None	None	1
2.7	2015_May_05_1307	s	s	4	2	SIC	360	RC	1	1	02VD 02VO 02VC 02MD 09MO 02MC 02RD 02RO	1	0	1.18321704865	-134.0	171.0	-134	175	1
2.7	2015_May_05_1307	s	s	4	2	SIC	361	RC	2	2	09VD 02VO 02VC 02MD 02MO 02MC 02RD 02RO	1	0	1.35046982765	-282.0	334.0	-280	329	1
2.7	2015_May_05_1307	s	s	4	2	SIC	362	ABS	1	1	02VD 02VO 02VC 02MD 10MO 02MC 02RD 02RO	0	1	2.93022203445	None	None	None	None	1
2.7	2015_May_05_1307	s	s	4	2	SIC	363	ABS	0	1	02VD 02VO 02VC 02MD 02MO 02MC 02RD 10RO	0	1	3.09500598907	None	None	None	None	1
2.7	2015_May_05_1307	s	s	4	2	SIC	364	ABS	1	0	02VD 02VO 02VC 02MD 02MO 10MC 02RD 02RO	0	1	1.58348703384	None	None	None	None	1
2.7	2015_May_05_1307	s	s	4	2	SIC	365	ABS	2	1	02VD 10VO 02VC 02MD 02MO 02MC 02RD 02RO	0	1	2.06599187851	None	None	None	None	1
2.7	2015_May_05_1307	s	s	4	2	SIC	366	RC	1	2	02VD 02VO 02VC 09MD 02MO 02MC 02RD 02RO	1	0	1.45394301414	-75.0	305.0	-78	301	1
2.7	2015_May_05_1307	s	s	4	2	SIC	367	RC	2	1	02VD 09VO 02VC 02MD 02MO 02MC 02RD 02RO	1	0	1.73631000519	-138.0	-311.0	-133	-311	1
2.7	2015_May_05_1307	s	s	4	2	SIC	368	ABS	2	0	02VD 02VO 10VC 02MD 02MO 02MC 02RD 02RO	0	1	1.64457798004	None	None	None	None	1
2.7	2015_May_05_1307	s	s	4	2	SIC	369	ABS	1	2	02VD 02VO 02VC 10MD 02MO 02MC 02RD 02RO	0	1	1.87901592255	None	None	None	None	1
2.7	2015_May_05_1307	s	s	4	2	SIC	370	RC	2	0	02VD 02VO 09VC 02MD 02MO 02MC 02RD 02RO	1	0	1.01984405518	292.0	-10.0	299	-7	1
2.7	2015_May_05_1307	s	s	4	2	SIC	371	ABS	1	1	02VD 02VO 02VC 02MD 10MO 02MC 02RD 02RO	0	1	2.77210092545	None	None	None	None	1
2.7	2015_May_05_1307	s	s	4	2	SIC	372	RC	0	2	02VD 02VO 02VC 02MD 02MO 02MC 09RD 02RO	1	0	1.5766980648	-199.0	228.0	-206	231	1
2.7	2015_May_05_1307	s	s	4	2	SIC	373	RC	1	2	02VD 02VO 02VC 09MD 02MO 02MC 02RD 02RO	1	0	1.51778292656	-261.0	-106.0	-259	-104	1
2.7	2015_May_05_1307	s	s	4	2	SIC	374	ABS	2	0	02VD 02VO 10VC 02MD 02MO 02MC 02RD 02RO	0	1	2.92352104187	None	None	None	None	1
2.7	2015_May_05_1307	s	s	4	2	SIC	375	RC	1	0	02VD 02VO 02VC 02MD 02MO 09MC 02RD 02RO	1	0	3.13031983376	-29.0	321.0	-31	316	1
2.7	2015_May_05_1307	s	s	4	2	SIC	376	ABS	1	0	02VD 02VO 02VC 02MD 02MO 10MC 02RD 02RO	0	1	0.128885984421	None	None	None	None	1
2.7	2015_May_05_1307	s	s	4	2	SIC	377	RC	2	2	09VD 02VO 02VC 02MD 02MO 02MC 02RD 02RO	1	0	2.56009411812	485.0	166.0	491	165	1
2.7	2015_May_05_1307	s	s	4	2	SIC	378	ABS	2	2	10VD 02VO 02VC 02MD 02MO 02MC 02RD 02RO	0	1	2.74872207642	None	None	None	None	1
2.7	2015_May_05_1307	s	s	4	2	SIC	379	RC	1	1	02VD 02VO 02VC 02MD 09MO 02MC 02RD 02RO	1	0	1.39440107346	305.0	314.0	305	312	1
2.7	2015_May_05_1307	s	s	4	2	SIC	380	ABS	0	2	02VD 02VO 02VC 02MD 02MO 02MC 10RD 02RO	0	1	2.68301606178	None	None	None	None	1
2.7	2015_May_05_1307	s	s	4	2	SIC	381	RC	0	1	02VD 02VO 02VC 02MD 02MO 02MC 02RD 09RO	1	0	1.95329713821	-129.0	315.0	-129	315	1
2.7	2015_May_05_1307	s	s	4	2	SIC	382	ABS	2	1	02VD 10VO 02VC 02MD 02MO 02MC 02RD 02RO	0	1	2.26594591141	None	None	None	None	1
2.7	2015_May_05_1307	s	s	4	2	SIC	383	RC	2	1	02VD 09VO 02VC 02MD 02MO 02MC 02RD 02RO	1	0	1.24231100082	-362.0	-311.0	-354	-302	1
2.7	2015_May_05_1307	s	s	4	2	SIC	384	ABS	0	1	02VD 02VO 02VC 02MD 02MO 02MC 02RD 10RO	0	1	3.24806785583	None	None	None	None	1
2.7	2015_May_05_1307	s	s	4	2	SIC	385	RC	2	0	02VD 02VO 09VC 02MD 02MO 02MC 02RD 02RO	1	0	1.82383489609	411.0	215.0	405	216	1
2.7	2015_May_05_1307	s	s	4	2	SIC	386	ABS	2	1	02VD 10VO 02VC 02MD 02MO 02MC 02RD 02RO	0	1	1.90612697601	None	None	None	None	1
2.7	2015_May_05_1307	s	s	4	2	SIC	387	ABS	1	0	02VD 02VO 02VC 02MD 02MO 10MC 02RD 02RO	0	1	2.64800095558	None	None	None	None	1
2.7	2015_May_05_1307	s	s	4	2	SIC	388	RC	2	2	09VD 02VO 02VC 02MD 02MO 02MC 02RD 02RO	1	0	3.47171592712	452.0	190.0	451	199	1
2.7	2015_May_05_1307	s	s	4	2	SIC	389	ABS	0	1	02VD 02VO 02VC 02MD 02MO 02MC 02RD 10RO	0	1	3.85679602623	None	None	None	None	1
2.7	2015_May_05_1307	s	s	4	2	SIC	390	ABS	0	2	02VD 02VO 02VC 02MD 02MO 02MC 10RD 02RO	0	1	2.43313002586	None	None	None	None	1
2.7	2015_May_05_1307	s	s	4	2	SIC	391	ABS	2	2	10VD 02VO 02VC 02MD 02MO 02MC 02RD 02RO	0	1	1.87768292427	None	None	None	None	1
2.7	2015_May_05_1307	s	s	4	2	SIC	392	RC	1	0	02VD 02VO 02VC 02MD 02MO 09MC 02RD 02RO	1	0	1.79232907295	-192.0	-389.0	-197	-390	1
2.7	2015_May_05_1307	s	s	4	2	SIC	393	ABS	2	0	02VD 02VO 10VC 02MD 02MO 02MC 02RD 02RO	0	1	2.41271114349	None	None	None	None	1
2.7	2015_May_05_1307	s	s	4	2	SIC	394	RC	0	1	02VD 02VO 02VC 02MD 02MO 02MC 02RD 09RO	1	0	1.91820597649	474.0	323.0	466	324	1
2.7	2015_May_05_1307	s	s	4	2	SIC	395	ABS	1	2	02VD 02VO 02VC 10MD 02MO 02MC 02RD 02RO	0	1	2.8767490387	None	None	None	None	1
2.7	2015_May_05_1307	s	s	4	2	SIC	396	ABS	1	1	02VD 02VO 02VC 02MD 10MO 02MC 02RD 02RO	0	1	2.79610991478	None	None	None	None	1
2.7	2015_May_05_1307	s	s	4	2	SIC	397	RC	1	2	02VD 02VO 02VC 09MD 02MO 02MC 02RD 02RO	1	0	1.14115691185	302.0	120.0	306	123	1
2.7	2015_May_05_1307	s	s	4	2	SIC	398	RC	2	1	02VD 09VO 02VC 02MD 02MO 02MC 02RD 02RO	1	0	1.3213391304	138.0	-295.0	143	-298	1
2.7	2015_May_05_1307	s	s	4	2	SIC	399	RC	1	1	02VD 02VO 02VC 02MD 09MO 02MC 02RD 02RO	1	0	1.03506207466	88.0	-65.0	80	-67	1
2.7	2015_May_05_1307	s	s	4	2	SIC	400	RC	0	2	02VD 02VO 02VC 02MD 02MO 02MC 09RD 02RO	1	0	1.21691989899	227.0	-266.0	232	-267	1
2.7	2015_May_05_1307	s	s	4	2	SIC	401	ABS	2	0	02VD 02VO 10VC 02MD 02MO 02MC 02RD 02RO	0	1	2.63090610504	None	None	None	None	1
2.7	2015_May_05_1307	s	s	4	2	SIC	402	ABS	1	0	02VD 02VO 02VC 02MD 02MO 10MC 02RD 02RO	0	1	3.21941280365	None	None	None	None	1
2.7	2015_May_05_1307	s	s	4	2	SIC	403	ABS	0	1	02VD 02VO 02VC 02MD 02MO 02MC 02RD 10RO	0	1	3.02111792564	None	None	None	None	1
2.7	2015_May_05_1307	s	s	4	2	SIC	404	RC	2	2	09VD 02VO 02VC 02MD 02MO 02MC 02RD 02RO	1	0	0.629395961761	-8.0	10.0	-7	20	1
2.7	2015_May_05_1307	s	s	4	2	SIC	405	ABS	2	1	02VD 10VO 02VC 02MD 02MO 02MC 02RD 02RO	0	1	2.20725297928	None	None	None	None	1
2.7	2015_May_05_1307	s	s	4	2	SIC	406	RC	2	1	02VD 09VO 02VC 02MD 02MO 02MC 02RD 02RO	1	0	1.58842492104	16.0	-131.0	25	-127	1
2.7	2015_May_05_1307	s	s	4	2	SIC	407	RC	1	1	02VD 02VO 02VC 02MD 09MO 02MC 02RD 02RO	1	0	1.26538991928	-254.0	-187.0	-257	-178	1
2.7	2015_May_05_1307	s	s	4	2	SIC	408	RC	0	1	02VD 02VO 02VC 02MD 02MO 02MC 02RD 09RO	1	0	3.53777194023	399.0	74.0	405	74	1
2.7	2015_May_05_1307	s	s	4	2	SIC	409	ABS	1	2	02VD 02VO 02VC 10MD 02MO 02MC 02RD 02RO	0	1	3.67178821564	None	None	None	None	1
2.7	2015_May_05_1307	s	s	4	2	SIC	410	RC	2	0	02VD 02VO 09VC 02MD 02MO 02MC 02RD 02RO	1	0	1.25564599037	308.0	215.0	310	214	1
2.7	2015_May_05_1307	s	s	4	2	SIC	411	ABS	0	2	02VD 02VO 02VC 02MD 02MO 02MC 10RD 02RO	0	1	5.00190401077	None	None	None	None	1
2.7	2015_May_05_1307	s	s	4	2	SIC	412	RC	1	0	02VD 02VO 02VC 02MD 02MO 09MC 02RD 02RO	1	0	1.01168584824	-32.0	-104.0	-35	-101	1
2.7	2015_May_05_1307	s	s	4	2	SIC	413	ABS	2	2	10VD 02VO 02VC 02MD 02MO 02MC 02RD 02RO	0	1	3.00607705116	None	None	None	None	1
2.7	2015_May_05_1307	s	s	4	2	SIC	414	RC	0	2	02VD 02VO 02VC 02MD 02MO 02MC 09RD 02RO	1	0	1.31768703461	538.0	162.0	546	164	1
2.7	2015_May_05_1307	s	s	4	2	SIC	415	ABS	1	1	02VD 02VO 02VC 02MD 10MO 02MC 02RD 02RO	0	1	2.74169993401	None	None	None	None	1
2.7	2015_May_05_1307	s	s	4	2	SIC	416	RC	1	2	02VD 02VO 02VC 09MD 02MO 02MC 02RD 02RO	1	0	2.54772591591	490.0	402.0	498	401	1
2.7	2015_May_05_1307	s	s	4	2	SIC	417	ABS	1	2	02VD 02VO 02VC 10MD 02MO 02MC 02RD 02RO	0	1	2.61929798126	None	None	None	None	1
2.7	2015_May_05_1307	s	s	4	2	SIC	418	RC	2	1	02VD 09VO 02VC 02MD 02MO 02MC 02RD 02RO	1	0	2.09131503105	411.0	-327.0	416	-328	1
2.7	2015_May_05_1307	s	s	4	2	SIC	419	RC	1	0	02VD 02VO 02VC 02MD 02MO 09MC 02RD 02RO	1	0	1.34789204597	101.0	226.0	98	223	1
2.7	2015_May_05_1307	s	s	4	2	SIC	420	ABS	0	1	02VD 02VO 02VC 02MD 02MO 02MC 02RD 10RO	0	1	3.87980699539	None	None	None	None	1
2.7	2015_May_05_1307	s	s	4	2	SIC	421	RC	1	1	02VD 02VO 02VC 02MD 09MO 02MC 02RD 02RO	1	0	1.89443302155	-317.0	364.0	-306	366	1
2.7	2015_May_05_1307	s	s	4	2	SIC	422	RC	2	0	02VD 02VO 09VC 02MD 02MO 02MC 02RD 02RO	1	0	3.07991409302	108.0	265.0	115	267	1
2.7	2015_May_05_1307	s	s	4	2	SIC	423	ABS	2	1	02VD 10VO 02VC 02MD 02MO 02MC 02RD 02RO	0	1	2.2985060215	None	None	None	None	1
2.7	2015_May_05_1307	s	s	4	2	SIC	424	ABS	1	1	02VD 02VO 02VC 02MD 10MO 02MC 02RD 02RO	0	1	3.88374090195	None	None	None	None	1
2.7	2015_May_05_1307	s	s	4	2	SIC	425	RC	2	2	09VD 02VO 02VC 02MD 02MO 02MC 02RD 02RO	1	0	1.07412290573	163.0	-108.0	169	-114	1
2.7	2015_May_05_1307	s	s	4	2	SIC	426	ABS	2	0	02VD 02VO 10VC 02MD 02MO 02MC 02RD 02RO	0	1	2.49471998215	None	None	None	None	1
2.7	2015_May_05_1307	s	s	4	2	SIC	427	RC	1	2	02VD 02VO 02VC 09MD 02MO 02MC 02RD 02RO	1	0	2.47774195671	355.0	103.0	365	107	1
2.7	2015_May_05_1307	s	s	4	2	SIC	428	ABS	1	0	02VD 02VO 02VC 02MD 02MO 10MC 02RD 02RO	0	1	3.23124194145	None	None	None	None	1
2.7	2015_May_05_1307	s	s	4	2	SIC	429	ABS	2	2	10VD 02VO 02VC 02MD 02MO 02MC 02RD 02RO	0	1	2.67132115364	None	None	None	None	1
2.7	2015_May_05_1307	s	s	4	2	SIC	430	RC	0	1	02VD 02VO 02VC 02MD 02MO 02MC 02RD 09RO	1	0	2.48987412453	156.0	-167.0	154	-159	1
2.7	2015_May_05_1307	s	s	4	2	SIC	431	RC	0	2	02VD 02VO 02VC 02MD 02MO 02MC 09RD 02RO	1	0	0.776248216629	64.0	-45.0	68	-37	1
2.7	2015_May_05_1307	s	s	4	2	SIC	432	ABS	0	2	02VD 02VO 02VC 02MD 02MO 02MC 10RD 02RO	0	1	2.40732502937	None	None	None	None	1
2.7	2015_May_05_1307	s	s	4	2	SIC	433	ABS	0	1	02VD 02VO 02VC 02MD 02MO 02MC 02RD 10RO	0	1	2.51475191116	None	None	None	None	1
2.7	2015_May_05_1307	s	s	4	2	SIC	434	RC	2	0	02VD 02VO 09VC 02MD 02MO 02MC 02RD 02RO	1	0	0.98806810379	-62.0	-146.0	-59	-143	1
2.7	2015_May_05_1307	s	s	4	2	SIC	435	RC	1	2	02VD 02VO 02VC 09MD 02MO 02MC 02RD 02RO	1	0	0.912596940994	-405.0	-132.0	-406	-137	1
2.7	2015_May_05_1307	s	s	4	2	SIC	436	RC	2	1	02VD 09VO 02VC 02MD 02MO 02MC 02RD 02RO	1	0	1.44715118408	88.0	-146.0	88	-146	1
2.7	2015_May_05_1307	s	s	4	2	SIC	437	ABS	1	1	02VD 02VO 02VC 02MD 10MO 02MC 02RD 02RO	0	1	3.40111494064	None	None	None	None	1
2.7	2015_May_05_1307	s	s	4	2	SIC	438	ABS	1	2	02VD 02VO 02VC 10MD 02MO 02MC 02RD 02RO	0	1	2.20086216927	None	None	None	None	1
2.7	2015_May_05_1307	s	s	4	2	SIC	439	RC	2	2	09VD 02VO 02VC 02MD 02MO 02MC 02RD 02RO	1	0	1.36479401588	263.0	267.0	267	266	1
2.7	2015_May_05_1307	s	s	4	2	SIC	440	RC	0	2	02VD 02VO 02VC 02MD 02MO 02MC 09RD 02RO	1	0	0.61150598526	48.0	7.0	33	13	1
2.7	2015_May_05_1307	s	s	4	2	SIC	441	ABS	2	1	02VD 10VO 02VC 02MD 02MO 02MC 02RD 02RO	0	1	1.72946500778	None	None	None	None	1
2.7	2015_May_05_1307	s	s	4	2	SIC	442	RC	0	1	02VD 02VO 02VC 02MD 02MO 02MC 02RD 09RO	1	0	4.43184518814	21.0	-271.0	26	-268	1
2.7	2015_May_05_1307	s	s	4	2	SIC	443	ABS	1	0	02VD 02VO 02VC 02MD 02MO 10MC 02RD 02RO	0	1	3.11369419098	None	None	None	None	1
2.7	2015_May_05_1307	s	s	4	2	SIC	444	ABS	0	2	02VD 02VO 02VC 02MD 02MO 02MC 10RD 02RO	0	1	2.43590188026	None	None	None	None	1
2.7	2015_May_05_1307	s	s	4	2	SIC	445	RC	1	1	02VD 02VO 02VC 02MD 09MO 02MC 02RD 02RO	1	0	0.83513212204	-46.0	243.0	-42	235	1
2.7	2015_May_05_1307	s	s	4	2	SIC	446	ABS	2	2	10VD 02VO 02VC 02MD 02MO 02MC 02RD 02RO	0	1	2.41236591339	None	None	None	None	1
2.7	2015_May_05_1307	s	s	4	2	SIC	447	ABS	2	0	02VD 02VO 10VC 02MD 02MO 02MC 02RD 02RO	0	1	2.16509819031	None	None	None	None	1
2.7	2015_May_05_1307	s	s	4	2	SIC	448	RC	1	0	02VD 02VO 02VC 02MD 02MO 09MC 02RD 02RO	1	0	1.96506500244	208.0	309.0	206	314	1
2.7	2015_May_05_1307	s	s	4	2	SIC	449	RC	2	1	02VD 09VO 02VC 02MD 02MO 02MC 02RD 02RO	1	0	1.58348107338	-452.0	64.0	-452	65	1
2.7	2015_May_05_1307	s	s	4	2	SIC	450	RC	1	0	02VD 02VO 02VC 02MD 02MO 09MC 02RD 02RO	1	0	1.54821205139	290.0	200.0	293	206	1
2.7	2015_May_05_1307	s	s	4	2	SIC	451	RC	2	2	09VD 02VO 02VC 02MD 02MO 02MC 02RD 02RO	1	0	0.784685134888	39.0	237.0	25	242	1
2.7	2015_May_05_1307	s	s	4	2	SIC	452	RC	0	1	02VD 02VO 02VC 02MD 02MO 02MC 02RD 09RO	1	0	1.21864295006	75.0	-10.0	76	-5	1
2.7	2015_May_05_1307	s	s	4	2	SIC	453	RC	1	2	02VD 02VO 02VC 09MD 02MO 02MC 02RD 02RO	1	0	1.42355799675	383.0	-315.0	390	-314	1
2.7	2015_May_05_1307	s	s	4	2	SIC	454	ABS	1	0	02VD 02VO 02VC 02MD 02MO 10MC 02RD 02RO	0	1	3.31869482994	None	None	None	None	1
2.7	2015_May_05_1307	s	s	4	2	SIC	455	ABS	0	2	02VD 02VO 02VC 02MD 02MO 02MC 10RD 02RO	0	1	3.20138406754	None	None	None	None	1
2.7	2015_May_05_1307	s	s	4	2	SIC	456	ABS	1	1	02VD 02VO 02VC 02MD 10MO 02MC 02RD 02RO	0	1	2.62150216103	None	None	None	None	1
2.7	2015_May_05_1307	s	s	4	2	SIC	457	ABS	1	2	02VD 02VO 02VC 10MD 02MO 02MC 02RD 02RO	0	1	2.18347811699	None	None	None	None	1
2.7	2015_May_05_1307	s	s	4	2	SIC	458	ABS	2	0	02VD 02VO 10VC 02MD 02MO 02MC 02RD 02RO	0	1	1.5975549221	None	None	None	None	1
2.7	2015_May_05_1307	s	s	4	2	SIC	459	ABS	2	2	10VD 02VO 02VC 02MD 02MO 02MC 02RD 02RO	0	1	2.05509090424	None	None	None	None	1
2.7	2015_May_05_1307	s	s	4	2	SIC	460	ABS	2	1	02VD 10VO 02VC 02MD 02MO 02MC 02RD 02RO	0	1	1.67449712753	None	None	None	None	1
2.7	2015_May_05_1307	s	s	4	2	SIC	461	ABS	0	1	02VD 02VO 02VC 02MD 02MO 02MC 02RD 10RO	0	1	3.23135995865	None	None	None	None	1
2.7	2015_May_05_1307	s	s	4	2	SIC	462	RC	2	0	02VD 02VO 09VC 02MD 02MO 02MC 02RD 02RO	1	0	1.81760311127	499.0	289.0	497	290	1
2.7	2015_May_05_1307	s	s	4	2	SIC	463	RC	0	2	02VD 02VO 02VC 02MD 02MO 02MC 09RD 02RO	1	0	1.07948207855	-303.0	-259.0	-305	-265	1
2.7	2015_May_05_1307	s	s	4	2	SIC	464	RC	1	1	02VD 02VO 02VC 02MD 09MO 02MC 02RD 02RO	1	0	1.39698195457	-418.0	293.0	-415	287	1
2.7	2015_May_05_1307	s	s	4	2	SIC	465	RC	1	0	02VD 02VO 02VC 02MD 02MO 09MC 02RD 02RO	1	0	1.33616900444	362.0	277.0	361	275	1
2.7	2015_May_05_1307	s	s	4	2	SIC	466	RC	2	0	02VD 02VO 09VC 02MD 02MO 02MC 02RD 02RO	1	0	1.02338480949	-125.0	-86.0	-128	-94	1
2.7	2015_May_05_1307	s	s	4	2	SIC	467	RC	1	1	02VD 02VO 02VC 02MD 09MO 02MC 02RD 02RO	1	0	1.9036231041	537.0	65.0	537	62	1
2.7	2015_May_05_1307	s	s	4	2	SIC	468	ABS	1	0	02VD 02VO 02VC 02MD 02MO 10MC 02RD 02RO	0	1	2.97228503227	None	None	None	None	1
2.7	2015_May_05_1307	s	s	4	2	SIC	469	ABS	1	2	02VD 02VO 02VC 10MD 02MO 02MC 02RD 02RO	0	1	2.37328696251	None	None	None	None	1
2.7	2015_May_05_1307	s	s	4	2	SIC	470	RC	1	2	02VD 02VO 02VC 09MD 02MO 02MC 02RD 02RO	1	0	0.747627019882	-70.0	-150.0	-71	-149	1
2.7	2015_May_05_1307	s	s	4	2	SIC	471	ABS	1	1	02VD 02VO 02VC 02MD 10MO 02MC 02RD 02RO	0	1	1.96535301208	None	None	None	None	1
2.7	2015_May_05_1307	s	s	4	2	SIC	472	ABS	0	2	02VD 02VO 02VC 02MD 02MO 02MC 10RD 02RO	0	1	1.51309990883	None	None	None	None	1
2.7	2015_May_05_1307	s	s	4	2	SIC	473	ABS	0	1	02VD 02VO 02VC 02MD 02MO 02MC 02RD 10RO	0	1	2.50112295151	None	None	None	None	1
2.7	2015_May_05_1307	s	s	4	2	SIC	474	ABS	2	0	02VD 02VO 10VC 02MD 02MO 02MC 02RD 02RO	0	1	1.43580412865	None	None	None	None	1
2.7	2015_May_05_1307	s	s	4	2	SIC	475	RC	2	1	02VD 09VO 02VC 02MD 02MO 02MC 02RD 02RO	1	0	1.57160997391	3.0	-167.0	5	-161	1
2.7	2015_May_05_1307	s	s	4	2	SIC	476	RC	2	2	09VD 02VO 02VC 02MD 02MO 02MC 02RD 02RO	1	0	0.982506990433	-31.0	-404.0	-28	-400	1
2.7	2015_May_05_1307	s	s	4	2	SIC	477	ABS	2	1	02VD 10VO 02VC 02MD 02MO 02MC 02RD 02RO	0	1	2.19659590721	None	None	None	None	1
2.7	2015_May_05_1307	s	s	4	2	SIC	478	RC	0	1	02VD 02VO 02VC 02MD 02MO 02MC 02RD 09RO	1	0	1.31796789169	419.0	346.0	417	332	1
2.7	2015_May_05_1307	s	s	4	2	SIC	479	ABS	2	2	10VD 02VO 02VC 02MD 02MO 02MC 02RD 02RO	0	1	2.51829314232	None	None	None	None	1
2.7	2015_May_05_1307	s	s	4	2	SIC	480	RC	0	2	02VD 02VO 02VC 02MD 02MO 02MC 09RD 02RO	1	0	1.00866389275	198.0	-128.0	200	-123	1
