Version	Date	Stimuli	Method	Subject	Session	Condition	Trial	Target	Channel1	Channel2	Distractors	LMouseButton	RMouseButton	RT	TargetX	TargetY	ResponseX	ResponseY	Correct
2.7	2015_May_08_1312	s	s	4	5	Capacity	1	RC	0	1	08RD 15RO	1	0	2.85953378677	418.0	-264.0	414	-273	1
2.7	2015_May_08_1312	s	s	4	5	Capacity	2	RC	0	2	15RD 08RO	1	0	0.976368188858	-197.0	-303.0	-195	-302	1
2.7	2015_May_08_1312	s	s	4	5	Capacity	3	ABS	0	2	16RD 08RO	0	1	2.28969693184	None	None	None	None	1
2.7	2015_May_08_1312	s	s	4	5	Capacity	4	ABS	0	1	08RD 16RO	0	1	2.34856104851	None	None	None	None	1
2.7	2015_May_08_1312	s	s	4	5	Capacity	5	RC	0	2	15RD 08RO	1	0	0.901207923889	91.0	-102.0	78	-98	1
2.7	2015_May_08_1312	s	s	4	5	Capacity	6	ABS	0	1	08RD 16RO	0	1	2.38389396667	None	None	None	None	1
2.7	2015_May_08_1312	s	s	4	5	Capacity	7	ABS	0	2	16RD 08RO	0	1	1.93597507477	None	None	None	None	1
2.7	2015_May_08_1312	s	s	4	5	Capacity	8	RC	0	1	08RD 15RO	1	0	2.23071408272	423.0	-267.0	427	-261	1
2.7	2015_May_08_1312	s	s	4	5	Capacity	9	ABS	0	2	16RD 08RO	0	1	1.97223687172	None	None	None	None	1
2.7	2015_May_08_1312	s	s	4	5	Capacity	10	ABS	0	1	08RD 16RO	0	1	2.4539539814	None	None	None	None	1
2.7	2015_May_08_1312	s	s	4	5	Capacity	11	RC	0	2	15RD 08RO	1	0	1.05374693871	305.0	-79.0	313	-79	1
2.7	2015_May_08_1312	s	s	4	5	Capacity	12	RC	0	1	08RD 15RO	0	1	2.76058506966	-508.0	363.0	None	None	0
2.7	2015_May_08_1312	s	s	4	5	Capacity	13	ABS	0	2	16RD 08RO	0	1	2.33402609825	None	None	None	None	1
2.7	2015_May_08_1312	s	s	4	5	Capacity	14	RC	0	1	08RD 15RO	1	0	2.30681395531	279.0	387.0	279	388	1
2.7	2015_May_08_1312	s	s	4	5	Capacity	15	RC	0	2	15RD 08RO	1	0	0.74095082283	231.0	22.0	233	24	1
2.7	2015_May_08_1312	s	s	4	5	Capacity	16	ABS	0	1	08RD 16RO	0	1	3.02436494827	None	None	None	None	1
2.7	2015_May_08_1312	s	s	4	5	Capacity	17	RC	0	2	15RD 08RO	1	0	0.776210069656	-56.0	-164.0	-45	-155	1
2.7	2015_May_08_1312	s	s	4	5	Capacity	18	ABS	0	1	08RD 16RO	0	1	3.57403111458	None	None	None	None	1
2.7	2015_May_08_1312	s	s	4	5	Capacity	19	ABS	0	2	16RD 08RO	0	1	1.83013105392	None	None	None	None	1
2.7	2015_May_08_1312	s	s	4	5	Capacity	20	RC	0	1	08RD 15RO	1	0	1.35961604118	223.0	407.0	224	402	1
2.7	2015_May_08_1312	s	s	4	5	Capacity	21	ABS	0	2	16RD 08RO	0	1	2.23305106163	None	None	None	None	1
2.7	2015_May_08_1312	s	s	4	5	Capacity	22	ABS	0	1	08RD 16RO	0	1	2.36510491371	None	None	None	None	1
2.7	2015_May_08_1312	s	s	4	5	Capacity	23	RC	0	2	15RD 08RO	1	0	1.83032298088	321.0	347.0	326	344	1
2.7	2015_May_08_1312	s	s	4	5	Capacity	24	RC	0	1	08RD 15RO	1	0	1.71804213524	-23.0	-358.0	-20	-368	1
2.7	2015_May_08_1312	s	s	4	5	Capacity	25	ABS	0	2	16RD 08RO	0	1	2.47933387756	None	None	None	None	1
2.7	2015_May_08_1312	s	s	4	5	Capacity	26	RC	0	2	15RD 08RO	1	0	2.14156484604	-464.0	-182.0	-471	-182	1
2.7	2015_May_08_1312	s	s	4	5	Capacity	27	RC	0	1	08RD 15RO	1	0	0.764456033707	-150.0	-59.0	-156	-63	1
2.7	2015_May_08_1312	s	s	4	5	Capacity	28	ABS	0	1	08RD 16RO	0	1	3.56585288048	None	None	None	None	1
2.7	2015_May_08_1312	s	s	4	5	Capacity	29	RC	0	2	15RD 08RO	1	0	1.48953390121	-516.0	115.0	-515	105	1
2.7	2015_May_08_1312	s	s	4	5	Capacity	30	RC	0	1	08RD 15RO	1	0	1.34965896606	204.0	-308.0	215	-307	1
2.7	2015_May_08_1312	s	s	4	5	Capacity	31	ABS	0	1	08RD 16RO	0	1	3.06585001945	None	None	None	None	1
2.7	2015_May_08_1312	s	s	4	5	Capacity	32	ABS	0	2	16RD 08RO	0	1	2.68033194542	None	None	None	None	1
2.7	2015_May_08_1312	s	s	4	5	Capacity	33	RC	0	2	15RD 08RO	1	0	1.73531699181	521.0	-157.0	528	-155	1
2.7	2015_May_08_1312	s	s	4	5	Capacity	34	RC	0	1	08RD 15RO	1	0	1.80665683746	-418.0	341.0	-418	347	1
2.7	2015_May_08_1312	s	s	4	5	Capacity	35	ABS	0	2	16RD 08RO	0	1	2.12444114685	None	None	None	None	1
2.7	2015_May_08_1312	s	s	4	5	Capacity	36	ABS	0	1	08RD 16RO	0	1	3.60794091225	None	None	None	None	1
2.7	2015_May_08_1312	s	s	4	5	Capacity	37	ABS	0	1	08RD 16RO	0	1	2.78348398209	None	None	None	None	1
2.7	2015_May_08_1312	s	s	4	5	Capacity	38	RC	0	2	15RD 08RO	1	0	0.780294895172	-331.0	-222.0	-329	-228	1
2.7	2015_May_08_1312	s	s	4	5	Capacity	39	RC	0	1	08RD 15RO	1	0	2.46610212326	268.0	405.0	273	403	1
2.7	2015_May_08_1312	s	s	4	5	Capacity	40	ABS	0	2	16RD 08RO	0	1	2.63103294373	None	None	None	None	1
2.7	2015_May_08_1312	s	s	4	5	Capacity	41	RC	0	1	08RD 15RO	1	0	1.05876898766	-506.0	-301.0	-508	-304	1
2.7	2015_May_08_1312	s	s	4	5	Capacity	42	ABS	0	1	08RD 16RO	0	1	3.16062903404	None	None	None	None	1
2.7	2015_May_08_1312	s	s	4	5	Capacity	43	RC	0	2	15RD 08RO	1	0	1.03519296646	519.0	-150.0	520	-146	1
2.7	2015_May_08_1312	s	s	4	5	Capacity	44	ABS	0	2	16RD 08RO	0	1	2.80666518211	None	None	None	None	1
2.7	2015_May_08_1312	s	s	4	5	Capacity	45	RC	0	1	08RD 15RO	1	0	2.27517700195	533.0	325.0	534	325	1
2.7	2015_May_08_1312	s	s	4	5	Capacity	46	RC	0	2	15RD 08RO	1	0	1.35982394218	482.0	-36.0	490	-39	1
2.7	2015_May_08_1312	s	s	4	5	Capacity	47	ABS	0	1	08RD 16RO	0	1	3.65594410896	None	None	None	None	1
2.7	2015_May_08_1312	s	s	4	5	Capacity	48	ABS	0	2	16RD 08RO	0	1	2.97279405594	None	None	None	None	1
2.7	2015_May_08_1312	s	s	4	5	Capacity	49	ABS	0	1	08RD 16RO	0	1	2.92495083809	None	None	None	None	1
2.7	2015_May_08_1312	s	s	4	5	Capacity	50	RC	0	1	08RD 15RO	1	0	2.84283995628	331.0	185.0	328	182	1
2.7	2015_May_08_1312	s	s	4	5	Capacity	51	RC	0	2	15RD 08RO	1	0	0.771615982056	187.0	63.0	195	61	1
2.7	2015_May_08_1312	s	s	4	5	Capacity	52	ABS	0	2	16RD 08RO	0	1	2.3014228344	None	None	None	None	1
2.7	2015_May_08_1312	s	s	4	5	Capacity	53	ABS	0	1	08RD 16RO	0	1	3.44307494164	None	None	None	None	1
2.7	2015_May_08_1312	s	s	4	5	Capacity	54	RC	0	1	08RD 15RO	1	0	1.03019976616	3.0	149.0	0	135	1
2.7	2015_May_08_1312	s	s	4	5	Capacity	55	ABS	0	2	16RD 08RO	0	1	2.88686800003	None	None	None	None	1
2.7	2015_May_08_1312	s	s	4	5	Capacity	56	RC	0	2	15RD 08RO	1	0	0.929118871689	-59.0	-94.0	-61	-109	1
2.7	2015_May_08_1312	s	s	4	5	Capacity	57	RC	0	1	08RD 15RO	1	0	1.05621385574	476.0	-230.0	471	-226	1
2.7	2015_May_08_1312	s	s	4	5	Capacity	58	RC	0	2	15RD 08RO	1	0	1.60625314713	273.0	52.0	271	36	1
2.7	2015_May_08_1312	s	s	4	5	Capacity	59	ABS	0	1	08RD 16RO	0	1	3.29026913643	None	None	None	None	1
2.7	2015_May_08_1312	s	s	4	5	Capacity	60	ABS	0	2	16RD 08RO	0	1	2.70666003227	None	None	None	None	1
2.7	2015_May_08_1312	s	s	4	5	Capacity	61	ABS	0	1	08RD 16RO	0	1	2.79561209679	None	None	None	None	1
2.7	2015_May_08_1312	s	s	4	5	Capacity	62	RC	0	2	15RD 08RO	1	0	0.529016971588	59.0	-20.0	64	-21	1
2.7	2015_May_08_1312	s	s	4	5	Capacity	63	ABS	0	2	16RD 08RO	0	1	2.90075397491	None	None	None	None	1
2.7	2015_May_08_1312	s	s	4	5	Capacity	64	RC	0	1	08RD 15RO	1	0	3.07150578499	-483.0	-307.0	-487	-320	1
2.7	2015_May_08_1312	s	s	4	5	Capacity	1	ABS	2	0	16VC 08MC	0	1	1.33665895462	None	None	None	None	1
2.7	2015_May_08_1312	s	s	4	5	Capacity	2	RC	2	0	15VC 08MC	1	0	1.12437415123	327.0	254.0	329	255	1
2.7	2015_May_08_1312	s	s	4	5	Capacity	3	ABS	1	0	08VC 16MC	0	1	1.4188811779	None	None	None	None	1
2.7	2015_May_08_1312	s	s	4	5	Capacity	4	RC	1	0	08VC 15MC	1	0	0.677461147308	-12.0	-118.0	-10	-114	1
2.7	2015_May_08_1312	s	s	4	5	Capacity	5	RC	2	0	15VC 08MC	1	0	0.618170976639	-495.0	35.0	-495	33	1
2.7	2015_May_08_1312	s	s	4	5	Capacity	6	RC	1	0	08VC 15MC	1	0	0.929129838943	-302.0	278.0	-303	277	1
2.7	2015_May_08_1312	s	s	4	5	Capacity	7	ABS	1	0	08VC 16MC	0	1	1.38312482834	None	None	None	None	1
2.7	2015_May_08_1312	s	s	4	5	Capacity	8	ABS	2	0	16VC 08MC	0	1	1.15822696686	None	None	None	None	1
2.7	2015_May_08_1312	s	s	4	5	Capacity	9	ABS	1	0	08VC 16MC	0	1	1.60733413696	None	None	None	None	1
2.7	2015_May_08_1312	s	s	4	5	Capacity	10	ABS	2	0	16VC 08MC	0	1	1.35304307938	None	None	None	None	1
2.7	2015_May_08_1312	s	s	4	5	Capacity	11	RC	2	0	15VC 08MC	1	0	0.517235994339	-50.0	64.0	-44	56	1
2.7	2015_May_08_1312	s	s	4	5	Capacity	12	RC	1	0	08VC 15MC	1	0	0.464769124985	-98.0	2.0	-92	-1	1
2.7	2015_May_08_1312	s	s	4	5	Capacity	13	ABS	2	0	16VC 08MC	0	1	1.81876993179	None	None	None	None	1
2.7	2015_May_08_1312	s	s	4	5	Capacity	14	RC	2	0	15VC 08MC	1	0	0.682050943375	-226.0	280.0	-224	277	1
2.7	2015_May_08_1312	s	s	4	5	Capacity	15	ABS	1	0	08VC 16MC	0	1	1.15283107758	None	None	None	None	1
2.7	2015_May_08_1312	s	s	4	5	Capacity	16	RC	1	0	08VC 15MC	0	1	0.858690977097	164.0	-348.0	None	None	0
2.7	2015_May_08_1312	s	s	4	5	Capacity	17	ABS	1	0	08VC 16MC	0	1	1.3410820961	None	None	None	None	1
2.7	2015_May_08_1312	s	s	4	5	Capacity	18	ABS	2	0	16VC 08MC	0	1	1.38307785988	None	None	None	None	1
2.7	2015_May_08_1312	s	s	4	5	Capacity	19	RC	1	0	08VC 15MC	0	1	0.788018941879	-516.0	146.0	None	None	0
2.7	2015_May_08_1312	s	s	4	5	Capacity	20	RC	2	0	15VC 08MC	1	0	0.988102912903	480.0	327.0	492	334	1
2.7	2015_May_08_1312	s	s	4	5	Capacity	21	ABS	2	0	16VC 08MC	0	1	1.4207110405	None	None	None	None	1
2.7	2015_May_08_1312	s	s	4	5	Capacity	22	ABS	1	0	08VC 16MC	0	1	1.27058005333	None	None	None	None	1
2.7	2015_May_08_1312	s	s	4	5	Capacity	23	RC	1	0	08VC 15MC	1	0	0.735508918762	417.0	89.0	417	88	1
2.7	2015_May_08_1312	s	s	4	5	Capacity	24	RC	2	0	15VC 08MC	1	0	0.606459856033	422.0	139.0	422	137	1
2.7	2015_May_08_1312	s	s	4	5	Capacity	25	ABS	2	0	16VC 08MC	0	1	0.853672981262	None	None	None	None	1
2.7	2015_May_08_1312	s	s	4	5	Capacity	26	RC	2	0	15VC 08MC	1	0	0.771222114563	-295.0	-162.0	-287	-158	1
2.7	2015_May_08_1312	s	s	4	5	Capacity	27	RC	1	0	08VC 15MC	1	0	0.62340092659	-298.0	-319.0	-297	-320	1
2.7	2015_May_08_1312	s	s	4	5	Capacity	28	ABS	1	0	08VC 16MC	0	1	1.72963500023	None	None	None	None	1
2.7	2015_May_08_1312	s	s	4	5	Capacity	29	ABS	1	0	08VC 16MC	0	1	1.35983490944	None	None	None	None	1
2.7	2015_May_08_1312	s	s	4	5	Capacity	30	ABS	2	0	16VC 08MC	0	1	1.73699498177	None	None	None	None	1
2.7	2015_May_08_1312	s	s	4	5	Capacity	31	RC	2	0	15VC 08MC	1	0	0.547706127167	314.0	-137.0	317	-136	1
2.7	2015_May_08_1312	s	s	4	5	Capacity	32	RC	1	0	08VC 15MC	1	0	0.688347101212	-253.0	296.0	-254	284	1
2.7	2015_May_08_1312	s	s	4	5	Capacity	33	RC	2	0	15VC 08MC	1	0	0.514215946198	119.0	212.0	121	218	1
2.7	2015_May_08_1312	s	s	4	5	Capacity	34	ABS	1	0	08VC 16MC	0	1	0.935729980469	None	None	None	None	1
2.7	2015_May_08_1312	s	s	4	5	Capacity	35	ABS	2	0	16VC 08MC	0	1	1.04696989059	None	None	None	None	1
2.7	2015_May_08_1312	s	s	4	5	Capacity	36	RC	1	0	08VC 15MC	0	1	1.2705988884	365.0	-338.0	None	None	0
2.7	2015_May_08_1312	s	s	4	5	Capacity	37	RC	1	0	08VC 15MC	1	0	0.8350918293	-142.0	-353.0	-141	-355	1
2.7	2015_May_08_1312	s	s	4	5	Capacity	38	ABS	2	0	16VC 08MC	0	1	1.60855293274	None	None	None	None	1
2.7	2015_May_08_1312	s	s	4	5	Capacity	39	RC	2	0	15VC 08MC	1	0	1.01159095764	518.0	-220.0	520	-217	1
2.7	2015_May_08_1312	s	s	4	5	Capacity	40	ABS	1	0	08VC 16MC	0	1	1.71788215637	None	None	None	None	1
2.7	2015_May_08_1312	s	s	4	5	Capacity	41	RC	2	0	15VC 08MC	1	0	0.714759111404	-369.0	141.0	-377	135	1
2.7	2015_May_08_1312	s	s	4	5	Capacity	42	ABS	2	0	16VC 08MC	1	0	1.01774907112	None	None	-106	50	0
2.7	2015_May_08_1312	s	s	4	5	Capacity	43	ABS	1	0	08VC 16MC	0	1	1.60380101204	None	None	None	None	1
2.7	2015_May_08_1312	s	s	4	5	Capacity	44	RC	1	0	08VC 15MC	1	0	1.9620308876	174.0	-396.0	181	-402	1
2.7	2015_May_08_1312	s	s	4	5	Capacity	45	RC	2	0	15VC 08MC	1	0	0.788022994995	-329.0	-275.0	-325	-279	1
2.7	2015_May_08_1312	s	s	4	5	Capacity	46	ABS	2	0	16VC 08MC	0	1	1.20552110672	None	None	None	None	1
2.7	2015_May_08_1312	s	s	4	5	Capacity	47	RC	1	0	08VC 15MC	1	0	0.618273973465	-206.0	205.0	-207	211	1
2.7	2015_May_08_1312	s	s	4	5	Capacity	48	ABS	1	0	08VC 16MC	0	1	1.83244013786	None	None	None	None	1
2.7	2015_May_08_1312	s	s	4	5	Capacity	49	RC	2	0	15VC 08MC	1	0	0.729509115219	94.0	-152.0	100	-156	1
2.7	2015_May_08_1312	s	s	4	5	Capacity	50	ABS	1	0	08VC 16MC	0	1	1.67078018188	None	None	None	None	1
2.7	2015_May_08_1312	s	s	4	5	Capacity	51	ABS	2	0	16VC 08MC	0	1	2.34174895287	None	None	None	None	1
2.7	2015_May_08_1312	s	s	4	5	Capacity	52	RC	1	0	08VC 15MC	1	0	1.65388011932	319.0	-33.0	320	-34	1
2.7	2015_May_08_1312	s	s	4	5	Capacity	53	ABS	1	0	08VC 16MC	0	1	2.76601219177	None	None	None	None	1
2.7	2015_May_08_1312	s	s	4	5	Capacity	54	RC	1	0	08VC 15MC	1	0	0.628829956055	-43.0	-17.0	-44	-24	1
2.7	2015_May_08_1312	s	s	4	5	Capacity	55	RC	2	0	15VC 08MC	1	0	1.02340292931	-225.0	-272.0	-225	-268	1
2.7	2015_May_08_1312	s	s	4	5	Capacity	56	ABS	2	0	16VC 08MC	0	1	2.3127579689	None	None	None	None	1
2.7	2015_May_08_1312	s	s	4	5	Capacity	57	RC	2	0	15VC 08MC	1	0	0.558426856995	72.0	-101.0	76	-103	1
2.7	2015_May_08_1312	s	s	4	5	Capacity	58	ABS	2	0	16VC 08MC	0	1	2.76912808418	None	None	None	None	1
2.7	2015_May_08_1312	s	s	4	5	Capacity	59	ABS	1	0	08VC 16MC	0	1	2.89861798286	None	None	None	None	1
2.7	2015_May_08_1312	s	s	4	5	Capacity	60	RC	1	0	08VC 15MC	1	0	0.772000789642	-334.0	-325.0	-340	-326	1
2.7	2015_May_08_1312	s	s	4	5	Capacity	61	ABS	1	0	08VC 16MC	0	1	2.82434511185	None	None	None	None	1
2.7	2015_May_08_1312	s	s	4	5	Capacity	62	RC	2	0	15VC 08MC	1	0	0.900882959366	-201.0	306.0	-197	302	1
2.7	2015_May_08_1312	s	s	4	5	Capacity	63	RC	1	0	08VC 15MC	1	0	0.936052799225	415.0	153.0	424	162	1
2.7	2015_May_08_1312	s	s	4	5	Capacity	64	ABS	2	0	16VC 08MC	0	1	1.83550310135	None	None	None	None	1
2.7	2015_May_08_1312	s	s	4	5	SIC	1	ABS	1	1	02VD 02VO 02VC 02MD 10MO 02MC 02RD 02RO	0	1	1.49424791336	None	None	None	None	1
2.7	2015_May_08_1312	s	s	4	5	SIC	2	RC	2	1	02VD 09VO 02VC 02MD 02MO 02MC 02RD 02RO	1	0	1.19757413864	484.0	-271.0	492	-270	1
2.7	2015_May_08_1312	s	s	4	5	SIC	3	RC	1	1	02VD 02VO 02VC 02MD 09MO 02MC 02RD 02RO	1	0	0.771290063858	-174.0	-157.0	-182	-161	1
2.7	2015_May_08_1312	s	s	4	5	SIC	4	ABS	2	0	02VD 02VO 10VC 02MD 02MO 02MC 02RD 02RO	0	1	1.47063589096	None	None	None	None	1
2.7	2015_May_08_1312	s	s	4	5	SIC	5	ABS	2	2	10VD 02VO 02VC 02MD 02MO 02MC 02RD 02RO	0	1	1.53629803658	None	None	None	None	1
2.7	2015_May_08_1312	s	s	4	5	SIC	6	RC	1	2	02VD 02VO 02VC 09MD 02MO 02MC 02RD 02RO	1	0	0.84116601944	300.0	284.0	301	288	1
2.7	2015_May_08_1312	s	s	4	5	SIC	7	RC	2	0	02VD 02VO 09VC 02MD 02MO 02MC 02RD 02RO	1	0	0.658493995667	272.0	-309.0	271	-313	1
2.7	2015_May_08_1312	s	s	4	5	SIC	8	ABS	1	0	02VD 02VO 02VC 02MD 02MO 10MC 02RD 02RO	0	1	2.47712111473	None	None	None	None	1
2.7	2015_May_08_1312	s	s	4	5	SIC	9	ABS	1	2	02VD 02VO 02VC 10MD 02MO 02MC 02RD 02RO	0	1	1.57653999329	None	None	None	None	1
2.7	2015_May_08_1312	s	s	4	5	SIC	10	ABS	2	1	02VD 10VO 02VC 02MD 02MO 02MC 02RD 02RO	0	1	1.901720047	None	None	None	None	1
2.7	2015_May_08_1312	s	s	4	5	SIC	11	RC	0	1	02VD 02VO 02VC 02MD 02MO 02MC 02RD 09RO	1	0	2.39555501938	353.0	224.0	349	217	1
2.7	2015_May_08_1312	s	s	4	5	SIC	12	RC	1	0	02VD 02VO 02VC 02MD 02MO 09MC 02RD 02RO	1	0	1.38509297371	-6.0	311.0	-7	306	1
2.7	2015_May_08_1312	s	s	4	5	SIC	13	ABS	0	1	02VD 02VO 02VC 02MD 02MO 02MC 02RD 10RO	0	1	1.9036591053	None	None	None	None	1
2.7	2015_May_08_1312	s	s	4	5	SIC	14	RC	0	2	02VD 02VO 02VC 02MD 02MO 02MC 09RD 02RO	1	0	0.976378917694	-253.0	-333.0	-248	-324	1
2.7	2015_May_08_1312	s	s	4	5	SIC	15	RC	2	2	09VD 02VO 02VC 02MD 02MO 02MC 02RD 02RO	1	0	1.57661390305	427.0	70.0	426	74	1
2.7	2015_May_08_1312	s	s	4	5	SIC	16	ABS	0	2	02VD 02VO 02VC 02MD 02MO 02MC 10RD 02RO	0	1	2.06661295891	None	None	None	None	1
2.7	2015_May_08_1312	s	s	4	5	SIC	17	RC	2	2	09VD 02VO 02VC 02MD 02MO 02MC 02RD 02RO	1	0	1.19484806061	535.0	144.0	532	139	1
2.7	2015_May_08_1312	s	s	4	5	SIC	18	ABS	1	2	02VD 02VO 02VC 10MD 02MO 02MC 02RD 02RO	0	1	2.16515398026	None	None	None	None	1
2.7	2015_May_08_1312	s	s	4	5	SIC	19	RC	1	0	02VD 02VO 02VC 02MD 02MO 09MC 02RD 02RO	1	0	1.51280093193	151.0	390.0	145	397	1
2.7	2015_May_08_1312	s	s	4	5	SIC	20	RC	0	2	02VD 02VO 02VC 02MD 02MO 02MC 09RD 02RO	1	0	0.811617851257	-132.0	-343.0	-130	-351	1
2.7	2015_May_08_1312	s	s	4	5	SIC	21	ABS	2	0	02VD 02VO 10VC 02MD 02MO 02MC 02RD 02RO	0	1	1.70612502098	None	None	None	None	1
2.7	2015_May_08_1312	s	s	4	5	SIC	22	ABS	0	2	02VD 02VO 02VC 02MD 02MO 02MC 10RD 02RO	0	1	1.04236412048	None	None	None	None	1
2.7	2015_May_08_1312	s	s	4	5	SIC	23	ABS	2	2	10VD 02VO 02VC 02MD 02MO 02MC 02RD 02RO	0	1	1.94149279594	None	None	None	None	1
2.7	2015_May_08_1312	s	s	4	5	SIC	24	RC	1	2	02VD 02VO 02VC 09MD 02MO 02MC 02RD 02RO	1	0	0.838730096817	344.0	3.0	341	2	1
2.7	2015_May_08_1312	s	s	4	5	SIC	25	ABS	0	1	02VD 02VO 02VC 02MD 02MO 02MC 02RD 10RO	0	1	3.01257181168	None	None	None	None	1
2.7	2015_May_08_1312	s	s	4	5	SIC	26	ABS	1	1	02VD 02VO 02VC 02MD 10MO 02MC 02RD 02RO	0	1	1.91306495667	None	None	None	None	1
2.7	2015_May_08_1312	s	s	4	5	SIC	27	ABS	2	1	02VD 10VO 02VC 02MD 02MO 02MC 02RD 02RO	0	1	1.25363016129	None	None	None	None	1
2.7	2015_May_08_1312	s	s	4	5	SIC	28	RC	0	1	02VD 02VO 02VC 02MD 02MO 02MC 02RD 09RO	1	0	1.3239569664	407.0	17.0	413	15	1
2.7	2015_May_08_1312	s	s	4	5	SIC	29	RC	2	0	02VD 02VO 09VC 02MD 02MO 02MC 02RD 02RO	1	0	0.888833999634	292.0	-341.0	296	-334	1
2.7	2015_May_08_1312	s	s	4	5	SIC	30	RC	2	1	02VD 09VO 02VC 02MD 02MO 02MC 02RD 02RO	1	0	0.994844198227	-74.0	328.0	-71	330	1
2.7	2015_May_08_1312	s	s	4	5	SIC	31	RC	1	1	02VD 02VO 02VC 02MD 09MO 02MC 02RD 02RO	1	0	1.54984211922	271.0	363.0	271	356	1
2.7	2015_May_08_1312	s	s	4	5	SIC	32	ABS	1	0	02VD 02VO 02VC 02MD 02MO 10MC 02RD 02RO	0	1	2.67127895355	None	None	None	None	1
2.7	2015_May_08_1312	s	s	4	5	SIC	33	ABS	1	1	02VD 02VO 02VC 02MD 10MO 02MC 02RD 02RO	0	1	1.58842206001	None	None	None	None	1
2.7	2015_May_08_1312	s	s	4	5	SIC	34	ABS	1	2	02VD 02VO 02VC 10MD 02MO 02MC 02RD 02RO	0	1	1.2893781662	None	None	None	None	1
2.7	2015_May_08_1312	s	s	4	5	SIC	35	RC	1	1	02VD 02VO 02VC 02MD 09MO 02MC 02RD 02RO	1	0	1.07048010826	95.0	-396.0	95	-402	1
2.7	2015_May_08_1312	s	s	4	5	SIC	36	RC	1	2	02VD 02VO 02VC 09MD 02MO 02MC 02RD 02RO	1	0	0.882272958755	-470.0	-401.0	-469	-403	1
2.7	2015_May_08_1312	s	s	4	5	SIC	37	RC	1	0	02VD 02VO 02VC 02MD 02MO 09MC 02RD 02RO	1	0	0.724543094635	-19.0	-106.0	-20	-107	1
2.7	2015_May_08_1312	s	s	4	5	SIC	38	ABS	0	2	02VD 02VO 02VC 02MD 02MO 02MC 10RD 02RO	0	1	1.87816596031	None	None	None	None	1
2.7	2015_May_08_1312	s	s	4	5	SIC	39	ABS	2	0	02VD 02VO 10VC 02MD 02MO 02MC 02RD 02RO	0	1	1.88000011444	None	None	None	None	1
2.7	2015_May_08_1312	s	s	4	5	SIC	40	RC	2	2	09VD 02VO 02VC 02MD 02MO 02MC 02RD 02RO	1	0	0.658527851105	-193.0	-347.0	-196	-347	1
2.7	2015_May_08_1312	s	s	4	5	SIC	41	ABS	0	1	02VD 02VO 02VC 02MD 02MO 02MC 02RD 10RO	0	1	2.45934891701	None	None	None	None	1
2.7	2015_May_08_1312	s	s	4	5	SIC	42	RC	2	0	02VD 02VO 09VC 02MD 02MO 02MC 02RD 02RO	1	0	0.688632011414	111.0	75.0	115	80	1
2.7	2015_May_08_1312	s	s	4	5	SIC	43	ABS	2	2	10VD 02VO 02VC 02MD 02MO 02MC 02RD 02RO	0	1	1.61189603806	None	None	None	None	1
2.7	2015_May_08_1312	s	s	4	5	SIC	44	RC	2	1	02VD 09VO 02VC 02MD 02MO 02MC 02RD 02RO	1	0	1.14743804932	-496.0	111.0	-498	114	1
2.7	2015_May_08_1312	s	s	4	5	SIC	45	ABS	1	0	02VD 02VO 02VC 02MD 02MO 10MC 02RD 02RO	0	1	1.05920100212	None	None	None	None	1
2.7	2015_May_08_1312	s	s	4	5	SIC	46	RC	0	2	02VD 02VO 02VC 02MD 02MO 02MC 09RD 02RO	1	0	1.57171392441	347.0	-47.0	351	-60	1
2.7	2015_May_08_1312	s	s	4	5	SIC	47	ABS	2	1	02VD 10VO 02VC 02MD 02MO 02MC 02RD 02RO	0	1	1.44712591171	None	None	None	None	1
2.7	2015_May_08_1312	s	s	4	5	SIC	48	RC	0	1	02VD 02VO 02VC 02MD 02MO 02MC 02RD 09RO	1	0	0.85152888298	-230.0	181.0	-237	188	1
2.7	2015_May_08_1312	s	s	4	5	SIC	49	ABS	1	0	02VD 02VO 02VC 02MD 02MO 10MC 02RD 02RO	0	1	1.75959300995	None	None	None	None	1
2.7	2015_May_08_1312	s	s	4	5	SIC	50	RC	2	2	09VD 02VO 02VC 02MD 02MO 02MC 02RD 02RO	1	0	1.44209504128	-185.0	-235.0	-182	-237	1
2.7	2015_May_08_1312	s	s	4	5	SIC	51	ABS	2	2	10VD 02VO 02VC 02MD 02MO 02MC 02RD 02RO	0	1	1.87997579575	None	None	None	None	1
2.7	2015_May_08_1312	s	s	4	5	SIC	52	ABS	1	2	02VD 02VO 02VC 10MD 02MO 02MC 02RD 02RO	0	1	1.91795301437	None	None	None	None	1
2.7	2015_May_08_1312	s	s	4	5	SIC	53	RC	1	2	02VD 02VO 02VC 09MD 02MO 02MC 02RD 02RO	1	0	0.796584129333	-302.0	-159.0	-299	-163	1
2.7	2015_May_08_1312	s	s	4	5	SIC	54	RC	1	0	02VD 02VO 02VC 02MD 02MO 09MC 02RD 02RO	1	0	2.19551682472	391.0	-154.0	392	-163	1
2.7	2015_May_08_1312	s	s	4	5	SIC	55	ABS	2	0	02VD 02VO 10VC 02MD 02MO 02MC 02RD 02RO	0	1	1.71300601959	None	None	None	None	1
2.7	2015_May_08_1312	s	s	4	5	SIC	56	RC	0	1	02VD 02VO 02VC 02MD 02MO 02MC 02RD 09RO	1	0	2.21226000786	105.0	-298.0	104	-306	1
2.7	2015_May_08_1312	s	s	4	5	SIC	57	RC	2	0	02VD 02VO 09VC 02MD 02MO 02MC 02RD 02RO	1	0	0.893952846527	167.0	-368.0	172	-365	1
2.7	2015_May_08_1312	s	s	4	5	SIC	58	RC	0	2	02VD 02VO 02VC 02MD 02MO 02MC 09RD 02RO	1	0	1.60016894341	-398.0	-81.0	-399	-80	1
2.7	2015_May_08_1312	s	s	4	5	SIC	59	ABS	0	2	02VD 02VO 02VC 02MD 02MO 02MC 10RD 02RO	0	1	1.51827216148	None	None	None	None	1
2.7	2015_May_08_1312	s	s	4	5	SIC	60	ABS	0	1	02VD 02VO 02VC 02MD 02MO 02MC 02RD 10RO	0	1	3.03610610962	None	None	None	None	1
2.7	2015_May_08_1312	s	s	4	5	SIC	61	ABS	2	1	02VD 10VO 02VC 02MD 02MO 02MC 02RD 02RO	0	1	1.4118449688	None	None	None	None	1
2.7	2015_May_08_1312	s	s	4	5	SIC	62	RC	1	1	02VD 02VO 02VC 02MD 09MO 02MC 02RD 02RO	1	0	1.23149704933	-537.0	-174.0	-531	-169	1
2.7	2015_May_08_1312	s	s	4	5	SIC	63	RC	2	1	02VD 09VO 02VC 02MD 02MO 02MC 02RD 02RO	1	0	1.06548881531	26.0	-405.0	29	-402	1
2.7	2015_May_08_1312	s	s	4	5	SIC	64	ABS	1	1	02VD 02VO 02VC 02MD 10MO 02MC 02RD 02RO	0	1	1.67121100426	None	None	None	None	1
2.7	2015_May_08_1312	s	s	4	5	SIC	65	ABS	1	2	02VD 02VO 02VC 10MD 02MO 02MC 02RD 02RO	0	1	1.24700784683	None	None	None	None	1
2.7	2015_May_08_1312	s	s	4	5	SIC	66	RC	2	1	02VD 09VO 02VC 02MD 02MO 02MC 02RD 02RO	1	0	0.882155179977	237.0	102.0	238	112	1
2.7	2015_May_08_1312	s	s	4	5	SIC	67	RC	1	2	02VD 02VO 02VC 09MD 02MO 02MC 02RD 02RO	1	0	0.865242004395	-7.0	-77.0	-12	-83	1
2.7	2015_May_08_1312	s	s	4	5	SIC	68	ABS	1	1	02VD 02VO 02VC 02MD 10MO 02MC 02RD 02RO	0	1	1.80834579468	None	None	None	None	1
2.7	2015_May_08_1312	s	s	4	5	SIC	69	RC	2	2	09VD 02VO 02VC 02MD 02MO 02MC 02RD 02RO	1	0	0.867964982986	293.0	-172.0	286	-179	1
2.7	2015_May_08_1312	s	s	4	5	SIC	70	ABS	2	2	10VD 02VO 02VC 02MD 02MO 02MC 02RD 02RO	0	1	2.0777759552	None	None	None	None	1
2.7	2015_May_08_1312	s	s	4	5	SIC	71	RC	0	1	02VD 02VO 02VC 02MD 02MO 02MC 02RD 09RO	0	1	3.80806303024	-506.0	-204.0	None	None	0
2.7	2015_May_08_1312	s	s	4	5	SIC	72	ABS	2	1	02VD 10VO 02VC 02MD 02MO 02MC 02RD 02RO	0	1	1.26511788368	None	None	None	None	1
2.7	2015_May_08_1312	s	s	4	5	SIC	73	RC	1	0	02VD 02VO 02VC 02MD 02MO 09MC 02RD 02RO	1	0	0.983201026917	159.0	-410.0	157	-408	1
2.7	2015_May_08_1312	s	s	4	5	SIC	74	RC	2	0	02VD 02VO 09VC 02MD 02MO 02MC 02RD 02RO	1	0	0.835031032562	-273.0	-237.0	-276	-248	1
2.7	2015_May_08_1312	s	s	4	5	SIC	75	ABS	2	0	02VD 02VO 10VC 02MD 02MO 02MC 02RD 02RO	0	1	1.91556978226	None	None	None	None	1
2.7	2015_May_08_1312	s	s	4	5	SIC	76	ABS	0	1	02VD 02VO 02VC 02MD 02MO 02MC 02RD 10RO	0	1	3.24817490578	None	None	None	None	1
2.7	2015_May_08_1312	s	s	4	5	SIC	77	ABS	1	0	02VD 02VO 02VC 02MD 02MO 10MC 02RD 02RO	0	1	1.72643899918	None	None	None	None	1
2.7	2015_May_08_1312	s	s	4	5	SIC	78	RC	0	2	02VD 02VO 02VC 02MD 02MO 02MC 09RD 02RO	1	0	0.747544050217	52.0	92.0	57	90	1
2.7	2015_May_08_1312	s	s	4	5	SIC	79	RC	1	1	02VD 02VO 02VC 02MD 09MO 02MC 02RD 02RO	1	0	0.819816112518	253.0	102.0	253	97	1
2.7	2015_May_08_1312	s	s	4	5	SIC	80	ABS	0	2	02VD 02VO 02VC 02MD 02MO 02MC 10RD 02RO	0	1	2.53609895706	None	None	None	None	1
2.7	2015_May_08_1312	s	s	4	5	SIC	81	RC	1	2	02VD 02VO 02VC 09MD 02MO 02MC 02RD 02RO	1	0	1.34939980507	-41.0	122.0	-41	123	1
2.7	2015_May_08_1312	s	s	4	5	SIC	82	ABS	2	2	10VD 02VO 02VC 02MD 02MO 02MC 02RD 02RO	0	1	2.235850811	None	None	None	None	1
2.7	2015_May_08_1312	s	s	4	5	SIC	83	ABS	1	1	02VD 02VO 02VC 02MD 10MO 02MC 02RD 02RO	0	1	1.93655610085	None	None	None	None	1
2.7	2015_May_08_1312	s	s	4	5	SIC	84	RC	0	2	02VD 02VO 02VC 02MD 02MO 02MC 09RD 02RO	1	0	0.631458044052	-265.0	-359.0	-266	-357	1
2.7	2015_May_08_1312	s	s	4	5	SIC	85	ABS	0	1	02VD 02VO 02VC 02MD 02MO 02MC 02RD 10RO	0	1	3.59550213814	None	None	None	None	1
2.7	2015_May_08_1312	s	s	4	5	SIC	86	RC	2	2	09VD 02VO 02VC 02MD 02MO 02MC 02RD 02RO	1	0	2.06663107872	-388.0	-34.0	-383	-32	1
2.7	2015_May_08_1312	s	s	4	5	SIC	87	ABS	2	0	02VD 02VO 10VC 02MD 02MO 02MC 02RD 02RO	0	1	1.71781492233	None	None	None	None	1
2.7	2015_May_08_1312	s	s	4	5	SIC	88	ABS	1	0	02VD 02VO 02VC 02MD 02MO 10MC 02RD 02RO	0	1	3.25483107567	None	None	None	None	1
2.7	2015_May_08_1312	s	s	4	5	SIC	89	RC	1	1	02VD 02VO 02VC 02MD 09MO 02MC 02RD 02RO	1	0	0.623116970062	-172.0	-139.0	-172	-132	1
2.7	2015_May_08_1312	s	s	4	5	SIC	90	ABS	2	1	02VD 10VO 02VC 02MD 02MO 02MC 02RD 02RO	0	1	1.73637294769	None	None	None	None	1
2.7	2015_May_08_1312	s	s	4	5	SIC	91	RC	2	1	02VD 09VO 02VC 02MD 02MO 02MC 02RD 02RO	1	0	0.900650978088	264.0	-222.0	265	-221	1
2.7	2015_May_08_1312	s	s	4	5	SIC	92	ABS	1	2	02VD 02VO 02VC 10MD 02MO 02MC 02RD 02RO	0	1	1.68624091148	None	None	None	None	1
2.7	2015_May_08_1312	s	s	4	5	SIC	93	ABS	0	2	02VD 02VO 02VC 02MD 02MO 02MC 10RD 02RO	0	1	1.76009988785	None	None	None	None	1
2.7	2015_May_08_1312	s	s	4	5	SIC	94	RC	0	1	02VD 02VO 02VC 02MD 02MO 02MC 02RD 09RO	1	0	2.93932008743	-524.0	-3.0	-522	0	1
2.7	2015_May_08_1312	s	s	4	5	SIC	95	RC	2	0	02VD 02VO 09VC 02MD 02MO 02MC 02RD 02RO	1	0	1.30591106415	-493.0	61.0	-491	63	1
2.7	2015_May_08_1312	s	s	4	5	SIC	96	RC	1	0	02VD 02VO 02VC 02MD 02MO 09MC 02RD 02RO	1	0	0.877286911011	73.0	-177.0	73	-176	1
2.7	2015_May_08_1312	s	s	4	5	SIC	97	RC	2	0	02VD 02VO 09VC 02MD 02MO 02MC 02RD 02RO	1	0	1.7952299118	-66.0	-292.0	-58	-294	1
2.7	2015_May_08_1312	s	s	4	5	SIC	98	ABS	1	0	02VD 02VO 02VC 02MD 02MO 10MC 02RD 02RO	0	1	3.59855699539	None	None	None	None	1
2.7	2015_May_08_1312	s	s	4	5	SIC	99	RC	0	1	02VD 02VO 02VC 02MD 02MO 02MC 02RD 09RO	1	0	0.900729894638	-158.0	-306.0	-161	-319	1
2.7	2015_May_08_1312	s	s	4	5	SIC	100	ABS	1	2	02VD 02VO 02VC 10MD 02MO 02MC 02RD 02RO	0	1	2.2240190506	None	None	None	None	1
2.7	2015_May_08_1312	s	s	4	5	SIC	101	ABS	2	0	02VD 02VO 10VC 02MD 02MO 02MC 02RD 02RO	0	1	1.70114302635	None	None	None	None	1
2.7	2015_May_08_1312	s	s	4	5	SIC	102	RC	2	2	09VD 02VO 02VC 02MD 02MO 02MC 02RD 02RO	1	0	1.81884002686	-538.0	-164.0	-537	-161	1
2.7	2015_May_08_1312	s	s	4	5	SIC	103	ABS	2	1	02VD 10VO 02VC 02MD 02MO 02MC 02RD 02RO	0	1	2.93686890602	None	None	None	None	1
2.7	2015_May_08_1312	s	s	4	5	SIC	104	ABS	1	1	02VD 02VO 02VC 02MD 10MO 02MC 02RD 02RO	0	1	1.89480018616	None	None	None	None	1
2.7	2015_May_08_1312	s	s	4	5	SIC	105	ABS	0	2	02VD 02VO 02VC 02MD 02MO 02MC 10RD 02RO	0	1	1.76540088654	None	None	None	None	1
2.7	2015_May_08_1312	s	s	4	5	SIC	106	RC	1	2	02VD 02VO 02VC 09MD 02MO 02MC 02RD 02RO	1	0	2.36531400681	267.0	333.0	267	339	1
2.7	2015_May_08_1312	s	s	4	5	SIC	107	ABS	2	2	10VD 02VO 02VC 02MD 02MO 02MC 02RD 02RO	0	1	2.10677409172	None	None	None	None	1
2.7	2015_May_08_1312	s	s	4	5	SIC	108	RC	2	1	02VD 09VO 02VC 02MD 02MO 02MC 02RD 02RO	1	0	1.20612096786	-189.0	367.0	-193	368	1
2.7	2015_May_08_1312	s	s	4	5	SIC	109	RC	1	0	02VD 02VO 02VC 02MD 02MO 09MC 02RD 02RO	1	0	1.5529191494	-396.0	-144.0	-393	-141	1
2.7	2015_May_08_1312	s	s	4	5	SIC	110	ABS	0	1	02VD 02VO 02VC 02MD 02MO 02MC 02RD 10RO	0	1	3.70226693153	None	None	None	None	1
2.7	2015_May_08_1312	s	s	4	5	SIC	111	RC	1	1	02VD 02VO 02VC 02MD 09MO 02MC 02RD 02RO	1	0	0.999886035919	-51.0	-132.0	-56	-125	1
2.7	2015_May_08_1312	s	s	4	5	SIC	112	RC	0	2	02VD 02VO 02VC 02MD 02MO 02MC 09RD 02RO	1	0	1.79532289505	30.0	363.0	27	371	1
2.7	2015_May_08_1312	s	s	4	5	SIC	113	ABS	0	2	02VD 02VO 02VC 02MD 02MO 02MC 10RD 02RO	0	1	1.6186671257	None	None	None	None	1
2.7	2015_May_08_1312	s	s	4	5	SIC	114	ABS	2	2	10VD 02VO 02VC 02MD 02MO 02MC 02RD 02RO	0	1	1.44197821617	None	None	None	None	1
2.7	2015_May_08_1312	s	s	4	5	SIC	115	RC	1	0	02VD 02VO 02VC 02MD 02MO 09MC 02RD 02RO	1	0	1.79535698891	-420.0	-137.0	-408	-136	1
2.7	2015_May_08_1312	s	s	4	5	SIC	116	RC	2	1	02VD 09VO 02VC 02MD 02MO 02MC 02RD 02RO	1	0	1.06584596634	-352.0	58.0	-344	61	1
2.7	2015_May_08_1312	s	s	4	5	SIC	117	RC	2	2	09VD 02VO 02VC 02MD 02MO 02MC 02RD 02RO	1	0	0.477486848831	-58.0	-8.0	-55	-14	1
2.7	2015_May_08_1312	s	s	4	5	SIC	118	ABS	2	1	02VD 10VO 02VC 02MD 02MO 02MC 02RD 02RO	0	1	2.02391815186	None	None	None	None	1
2.7	2015_May_08_1312	s	s	4	5	SIC	119	RC	0	2	02VD 02VO 02VC 02MD 02MO 02MC 09RD 02RO	1	0	2.2191619873	120.0	376.0	123	377	1
2.7	2015_May_08_1312	s	s	4	5	SIC	120	RC	1	1	02VD 02VO 02VC 02MD 09MO 02MC 02RD 02RO	1	0	1.37405109406	445.0	-298.0	454	-297	1
2.7	2015_May_08_1312	s	s	4	5	SIC	121	ABS	2	0	02VD 02VO 10VC 02MD 02MO 02MC 02RD 02RO	0	1	2.1241710186	None	None	None	None	1
2.7	2015_May_08_1312	s	s	4	5	SIC	122	RC	1	2	02VD 02VO 02VC 09MD 02MO 02MC 02RD 02RO	1	0	1.89184713364	-444.0	-50.0	-438	-51	1
2.7	2015_May_08_1312	s	s	4	5	SIC	123	ABS	1	2	02VD 02VO 02VC 10MD 02MO 02MC 02RD 02RO	0	1	1.97168111801	None	None	None	None	1
2.7	2015_May_08_1312	s	s	4	5	SIC	124	RC	2	0	02VD 02VO 09VC 02MD 02MO 02MC 02RD 02RO	1	0	0.524202108383	177.0	-4.0	183	-4	1
2.7	2015_May_08_1312	s	s	4	5	SIC	125	ABS	1	1	02VD 02VO 02VC 02MD 10MO 02MC 02RD 02RO	0	1	3.13708996773	None	None	None	None	1
2.7	2015_May_08_1312	s	s	4	5	SIC	126	ABS	0	1	02VD 02VO 02VC 02MD 02MO 02MC 02RD 10RO	0	1	3.19603395462	None	None	None	None	1
2.7	2015_May_08_1312	s	s	4	5	SIC	127	RC	0	1	02VD 02VO 02VC 02MD 02MO 02MC 02RD 09RO	1	0	2.20715689659	234.0	180.0	239	183	1
2.7	2015_May_08_1312	s	s	4	5	SIC	128	ABS	1	0	02VD 02VO 02VC 02MD 02MO 10MC 02RD 02RO	0	1	1.93550395966	None	None	None	None	1
2.7	2015_May_08_1312	s	s	4	5	SIC	129	RC	1	2	02VD 02VO 02VC 09MD 02MO 02MC 02RD 02RO	1	0	0.878566980362	-463.0	-131.0	-472	-134	1
2.7	2015_May_08_1312	s	s	4	5	SIC	130	RC	0	1	02VD 02VO 02VC 02MD 02MO 02MC 02RD 09RO	1	0	0.811490058899	274.0	213.0	269	208	1
2.7	2015_May_08_1312	s	s	4	5	SIC	131	ABS	1	2	02VD 02VO 02VC 10MD 02MO 02MC 02RD 02RO	0	1	1.78849887848	None	None	None	None	1
2.7	2015_May_08_1312	s	s	4	5	SIC	132	RC	2	2	09VD 02VO 02VC 02MD 02MO 02MC 02RD 02RO	1	0	0.652807950974	-142.0	-107.0	-142	-106	1
2.7	2015_May_08_1312	s	s	4	5	SIC	133	RC	1	0	02VD 02VO 02VC 02MD 02MO 09MC 02RD 02RO	1	0	1.01858305931	-449.0	-128.0	-456	-129	1
2.7	2015_May_08_1312	s	s	4	5	SIC	134	RC	0	2	02VD 02VO 02VC 02MD 02MO 02MC 09RD 02RO	1	0	1.6664249897	46.0	371.0	53	371	1
2.7	2015_May_08_1312	s	s	4	5	SIC	135	ABS	0	2	02VD 02VO 02VC 02MD 02MO 02MC 10RD 02RO	0	1	1.65900301933	None	None	None	None	1
2.7	2015_May_08_1312	s	s	4	5	SIC	136	RC	2	1	02VD 09VO 02VC 02MD 02MO 02MC 02RD 02RO	1	0	1.00041890144	-361.0	-317.0	-360	-312	1
2.7	2015_May_08_1312	s	s	4	5	SIC	137	ABS	2	1	02VD 10VO 02VC 02MD 02MO 02MC 02RD 02RO	0	1	2.38380599022	None	None	None	None	1
2.7	2015_May_08_1312	s	s	4	5	SIC	138	ABS	2	0	02VD 02VO 10VC 02MD 02MO 02MC 02RD 02RO	0	1	1.85912179947	None	None	None	None	1
2.7	2015_May_08_1312	s	s	4	5	SIC	139	ABS	2	2	10VD 02VO 02VC 02MD 02MO 02MC 02RD 02RO	0	1	1.64718103409	None	None	None	None	1
2.7	2015_May_08_1312	s	s	4	5	SIC	140	RC	2	0	02VD 02VO 09VC 02MD 02MO 02MC 02RD 02RO	1	0	1.1646490097	215.0	-285.0	218	-281	1
2.7	2015_May_08_1312	s	s	4	5	SIC	141	ABS	1	1	02VD 02VO 02VC 02MD 10MO 02MC 02RD 02RO	0	1	1.59530305862	None	None	None	None	1
2.7	2015_May_08_1312	s	s	4	5	SIC	142	RC	1	1	02VD 02VO 02VC 02MD 09MO 02MC 02RD 02RO	1	0	0.976329088211	88.0	151.0	92	147	1
2.7	2015_May_08_1312	s	s	4	5	SIC	143	ABS	1	0	02VD 02VO 02VC 02MD 02MO 10MC 02RD 02RO	0	1	2.30646300316	None	None	None	None	1
2.7	2015_May_08_1312	s	s	4	5	SIC	144	ABS	0	1	02VD 02VO 02VC 02MD 02MO 02MC 02RD 10RO	0	1	3.49037599564	None	None	None	None	1
2.7	2015_May_08_1312	s	s	4	5	SIC	145	ABS	0	2	02VD 02VO 02VC 02MD 02MO 02MC 10RD 02RO	0	1	3.20094704628	None	None	None	None	1
2.7	2015_May_08_1312	s	s	4	5	SIC	146	RC	2	2	09VD 02VO 02VC 02MD 02MO 02MC 02RD 02RO	1	0	1.12544202805	-498.0	218.0	-494	214	1
2.7	2015_May_08_1312	s	s	4	5	SIC	147	ABS	1	2	02VD 02VO 02VC 10MD 02MO 02MC 02RD 02RO	0	1	1.18815684319	None	None	None	None	1
2.7	2015_May_08_1312	s	s	4	5	SIC	148	RC	2	0	02VD 02VO 09VC 02MD 02MO 02MC 02RD 02RO	1	0	0.835070848465	-343.0	48.0	-356	56	1
2.7	2015_May_08_1312	s	s	4	5	SIC	149	ABS	1	0	02VD 02VO 02VC 02MD 02MO 10MC 02RD 02RO	0	1	2.47858119011	None	None	None	None	1
2.7	2015_May_08_1312	s	s	4	5	SIC	150	RC	0	1	02VD 02VO 02VC 02MD 02MO 02MC 02RD 09RO	1	0	1.08230090141	470.0	-279.0	469	-277	1
2.7	2015_May_08_1312	s	s	4	5	SIC	151	ABS	2	1	02VD 10VO 02VC 02MD 02MO 02MC 02RD 02RO	0	1	2.08952689171	None	None	None	None	1
2.7	2015_May_08_1312	s	s	4	5	SIC	152	ABS	1	1	02VD 02VO 02VC 02MD 10MO 02MC 02RD 02RO	0	1	1.9017791748	None	None	None	None	1
2.7	2015_May_08_1312	s	s	4	5	SIC	153	RC	1	1	02VD 02VO 02VC 02MD 09MO 02MC 02RD 02RO	1	0	1.13844609261	354.0	46.0	349	46	1
2.7	2015_May_08_1312	s	s	4	5	SIC	154	RC	2	1	02VD 09VO 02VC 02MD 02MO 02MC 02RD 02RO	1	0	1.43134307861	422.0	181.0	422	179	1
2.7	2015_May_08_1312	s	s	4	5	SIC	155	ABS	0	1	02VD 02VO 02VC 02MD 02MO 02MC 02RD 10RO	0	1	3.17745995522	None	None	None	None	1
2.7	2015_May_08_1312	s	s	4	5	SIC	156	RC	1	0	02VD 02VO 02VC 02MD 02MO 09MC 02RD 02RO	1	0	1.4471449852	-289.0	190.0	-296	190	1
2.7	2015_May_08_1312	s	s	4	5	SIC	157	ABS	2	2	10VD 02VO 02VC 02MD 02MO 02MC 02RD 02RO	0	1	1.7531709671	None	None	None	None	1
2.7	2015_May_08_1312	s	s	4	5	SIC	158	RC	0	2	02VD 02VO 02VC 02MD 02MO 02MC 09RD 02RO	1	0	0.973443984985	233.0	-26.0	242	-24	1
2.7	2015_May_08_1312	s	s	4	5	SIC	159	ABS	2	0	02VD 02VO 10VC 02MD 02MO 02MC 02RD 02RO	0	1	1.59752011299	None	None	None	None	1
2.7	2015_May_08_1312	s	s	4	5	SIC	160	RC	1	2	02VD 02VO 02VC 09MD 02MO 02MC 02RD 02RO	1	0	0.982825040817	441.0	294.0	448	288	1
2.7	2015_May_08_1312	s	s	4	5	SIC	161	ABS	1	0	02VD 02VO 02VC 02MD 02MO 10MC 02RD 02RO	0	1	2.17116808891	None	None	None	None	1
2.7	2015_May_08_1312	s	s	4	5	SIC	162	RC	0	1	02VD 02VO 02VC 02MD 02MO 02MC 02RD 09RO	1	0	1.26526880264	-32.0	-266.0	-31	-269	1
2.7	2015_May_08_1312	s	s	4	5	SIC	163	ABS	2	0	02VD 02VO 10VC 02MD 02MO 02MC 02RD 02RO	0	1	1.84465289116	None	None	None	None	1
2.7	2015_May_08_1312	s	s	4	5	SIC	164	RC	1	2	02VD 02VO 02VC 09MD 02MO 02MC 02RD 02RO	1	0	0.693853139877	-208.0	128.0	-206	134	1
2.7	2015_May_08_1312	s	s	4	5	SIC	165	RC	2	1	02VD 09VO 02VC 02MD 02MO 02MC 02RD 02RO	1	0	1.65549993515	301.0	316.0	296	310	1
2.7	2015_May_08_1312	s	s	4	5	SIC	166	ABS	0	1	02VD 02VO 02VC 02MD 02MO 02MC 02RD 10RO	0	1	4.27866005898	None	None	None	None	1
2.7	2015_May_08_1312	s	s	4	5	SIC	167	RC	1	1	02VD 02VO 02VC 02MD 09MO 02MC 02RD 02RO	1	0	1.22100090981	492.0	-366.0	501	-366	1
2.7	2015_May_08_1312	s	s	4	5	SIC	168	RC	2	2	09VD 02VO 02VC 02MD 02MO 02MC 02RD 02RO	1	0	2.81936979294	-431.0	-45.0	-430	-40	1
2.7	2015_May_08_1312	s	s	4	5	SIC	169	RC	1	0	02VD 02VO 02VC 02MD 02MO 09MC 02RD 02RO	1	0	1.86525392532	111.0	326.0	117	330	1
2.7	2015_May_08_1312	s	s	4	5	SIC	170	ABS	2	2	10VD 02VO 02VC 02MD 02MO 02MC 02RD 02RO	0	1	2.41275691986	None	None	None	None	1
2.7	2015_May_08_1312	s	s	4	5	SIC	171	ABS	1	1	02VD 02VO 02VC 02MD 10MO 02MC 02RD 02RO	0	1	2.47124910355	None	None	None	None	1
2.7	2015_May_08_1312	s	s	4	5	SIC	172	RC	0	2	02VD 02VO 02VC 02MD 02MO 02MC 09RD 02RO	1	0	2.45946717262	449.0	146.0	452	152	1
2.7	2015_May_08_1312	s	s	4	5	SIC	173	ABS	2	1	02VD 10VO 02VC 02MD 02MO 02MC 02RD 02RO	0	1	1.92733001709	None	None	None	None	1
2.7	2015_May_08_1312	s	s	4	5	SIC	174	RC	2	0	02VD 02VO 09VC 02MD 02MO 02MC 02RD 02RO	1	0	0.876674175262	-312.0	-353.0	-314	-355	1
2.7	2015_May_08_1312	s	s	4	5	SIC	175	ABS	1	2	02VD 02VO 02VC 10MD 02MO 02MC 02RD 02RO	0	1	1.88996601105	None	None	None	None	1
2.7	2015_May_08_1312	s	s	4	5	SIC	176	ABS	0	2	02VD 02VO 02VC 02MD 02MO 02MC 10RD 02RO	0	1	2.07787704468	None	None	None	None	1
2.7	2015_May_08_1312	s	s	4	5	SIC	177	ABS	1	1	02VD 02VO 02VC 02MD 10MO 02MC 02RD 02RO	0	1	2.09473204613	None	None	None	None	1
2.7	2015_May_08_1312	s	s	4	5	SIC	178	ABS	2	1	02VD 10VO 02VC 02MD 02MO 02MC 02RD 02RO	0	1	1.97174310684	None	None	None	None	1
2.7	2015_May_08_1312	s	s	4	5	SIC	179	RC	1	2	02VD 02VO 02VC 09MD 02MO 02MC 02RD 02RO	1	0	4.95479297638	520.0	321.0	512	326	1
2.7	2015_May_08_1312	s	s	4	5	SIC	180	RC	1	0	02VD 02VO 02VC 02MD 02MO 09MC 02RD 02RO	1	0	1.30571579933	273.0	-348.0	264	-346	1
2.7	2015_May_08_1312	s	s	4	5	SIC	181	ABS	0	1	02VD 02VO 02VC 02MD 02MO 02MC 02RD 10RO	0	1	2.92693996429	None	None	None	None	1
2.7	2015_May_08_1312	s	s	4	5	SIC	182	ABS	1	0	02VD 02VO 02VC 02MD 02MO 10MC 02RD 02RO	0	1	2.80784082413	None	None	None	None	1
2.7	2015_May_08_1312	s	s	4	5	SIC	183	RC	0	1	02VD 02VO 02VC 02MD 02MO 02MC 02RD 09RO	1	0	1.57146000862	-334.0	-403.0	-327	-408	1
2.7	2015_May_08_1312	s	s	4	5	SIC	184	ABS	2	2	10VD 02VO 02VC 02MD 02MO 02MC 02RD 02RO	0	1	2.73008513451	None	None	None	None	1
2.7	2015_May_08_1312	s	s	4	5	SIC	185	ABS	2	0	02VD 02VO 10VC 02MD 02MO 02MC 02RD 02RO	0	1	1.62043380737	None	None	None	None	1
2.7	2015_May_08_1312	s	s	4	5	SIC	186	RC	0	2	02VD 02VO 02VC 02MD 02MO 02MC 09RD 02RO	1	0	1.35974097252	0.0	162.0	8	165	1
2.7	2015_May_08_1312	s	s	4	5	SIC	187	RC	1	1	02VD 02VO 02VC 02MD 09MO 02MC 02RD 02RO	1	0	1.03071403503	524.0	-247.0	525	-244	1
2.7	2015_May_08_1312	s	s	4	5	SIC	188	ABS	1	2	02VD 02VO 02VC 10MD 02MO 02MC 02RD 02RO	0	1	1.74144697189	None	None	None	None	1
2.7	2015_May_08_1312	s	s	4	5	SIC	189	ABS	0	2	02VD 02VO 02VC 02MD 02MO 02MC 10RD 02RO	0	1	1.99522590637	None	None	None	None	1
2.7	2015_May_08_1312	s	s	4	5	SIC	190	RC	2	2	09VD 02VO 02VC 02MD 02MO 02MC 02RD 02RO	1	0	1.33855009079	164.0	317.0	164	320	1
2.7	2015_May_08_1312	s	s	4	5	SIC	191	RC	2	1	02VD 09VO 02VC 02MD 02MO 02MC 02RD 02RO	1	0	0.646734952927	137.0	-106.0	143	-104	1
2.7	2015_May_08_1312	s	s	4	5	SIC	192	RC	2	0	02VD 02VO 09VC 02MD 02MO 02MC 02RD 02RO	1	0	0.829989910126	-187.0	352.0	-187	353	1
2.7	2015_May_08_1312	s	s	4	5	SIC	193	ABS	2	0	02VD 02VO 10VC 02MD 02MO 02MC 02RD 02RO	0	1	1.61868596077	None	None	None	None	1
2.7	2015_May_08_1312	s	s	4	5	SIC	194	ABS	1	1	02VD 02VO 02VC 02MD 10MO 02MC 02RD 02RO	0	1	2.37690114975	None	None	None	None	1
2.7	2015_May_08_1312	s	s	4	5	SIC	195	RC	2	1	02VD 09VO 02VC 02MD 02MO 02MC 02RD 02RO	1	0	0.547590970993	66.0	-93.0	62	-94	1
2.7	2015_May_08_1312	s	s	4	5	SIC	196	RC	1	2	02VD 02VO 02VC 09MD 02MO 02MC 02RD 02RO	1	0	1.23529696465	-306.0	-380.0	-314	-377	1
2.7	2015_May_08_1312	s	s	4	5	SIC	197	ABS	2	2	10VD 02VO 02VC 02MD 02MO 02MC 02RD 02RO	0	1	2.04736804962	None	None	None	None	1
2.7	2015_May_08_1312	s	s	4	5	SIC	198	RC	0	2	02VD 02VO 02VC 02MD 02MO 02MC 09RD 02RO	1	0	0.502737998962	-7.0	-56.0	-3	-66	1
2.7	2015_May_08_1312	s	s	4	5	SIC	199	RC	1	1	02VD 02VO 02VC 02MD 09MO 02MC 02RD 02RO	1	0	1.92429494858	-115.0	403.0	-120	393	1
2.7	2015_May_08_1312	s	s	4	5	SIC	200	ABS	1	0	02VD 02VO 02VC 02MD 02MO 10MC 02RD 02RO	0	1	2.60592699051	None	None	None	None	1
2.7	2015_May_08_1312	s	s	4	5	SIC	201	RC	1	0	02VD 02VO 02VC 02MD 02MO 09MC 02RD 02RO	1	0	0.796408891678	-5.0	-277.0	2	-277	1
2.7	2015_May_08_1312	s	s	4	5	SIC	202	RC	2	0	02VD 02VO 09VC 02MD 02MO 02MC 02RD 02RO	1	0	1.88950991631	280.0	251.0	288	259	1
2.7	2015_May_08_1312	s	s	4	5	SIC	203	RC	0	1	02VD 02VO 02VC 02MD 02MO 02MC 02RD 09RO	1	0	0.517213106155	61.0	-12.0	60	-8	1
2.7	2015_May_08_1312	s	s	4	5	SIC	204	ABS	0	1	02VD 02VO 02VC 02MD 02MO 02MC 02RD 10RO	0	1	2.90401816368	None	None	None	None	1
2.7	2015_May_08_1312	s	s	4	5	SIC	205	ABS	2	1	02VD 10VO 02VC 02MD 02MO 02MC 02RD 02RO	0	1	1.92967891693	None	None	None	None	1
2.7	2015_May_08_1312	s	s	4	5	SIC	206	ABS	0	2	02VD 02VO 02VC 02MD 02MO 02MC 10RD 02RO	0	1	1.94190096855	None	None	None	None	1
2.7	2015_May_08_1312	s	s	4	5	SIC	207	RC	2	2	09VD 02VO 02VC 02MD 02MO 02MC 02RD 02RO	1	0	1.00693511963	267.0	-200.0	269	-204	1
2.7	2015_May_08_1312	s	s	4	5	SIC	208	ABS	1	2	02VD 02VO 02VC 10MD 02MO 02MC 02RD 02RO	0	1	2.21835899353	None	None	None	None	1
2.7	2015_May_08_1312	s	s	4	5	SIC	209	RC	1	2	02VD 02VO 02VC 09MD 02MO 02MC 02RD 02RO	1	0	0.71767115593	-65.0	-362.0	-63	-366	1
2.7	2015_May_08_1312	s	s	4	5	SIC	210	RC	2	2	09VD 02VO 02VC 02MD 02MO 02MC 02RD 02RO	1	0	2.45435190201	536.0	297.0	538	302	1
2.7	2015_May_08_1312	s	s	4	5	SIC	211	RC	2	0	02VD 02VO 09VC 02MD 02MO 02MC 02RD 02RO	1	0	1.29163980484	-257.0	309.0	-250	307	1
2.7	2015_May_08_1312	s	s	4	5	SIC	212	ABS	0	2	02VD 02VO 02VC 02MD 02MO 02MC 10RD 02RO	0	1	1.80705499649	None	None	None	None	1
2.7	2015_May_08_1312	s	s	4	5	SIC	213	ABS	0	1	02VD 02VO 02VC 02MD 02MO 02MC 02RD 10RO	0	1	3.1501660347	None	None	None	None	1
2.7	2015_May_08_1312	s	s	4	5	SIC	214	RC	1	0	02VD 02VO 02VC 02MD 02MO 09MC 02RD 02RO	1	0	1.40003490448	-70.0	-244.0	-61	-243	1
2.7	2015_May_08_1312	s	s	4	5	SIC	215	ABS	2	0	02VD 02VO 10VC 02MD 02MO 02MC 02RD 02RO	0	1	1.62000393867	None	None	None	None	1
2.7	2015_May_08_1312	s	s	4	5	SIC	216	ABS	2	2	10VD 02VO 02VC 02MD 02MO 02MC 02RD 02RO	0	1	2.33646202087	None	None	None	None	1
2.7	2015_May_08_1312	s	s	4	5	SIC	217	RC	1	1	02VD 02VO 02VC 02MD 09MO 02MC 02RD 02RO	1	0	0.858666181564	-371.0	-252.0	-372	-257	1
2.7	2015_May_08_1312	s	s	4	5	SIC	218	ABS	1	2	02VD 02VO 02VC 10MD 02MO 02MC 02RD 02RO	0	1	2.09455418587	None	None	None	None	1
2.7	2015_May_08_1312	s	s	4	5	SIC	219	RC	0	1	02VD 02VO 02VC 02MD 02MO 02MC 02RD 09RO	0	1	2.67814683914	-322.0	38.0	None	None	0
2.7	2015_May_08_1312	s	s	4	5	SIC	220	RC	0	2	02VD 02VO 02VC 02MD 02MO 02MC 09RD 02RO	1	0	1.40719509125	-408.0	-30.0	-416	-24	1
2.7	2015_May_08_1312	s	s	4	5	SIC	221	ABS	2	1	02VD 10VO 02VC 02MD 02MO 02MC 02RD 02RO	0	1	2.73620009422	None	None	None	None	1
2.7	2015_May_08_1312	s	s	4	5	SIC	222	ABS	1	1	02VD 02VO 02VC 02MD 10MO 02MC 02RD 02RO	0	1	2.2071788311	None	None	None	None	1
2.7	2015_May_08_1312	s	s	4	5	SIC	223	RC	2	1	02VD 09VO 02VC 02MD 02MO 02MC 02RD 02RO	1	0	0.877198934555	516.0	-275.0	524	-281	1
2.7	2015_May_08_1312	s	s	4	5	SIC	224	ABS	1	0	02VD 02VO 02VC 02MD 02MO 10MC 02RD 02RO	0	1	3.09500598907	None	None	None	None	1
2.7	2015_May_08_1312	s	s	4	5	SIC	225	RC	1	0	02VD 02VO 02VC 02MD 02MO 09MC 02RD 02RO	1	0	1.02878499031	-535.0	83.0	-531	77	1
2.7	2015_May_08_1312	s	s	4	5	SIC	226	RC	0	1	02VD 02VO 02VC 02MD 02MO 02MC 02RD 09RO	1	0	1.02334618568	-306.0	-240.0	-320	-233	1
2.7	2015_May_08_1312	s	s	4	5	SIC	227	RC	0	2	02VD 02VO 02VC 02MD 02MO 02MC 09RD 02RO	1	0	1.88269901276	404.0	403.0	408	405	1
2.7	2015_May_08_1312	s	s	4	5	SIC	228	ABS	2	2	10VD 02VO 02VC 02MD 02MO 02MC 02RD 02RO	0	1	1.71267199516	None	None	None	None	1
2.7	2015_May_08_1312	s	s	4	5	SIC	229	ABS	1	2	02VD 02VO 02VC 10MD 02MO 02MC 02RD 02RO	0	1	2.02382493019	None	None	None	None	1
2.7	2015_May_08_1312	s	s	4	5	SIC	230	ABS	1	0	02VD 02VO 02VC 02MD 02MO 10MC 02RD 02RO	0	1	1.87105202675	None	None	None	None	1
2.7	2015_May_08_1312	s	s	4	5	SIC	231	ABS	1	1	02VD 02VO 02VC 02MD 10MO 02MC 02RD 02RO	0	1	2.14160609245	None	None	None	None	1
2.7	2015_May_08_1312	s	s	4	5	SIC	232	ABS	0	1	02VD 02VO 02VC 02MD 02MO 02MC 02RD 10RO	0	1	2.36568903923	None	None	None	None	1
2.7	2015_May_08_1312	s	s	4	5	SIC	233	RC	1	1	02VD 02VO 02VC 02MD 09MO 02MC 02RD 02RO	1	0	1.01779294014	235.0	76.0	243	82	1
2.7	2015_May_08_1312	s	s	4	5	SIC	234	ABS	2	0	02VD 02VO 10VC 02MD 02MO 02MC 02RD 02RO	0	1	1.44717097282	None	None	None	None	1
2.7	2015_May_08_1312	s	s	4	5	SIC	235	ABS	2	1	02VD 10VO 02VC 02MD 02MO 02MC 02RD 02RO	0	1	1.63017296791	None	None	None	None	1
2.7	2015_May_08_1312	s	s	4	5	SIC	236	RC	2	2	09VD 02VO 02VC 02MD 02MO 02MC 02RD 02RO	1	0	1.21175408363	-317.0	406.0	-315	414	1
2.7	2015_May_08_1312	s	s	4	5	SIC	237	RC	2	0	02VD 02VO 09VC 02MD 02MO 02MC 02RD 02RO	1	0	1.11755418777	344.0	-320.0	350	-328	1
2.7	2015_May_08_1312	s	s	4	5	SIC	238	RC	1	2	02VD 02VO 02VC 09MD 02MO 02MC 02RD 02RO	1	0	0.523887872696	125.0	-42.0	122	-39	1
2.7	2015_May_08_1312	s	s	4	5	SIC	239	ABS	0	2	02VD 02VO 02VC 02MD 02MO 02MC 10RD 02RO	0	1	2.17192411423	None	None	None	None	1
2.7	2015_May_08_1312	s	s	4	5	SIC	240	RC	2	1	02VD 09VO 02VC 02MD 02MO 02MC 02RD 02RO	1	0	1.14111399651	112.0	372.0	112	369	1
2.7	2015_May_08_1312	s	s	4	5	SIC	241	RC	2	1	02VD 09VO 02VC 02MD 02MO 02MC 02RD 02RO	1	0	0.866329908371	347.0	130.0	343	132	1
2.7	2015_May_08_1312	s	s	4	5	SIC	242	RC	1	2	02VD 02VO 02VC 09MD 02MO 02MC 02RD 02RO	1	0	0.646769046783	66.0	-168.0	69	-167	1
2.7	2015_May_08_1312	s	s	4	5	SIC	243	ABS	2	1	02VD 10VO 02VC 02MD 02MO 02MC 02RD 02RO	0	1	1.71285009384	None	None	None	None	1
2.7	2015_May_08_1312	s	s	4	5	SIC	244	ABS	1	0	02VD 02VO 02VC 02MD 02MO 10MC 02RD 02RO	0	1	1.92976689339	None	None	None	None	1
2.7	2015_May_08_1312	s	s	4	5	SIC	245	ABS	1	1	02VD 02VO 02VC 02MD 10MO 02MC 02RD 02RO	0	1	2.14163708687	None	None	None	None	1
2.7	2015_May_08_1312	s	s	4	5	SIC	246	RC	2	0	02VD 02VO 09VC 02MD 02MO 02MC 02RD 02RO	1	0	0.866672039032	297.0	172.0	299	175	1
2.7	2015_May_08_1312	s	s	4	5	SIC	247	RC	0	2	02VD 02VO 02VC 02MD 02MO 02MC 09RD 02RO	0	1	1.75323915482	359.0	-50.0	None	None	0
2.7	2015_May_08_1312	s	s	4	5	SIC	248	ABS	2	2	10VD 02VO 02VC 02MD 02MO 02MC 02RD 02RO	0	1	1.47748708725	None	None	None	None	1
2.7	2015_May_08_1312	s	s	4	5	SIC	249	RC	1	0	02VD 02VO 02VC 02MD 02MO 09MC 02RD 02RO	1	0	0.917580127716	-323.0	-208.0	-319	-204	1
2.7	2015_May_08_1312	s	s	4	5	SIC	250	ABS	0	1	02VD 02VO 02VC 02MD 02MO 02MC 02RD 10RO	0	1	3.47165393829	None	None	None	None	1
2.7	2015_May_08_1312	s	s	4	5	SIC	251	RC	2	2	09VD 02VO 02VC 02MD 02MO 02MC 02RD 02RO	1	0	0.773039102554	359.0	172.0	355	171	1
2.7	2015_May_08_1312	s	s	4	5	SIC	252	ABS	2	0	02VD 02VO 10VC 02MD 02MO 02MC 02RD 02RO	0	1	1.36477994919	None	None	None	None	1
2.7	2015_May_08_1312	s	s	4	5	SIC	253	RC	0	1	02VD 02VO 02VC 02MD 02MO 02MC 02RD 09RO	1	0	1.66284990311	-403.0	-367.0	-409	-370	1
2.7	2015_May_08_1312	s	s	4	5	SIC	254	RC	1	1	02VD 02VO 02VC 02MD 09MO 02MC 02RD 02RO	1	0	0.760892152786	-290.0	-374.0	-294	-376	1
2.7	2015_May_08_1312	s	s	4	5	SIC	255	ABS	0	2	02VD 02VO 02VC 02MD 02MO 02MC 10RD 02RO	0	1	1.85426402092	None	None	None	None	1
2.7	2015_May_08_1312	s	s	4	5	SIC	256	ABS	1	2	02VD 02VO 02VC 10MD 02MO 02MC 02RD 02RO	0	1	1.61867618561	None	None	None	None	1
2.7	2015_May_08_1312	s	s	4	5	SIC	257	ABS	0	2	02VD 02VO 02VC 02MD 02MO 02MC 10RD 02RO	0	1	1.92970013618	None	None	None	None	1
2.7	2015_May_08_1312	s	s	4	5	SIC	258	ABS	1	2	02VD 02VO 02VC 10MD 02MO 02MC 02RD 02RO	0	1	1.37347888947	None	None	None	None	1
2.7	2015_May_08_1312	s	s	4	5	SIC	259	ABS	2	2	10VD 02VO 02VC 02MD 02MO 02MC 02RD 02RO	0	1	1.04697990417	None	None	None	None	1
2.7	2015_May_08_1312	s	s	4	5	SIC	260	RC	0	1	02VD 02VO 02VC 02MD 02MO 02MC 02RD 09RO	1	0	2.26752591133	143.0	282.0	141	277	1
2.7	2015_May_08_1312	s	s	4	5	SIC	261	ABS	2	1	02VD 10VO 02VC 02MD 02MO 02MC 02RD 02RO	0	1	1.77345299721	None	None	None	None	1
2.7	2015_May_08_1312	s	s	4	5	SIC	262	RC	2	2	09VD 02VO 02VC 02MD 02MO 02MC 02RD 02RO	1	0	1.04426193237	156.0	-188.0	154	-200	1
2.7	2015_May_08_1312	s	s	4	5	SIC	263	RC	0	2	02VD 02VO 02VC 02MD 02MO 02MC 09RD 02RO	1	0	0.988041162491	-460.0	-130.0	-461	-133	1
2.7	2015_May_08_1312	s	s	4	5	SIC	264	RC	1	0	02VD 02VO 02VC 02MD 02MO 09MC 02RD 02RO	1	0	1.44706702232	214.0	399.0	221	407	1
2.7	2015_May_08_1312	s	s	4	5	SIC	265	ABS	0	1	02VD 02VO 02VC 02MD 02MO 02MC 02RD 10RO	0	1	3.05971598625	None	None	None	None	1
2.7	2015_May_08_1312	s	s	4	5	SIC	266	ABS	2	0	02VD 02VO 10VC 02MD 02MO 02MC 02RD 02RO	0	1	1.31285381317	None	None	None	None	1
2.7	2015_May_08_1312	s	s	4	5	SIC	267	RC	2	0	02VD 02VO 09VC 02MD 02MO 02MC 02RD 02RO	1	0	0.999894857407	-343.0	-90.0	-352	-93	1
2.7	2015_May_08_1312	s	s	4	5	SIC	268	ABS	1	0	02VD 02VO 02VC 02MD 02MO 10MC 02RD 02RO	0	1	2.26670193672	None	None	None	None	1
2.7	2015_May_08_1312	s	s	4	5	SIC	269	RC	2	1	02VD 09VO 02VC 02MD 02MO 02MC 02RD 02RO	1	0	0.752721786499	141.0	3.0	142	3	1
2.7	2015_May_08_1312	s	s	4	5	SIC	270	RC	1	2	02VD 02VO 02VC 09MD 02MO 02MC 02RD 02RO	1	0	1.22348093987	-452.0	71.0	-460	73	1
2.7	2015_May_08_1312	s	s	4	5	SIC	271	RC	1	1	02VD 02VO 02VC 02MD 09MO 02MC 02RD 02RO	1	0	0.911637067795	-101.0	-231.0	-102	-234	1
2.7	2015_May_08_1312	s	s	4	5	SIC	272	ABS	1	1	02VD 02VO 02VC 02MD 10MO 02MC 02RD 02RO	0	1	2.45939397812	None	None	None	None	1
2.7	2015_May_08_1312	s	s	4	5	SIC	273	ABS	1	0	02VD 02VO 02VC 02MD 02MO 10MC 02RD 02RO	0	1	1.72154998779	None	None	None	None	1
2.7	2015_May_08_1312	s	s	4	5	SIC	274	RC	1	0	02VD 02VO 02VC 02MD 02MO 09MC 02RD 02RO	1	0	2.0667591095	-364.0	63.0	-367	56	1
2.7	2015_May_08_1312	s	s	4	5	SIC	275	ABS	1	2	02VD 02VO 02VC 10MD 02MO 02MC 02RD 02RO	0	1	1.97724986076	None	None	None	None	1
2.7	2015_May_08_1312	s	s	4	5	SIC	276	ABS	0	2	02VD 02VO 02VC 02MD 02MO 02MC 10RD 02RO	0	1	2.02391886711	None	None	None	None	1
2.7	2015_May_08_1312	s	s	4	5	SIC	277	RC	2	1	02VD 09VO 02VC 02MD 02MO 02MC 02RD 02RO	1	0	1.31429004669	114.0	154.0	110	146	1
2.7	2015_May_08_1312	s	s	4	5	SIC	278	ABS	0	1	02VD 02VO 02VC 02MD 02MO 02MC 02RD 10RO	0	1	3.70219612122	None	None	None	None	1
2.7	2015_May_08_1312	s	s	4	5	SIC	279	RC	2	2	09VD 02VO 02VC 02MD 02MO 02MC 02RD 02RO	1	0	0.820439100266	136.0	-122.0	136	-129	1
2.7	2015_May_08_1312	s	s	4	5	SIC	280	ABS	2	1	02VD 10VO 02VC 02MD 02MO 02MC 02RD 02RO	0	1	1.41549801826	None	None	None	None	1
2.7	2015_May_08_1312	s	s	4	5	SIC	281	ABS	2	2	10VD 02VO 02VC 02MD 02MO 02MC 02RD 02RO	0	1	0.870371103287	None	None	None	None	1
2.7	2015_May_08_1312	s	s	4	5	SIC	282	RC	0	1	02VD 02VO 02VC 02MD 02MO 02MC 02RD 09RO	0	1	1.92644000053	-453.0	342.0	None	None	0
2.7	2015_May_08_1312	s	s	4	5	SIC	283	ABS	1	1	02VD 02VO 02VC 02MD 10MO 02MC 02RD 02RO	0	1	1.56108999252	None	None	None	None	1
2.7	2015_May_08_1312	s	s	4	5	SIC	284	RC	0	2	02VD 02VO 02VC 02MD 02MO 02MC 09RD 02RO	1	0	1.39511394501	309.0	-139.0	313	-138	1
2.7	2015_May_08_1312	s	s	4	5	SIC	285	RC	1	1	02VD 02VO 02VC 02MD 09MO 02MC 02RD 02RO	1	0	0.700700998306	253.0	-78.0	263	-77	1
2.7	2015_May_08_1312	s	s	4	5	SIC	286	RC	1	2	02VD 02VO 02VC 09MD 02MO 02MC 02RD 02RO	1	0	0.732806921005	-99.0	-335.0	-95	-332	1
2.7	2015_May_08_1312	s	s	4	5	SIC	287	RC	2	0	02VD 02VO 09VC 02MD 02MO 02MC 02RD 02RO	1	0	0.599676132202	154.0	53.0	162	53	1
2.7	2015_May_08_1312	s	s	4	5	SIC	288	ABS	2	0	02VD 02VO 10VC 02MD 02MO 02MC 02RD 02RO	0	1	2.0474050045	None	None	None	None	1
2.7	2015_May_08_1312	s	s	4	5	SIC	289	ABS	0	2	02VD 02VO 02VC 02MD 02MO 02MC 10RD 02RO	0	1	1.85420084	None	None	None	None	1
2.7	2015_May_08_1312	s	s	4	5	SIC	290	RC	2	2	09VD 02VO 02VC 02MD 02MO 02MC 02RD 02RO	1	0	0.853763818741	165.0	150.0	160	144	1
2.7	2015_May_08_1312	s	s	4	5	SIC	291	RC	2	0	02VD 02VO 09VC 02MD 02MO 02MC 02RD 02RO	1	0	0.913999795914	518.0	-151.0	524	-151	1
2.7	2015_May_08_1312	s	s	4	5	SIC	292	RC	1	0	02VD 02VO 02VC 02MD 02MO 09MC 02RD 02RO	1	0	1.74140381813	-182.0	116.0	-187	118	1
2.7	2015_May_08_1312	s	s	4	5	SIC	293	ABS	1	2	02VD 02VO 02VC 10MD 02MO 02MC 02RD 02RO	0	1	2.48953104019	None	None	None	None	1
2.7	2015_May_08_1312	s	s	4	5	SIC	294	RC	1	1	02VD 02VO 02VC 02MD 09MO 02MC 02RD 02RO	1	0	0.646780014038	-11.0	-35.0	-6	-32	1
2.7	2015_May_08_1312	s	s	4	5	SIC	295	ABS	1	1	02VD 02VO 02VC 02MD 10MO 02MC 02RD 02RO	0	1	1.96239590645	None	None	None	None	1
2.7	2015_May_08_1312	s	s	4	5	SIC	296	RC	0	1	02VD 02VO 02VC 02MD 02MO 02MC 02RD 09RO	1	0	2.03566098213	108.0	230.0	117	234	1
2.7	2015_May_08_1312	s	s	4	5	SIC	297	RC	0	2	02VD 02VO 02VC 02MD 02MO 02MC 09RD 02RO	1	0	1.25363492966	-467.0	-75.0	-456	-75	1
2.7	2015_May_08_1312	s	s	4	5	SIC	298	RC	1	2	02VD 02VO 02VC 09MD 02MO 02MC 02RD 02RO	1	0	0.714742183685	226.0	-10.0	226	-17	1
2.7	2015_May_08_1312	s	s	4	5	SIC	299	ABS	0	1	02VD 02VO 02VC 02MD 02MO 02MC 02RD 10RO	0	1	3.53876209259	None	None	None	None	1
2.7	2015_May_08_1312	s	s	4	5	SIC	300	ABS	1	0	02VD 02VO 02VC 02MD 02MO 10MC 02RD 02RO	0	1	2.55360007286	None	None	None	None	1
2.7	2015_May_08_1312	s	s	4	5	SIC	301	ABS	2	1	02VD 10VO 02VC 02MD 02MO 02MC 02RD 02RO	0	1	1.66583490372	None	None	None	None	1
2.7	2015_May_08_1312	s	s	4	5	SIC	302	ABS	2	0	02VD 02VO 10VC 02MD 02MO 02MC 02RD 02RO	0	1	1.84379792213	None	None	None	None	1
2.7	2015_May_08_1312	s	s	4	5	SIC	303	RC	2	1	02VD 09VO 02VC 02MD 02MO 02MC 02RD 02RO	1	0	0.874068975449	247.0	-187.0	249	-187	1
2.7	2015_May_08_1312	s	s	4	5	SIC	304	ABS	2	2	10VD 02VO 02VC 02MD 02MO 02MC 02RD 02RO	0	1	1.46540212631	None	None	None	None	1
2.7	2015_May_08_1312	s	s	4	5	SIC	305	RC	2	1	02VD 09VO 02VC 02MD 02MO 02MC 02RD 02RO	1	0	1.65408492088	-230.0	314.0	-230	317	1
2.7	2015_May_08_1312	s	s	4	5	SIC	306	ABS	2	1	02VD 10VO 02VC 02MD 02MO 02MC 02RD 02RO	0	1	1.48242878914	None	None	None	None	1
2.7	2015_May_08_1312	s	s	4	5	SIC	307	ABS	2	0	02VD 02VO 10VC 02MD 02MO 02MC 02RD 02RO	0	1	1.54495811462	None	None	None	None	1
2.7	2015_May_08_1312	s	s	4	5	SIC	308	RC	0	2	02VD 02VO 02VC 02MD 02MO 02MC 09RD 02RO	1	0	0.900668144226	-452.0	282.0	-448	285	1
2.7	2015_May_08_1312	s	s	4	5	SIC	309	ABS	0	2	02VD 02VO 02VC 02MD 02MO 02MC 10RD 02RO	0	1	2.53692507744	None	None	None	None	1
2.7	2015_May_08_1312	s	s	4	5	SIC	310	RC	2	0	02VD 02VO 09VC 02MD 02MO 02MC 02RD 02RO	1	0	1.21174120903	505.0	195.0	511	189	1
2.7	2015_May_08_1312	s	s	4	5	SIC	311	ABS	2	2	10VD 02VO 02VC 02MD 02MO 02MC 02RD 02RO	0	1	1.80666899681	None	None	None	None	1
2.7	2015_May_08_1312	s	s	4	5	SIC	312	ABS	0	1	02VD 02VO 02VC 02MD 02MO 02MC 02RD 10RO	0	1	2.22405600548	None	None	None	None	1
2.7	2015_May_08_1312	s	s	4	5	SIC	313	RC	1	2	02VD 02VO 02VC 09MD 02MO 02MC 02RD 02RO	1	0	0.905628919601	-279.0	-81.0	-274	-83	1
2.7	2015_May_08_1312	s	s	4	5	SIC	314	ABS	1	1	02VD 02VO 02VC 02MD 10MO 02MC 02RD 02RO	0	1	2.85420584679	None	None	None	None	1
2.7	2015_May_08_1312	s	s	4	5	SIC	315	RC	2	2	09VD 02VO 02VC 02MD 02MO 02MC 02RD 02RO	1	0	1.86585187912	-255.0	318.0	-249	319	1
2.7	2015_May_08_1312	s	s	4	5	SIC	316	RC	1	1	02VD 02VO 02VC 02MD 09MO 02MC 02RD 02RO	1	0	1.91395616531	-465.0	274.0	-465	274	1
2.7	2015_May_08_1312	s	s	4	5	SIC	317	ABS	1	0	02VD 02VO 02VC 02MD 02MO 10MC 02RD 02RO	0	1	2.80810284615	None	None	None	None	1
2.7	2015_May_08_1312	s	s	4	5	SIC	318	ABS	1	2	02VD 02VO 02VC 10MD 02MO 02MC 02RD 02RO	0	1	2.02384710312	None	None	None	None	1
2.7	2015_May_08_1312	s	s	4	5	SIC	319	RC	1	0	02VD 02VO 02VC 02MD 02MO 09MC 02RD 02RO	1	0	3.15390896797	-386.0	271.0	-381	262	1
2.7	2015_May_08_1312	s	s	4	5	SIC	320	RC	0	1	02VD 02VO 02VC 02MD 02MO 02MC 02RD 09RO	1	0	2.39712786674	-514.0	27.0	-511	20	1
2.7	2015_May_08_1312	s	s	4	5	SIC	321	ABS	2	0	02VD 02VO 10VC 02MD 02MO 02MC 02RD 02RO	0	1	1.68938589096	None	None	None	None	1
2.7	2015_May_08_1312	s	s	4	5	SIC	322	RC	2	1	02VD 09VO 02VC 02MD 02MO 02MC 02RD 02RO	1	0	0.97364616394	-199.0	-58.0	-196	-53	1
2.7	2015_May_08_1312	s	s	4	5	SIC	323	RC	2	2	09VD 02VO 02VC 02MD 02MO 02MC 02RD 02RO	1	0	0.646757125854	-189.0	-146.0	-191	-150	1
2.7	2015_May_08_1312	s	s	4	5	SIC	324	RC	0	1	02VD 02VO 02VC 02MD 02MO 02MC 02RD 09RO	1	0	3.30362510681	453.0	-392.0	455	-392	1
2.7	2015_May_08_1312	s	s	4	5	SIC	325	RC	1	2	02VD 02VO 02VC 09MD 02MO 02MC 02RD 02RO	1	0	0.729101896286	135.0	-130.0	138	-130	1
2.7	2015_May_08_1312	s	s	4	5	SIC	326	RC	1	0	02VD 02VO 02VC 02MD 02MO 09MC 02RD 02RO	1	0	1.11752200127	-461.0	-13.0	-453	-19	1
2.7	2015_May_08_1312	s	s	4	5	SIC	327	ABS	1	1	02VD 02VO 02VC 02MD 10MO 02MC 02RD 02RO	0	1	2.914041996	None	None	None	None	1
2.7	2015_May_08_1312	s	s	4	5	SIC	328	RC	1	1	02VD 02VO 02VC 02MD 09MO 02MC 02RD 02RO	1	0	1.47752594948	-535.0	383.0	-541	385	1
2.7	2015_May_08_1312	s	s	4	5	SIC	329	ABS	2	1	02VD 10VO 02VC 02MD 02MO 02MC 02RD 02RO	0	1	2.36227083206	None	None	None	None	1
2.7	2015_May_08_1312	s	s	4	5	SIC	330	ABS	1	0	02VD 02VO 02VC 02MD 02MO 10MC 02RD 02RO	0	1	3.78382992744	None	None	None	None	1
2.7	2015_May_08_1312	s	s	4	5	SIC	331	RC	0	2	02VD 02VO 02VC 02MD 02MO 02MC 09RD 02RO	1	0	0.959391117096	-173.0	267.0	-166	260	1
2.7	2015_May_08_1312	s	s	4	5	SIC	332	ABS	2	2	10VD 02VO 02VC 02MD 02MO 02MC 02RD 02RO	0	1	2.23080587387	None	None	None	None	1
2.7	2015_May_08_1312	s	s	4	5	SIC	333	ABS	0	2	02VD 02VO 02VC 02MD 02MO 02MC 10RD 02RO	0	1	2.76093006134	None	None	None	None	1
2.7	2015_May_08_1312	s	s	4	5	SIC	334	ABS	0	1	02VD 02VO 02VC 02MD 02MO 02MC 02RD 10RO	0	1	3.69551301003	None	None	None	None	1
2.7	2015_May_08_1312	s	s	4	5	SIC	335	ABS	1	2	02VD 02VO 02VC 10MD 02MO 02MC 02RD 02RO	0	1	1.99797487259	None	None	None	None	1
2.7	2015_May_08_1312	s	s	4	5	SIC	336	RC	2	0	02VD 02VO 09VC 02MD 02MO 02MC 02RD 02RO	1	0	1.07708311081	-226.0	-139.0	-229	-148	1
2.7	2015_May_08_1312	s	s	4	5	SIC	337	RC	2	2	09VD 02VO 02VC 02MD 02MO 02MC 02RD 02RO	1	0	1.1533229351	374.0	253.0	379	253	1
2.7	2015_May_08_1312	s	s	4	5	SIC	338	RC	2	1	02VD 09VO 02VC 02MD 02MO 02MC 02RD 02RO	1	0	1.1999309063	-526.0	-373.0	-527	-376	1
2.7	2015_May_08_1312	s	s	4	5	SIC	339	RC	1	1	02VD 02VO 02VC 02MD 09MO 02MC 02RD 02RO	1	0	0.641762018204	61.0	108.0	59	99	1
2.7	2015_May_08_1312	s	s	4	5	SIC	340	RC	1	0	02VD 02VO 02VC 02MD 02MO 09MC 02RD 02RO	1	0	0.559396028519	48.0	-80.0	43	-72	1
2.7	2015_May_08_1312	s	s	4	5	SIC	341	ABS	0	2	02VD 02VO 02VC 02MD 02MO 02MC 10RD 02RO	0	1	1.71785402298	None	None	None	None	1
2.7	2015_May_08_1312	s	s	4	5	SIC	342	RC	2	0	02VD 02VO 09VC 02MD 02MO 02MC 02RD 02RO	1	0	1.03073096275	457.0	-149.0	467	-151	1
2.7	2015_May_08_1312	s	s	4	5	SIC	343	ABS	1	2	02VD 02VO 02VC 10MD 02MO 02MC 02RD 02RO	0	1	1.90377306938	None	None	None	None	1
2.7	2015_May_08_1312	s	s	4	5	SIC	344	RC	0	2	02VD 02VO 02VC 02MD 02MO 02MC 09RD 02RO	1	0	0.855818033218	-164.0	-197.0	-162	-201	1
2.7	2015_May_08_1312	s	s	4	5	SIC	345	ABS	1	0	02VD 02VO 02VC 02MD 02MO 10MC 02RD 02RO	0	1	2.2827899456	None	None	None	None	1
2.7	2015_May_08_1312	s	s	4	5	SIC	346	ABS	2	0	02VD 02VO 10VC 02MD 02MO 02MC 02RD 02RO	0	1	1.96011590958	None	None	None	None	1
2.7	2015_May_08_1312	s	s	4	5	SIC	347	RC	1	2	02VD 02VO 02VC 09MD 02MO 02MC 02RD 02RO	1	0	1.81860589981	231.0	189.0	229	184	1
2.7	2015_May_08_1312	s	s	4	5	SIC	348	ABS	1	1	02VD 02VO 02VC 02MD 10MO 02MC 02RD 02RO	0	1	3.31267595291	None	None	None	None	1
2.7	2015_May_08_1312	s	s	4	5	SIC	349	ABS	2	1	02VD 10VO 02VC 02MD 02MO 02MC 02RD 02RO	0	1	1.89438509941	None	None	None	None	1
2.7	2015_May_08_1312	s	s	4	5	SIC	350	RC	0	1	02VD 02VO 02VC 02MD 02MO 02MC 02RD 09RO	1	0	1.91392707825	-502.0	-107.0	-509	-108	1
2.7	2015_May_08_1312	s	s	4	5	SIC	351	ABS	0	1	02VD 02VO 02VC 02MD 02MO 02MC 02RD 10RO	0	1	2.90143895149	None	None	None	None	1
2.7	2015_May_08_1312	s	s	4	5	SIC	352	ABS	2	2	10VD 02VO 02VC 02MD 02MO 02MC 02RD 02RO	0	1	1.61962294579	None	None	None	None	1
2.7	2015_May_08_1312	s	s	4	5	SIC	353	ABS	1	1	02VD 02VO 02VC 02MD 10MO 02MC 02RD 02RO	0	1	1.5882370472	None	None	None	None	1
2.7	2015_May_08_1312	s	s	4	5	SIC	354	RC	0	1	02VD 02VO 02VC 02MD 02MO 02MC 02RD 09RO	0	1	2.6123919487	-250.0	246.0	None	None	0
2.7	2015_May_08_1312	s	s	4	5	SIC	355	ABS	2	2	10VD 02VO 02VC 02MD 02MO 02MC 02RD 02RO	0	1	2.39540290833	None	None	None	None	1
2.7	2015_May_08_1312	s	s	4	5	SIC	356	ABS	0	1	02VD 02VO 02VC 02MD 02MO 02MC 02RD 10RO	0	1	2.67159605026	None	None	None	None	1
2.7	2015_May_08_1312	s	s	4	5	SIC	357	RC	2	0	02VD 02VO 09VC 02MD 02MO 02MC 02RD 02RO	1	0	1.23526191711	-121.0	205.0	-126	203	1
2.7	2015_May_08_1312	s	s	4	5	SIC	358	RC	2	1	02VD 09VO 02VC 02MD 02MO 02MC 02RD 02RO	1	0	1.34815788269	-302.0	-258.0	-300	-258	1
2.7	2015_May_08_1312	s	s	4	5	SIC	359	ABS	2	0	02VD 02VO 10VC 02MD 02MO 02MC 02RD 02RO	0	1	2.2071428299	None	None	None	None	1
2.7	2015_May_08_1312	s	s	4	5	SIC	360	ABS	0	2	02VD 02VO 02VC 02MD 02MO 02MC 10RD 02RO	0	1	1.62370610237	None	None	None	None	1
2.7	2015_May_08_1312	s	s	4	5	SIC	361	RC	1	0	02VD 02VO 02VC 02MD 02MO 09MC 02RD 02RO	1	0	1.1731569767	429.0	32.0	439	39	1
2.7	2015_May_08_1312	s	s	4	5	SIC	362	RC	2	2	09VD 02VO 02VC 02MD 02MO 02MC 02RD 02RO	1	0	1.13461995125	249.0	-114.0	258	-107	1
2.7	2015_May_08_1312	s	s	4	5	SIC	363	RC	1	1	02VD 02VO 02VC 02MD 09MO 02MC 02RD 02RO	1	0	2.43093299866	-278.0	16.0	-278	13	1
2.7	2015_May_08_1312	s	s	4	5	SIC	364	ABS	2	1	02VD 10VO 02VC 02MD 02MO 02MC 02RD 02RO	0	1	1.72963190079	None	None	None	None	1
2.7	2015_May_08_1312	s	s	4	5	SIC	365	RC	1	2	02VD 02VO 02VC 09MD 02MO 02MC 02RD 02RO	1	0	0.88213300705	-486.0	-68.0	-489	-63	1
2.7	2015_May_08_1312	s	s	4	5	SIC	366	ABS	1	2	02VD 02VO 02VC 10MD 02MO 02MC 02RD 02RO	0	1	2.06593108177	None	None	None	None	1
2.7	2015_May_08_1312	s	s	4	5	SIC	367	RC	0	2	02VD 02VO 02VC 02MD 02MO 02MC 09RD 02RO	1	0	1.43031096458	403.0	-172.0	403	-175	1
2.7	2015_May_08_1312	s	s	4	5	SIC	368	ABS	1	0	02VD 02VO 02VC 02MD 02MO 10MC 02RD 02RO	0	1	2.2475810051	None	None	None	None	1
2.7	2015_May_08_1312	s	s	4	5	SIC	369	RC	1	2	02VD 02VO 02VC 09MD 02MO 02MC 02RD 02RO	1	0	1.86567807198	-528.0	346.0	-525	346	1
2.7	2015_May_08_1312	s	s	4	5	SIC	370	RC	0	2	02VD 02VO 02VC 02MD 02MO 02MC 09RD 02RO	1	0	1.51777911186	-57.0	-312.0	-54	-323	1
2.7	2015_May_08_1312	s	s	4	5	SIC	371	ABS	1	0	02VD 02VO 02VC 02MD 02MO 10MC 02RD 02RO	0	1	2.52518987656	None	None	None	None	1
2.7	2015_May_08_1312	s	s	4	5	SIC	372	ABS	2	1	02VD 10VO 02VC 02MD 02MO 02MC 02RD 02RO	0	1	1.85410785675	None	None	None	None	1
2.7	2015_May_08_1312	s	s	4	5	SIC	373	RC	2	1	02VD 09VO 02VC 02MD 02MO 02MC 02RD 02RO	1	0	1.27101802826	532.0	-221.0	527	-219	1
2.7	2015_May_08_1312	s	s	4	5	SIC	374	ABS	0	2	02VD 02VO 02VC 02MD 02MO 02MC 10RD 02RO	0	1	1.91796994209	None	None	None	None	1
2.7	2015_May_08_1312	s	s	4	5	SIC	375	RC	2	0	02VD 02VO 09VC 02MD 02MO 02MC 02RD 02RO	1	0	1.55960202217	469.0	360.0	469	361	1
2.7	2015_May_08_1312	s	s	4	5	SIC	376	ABS	1	1	02VD 02VO 02VC 02MD 10MO 02MC 02RD 02RO	0	1	1.58571195602	None	None	None	None	1
2.7	2015_May_08_1312	s	s	4	5	SIC	377	ABS	2	0	02VD 02VO 10VC 02MD 02MO 02MC 02RD 02RO	0	1	2.10126304626	None	None	None	None	1
2.7	2015_May_08_1312	s	s	4	5	SIC	378	ABS	0	1	02VD 02VO 02VC 02MD 02MO 02MC 02RD 10RO	0	1	2.83081388474	None	None	None	None	1
2.7	2015_May_08_1312	s	s	4	5	SIC	379	ABS	1	2	02VD 02VO 02VC 10MD 02MO 02MC 02RD 02RO	0	1	2.01217985153	None	None	None	None	1
2.7	2015_May_08_1312	s	s	4	5	SIC	380	ABS	2	2	10VD 02VO 02VC 02MD 02MO 02MC 02RD 02RO	0	1	1.25373911858	None	None	None	None	1
2.7	2015_May_08_1312	s	s	4	5	SIC	381	RC	2	2	09VD 02VO 02VC 02MD 02MO 02MC 02RD 02RO	1	0	1.10303115845	311.0	-295.0	309	-292	1
2.7	2015_May_08_1312	s	s	4	5	SIC	382	RC	1	1	02VD 02VO 02VC 02MD 09MO 02MC 02RD 02RO	1	0	0.59970498085	31.0	47.0	37	40	1
2.7	2015_May_08_1312	s	s	4	5	SIC	383	RC	1	0	02VD 02VO 02VC 02MD 02MO 09MC 02RD 02RO	1	0	1.21166706085	-87.0	292.0	-86	298	1
2.7	2015_May_08_1312	s	s	4	5	SIC	384	RC	0	1	02VD 02VO 02VC 02MD 02MO 02MC 02RD 09RO	1	0	1.54903388023	455.0	-66.0	452	-73	1
2.7	2015_May_08_1312	s	s	4	5	SIC	385	ABS	0	2	02VD 02VO 02VC 02MD 02MO 02MC 10RD 02RO	0	1	1.34123301506	None	None	None	None	1
2.7	2015_May_08_1312	s	s	4	5	SIC	386	ABS	2	1	02VD 10VO 02VC 02MD 02MO 02MC 02RD 02RO	0	1	1.30321407318	None	None	None	None	1
2.7	2015_May_08_1312	s	s	4	5	SIC	387	RC	1	2	02VD 02VO 02VC 09MD 02MO 02MC 02RD 02RO	1	0	0.547683000565	10.0	-22.0	6	-24	1
2.7	2015_May_08_1312	s	s	4	5	SIC	388	RC	0	1	02VD 02VO 02VC 02MD 02MO 02MC 02RD 09RO	1	0	1.64324092865	-252.0	-267.0	-255	-266	1
2.7	2015_May_08_1312	s	s	4	5	SIC	389	ABS	1	1	02VD 02VO 02VC 02MD 10MO 02MC 02RD 02RO	0	1	2.07117795944	None	None	None	None	1
2.7	2015_May_08_1312	s	s	4	5	SIC	390	ABS	0	1	02VD 02VO 02VC 02MD 02MO 02MC 02RD 10RO	0	1	2.31817793846	None	None	None	None	1
2.7	2015_May_08_1312	s	s	4	5	SIC	391	RC	2	1	02VD 09VO 02VC 02MD 02MO 02MC 02RD 02RO	1	0	1.10580301285	338.0	-265.0	345	-262	1
2.7	2015_May_08_1312	s	s	4	5	SIC	392	RC	1	1	02VD 02VO 02VC 02MD 09MO 02MC 02RD 02RO	1	0	1.88838505745	483.0	104.0	487	107	1
2.7	2015_May_08_1312	s	s	4	5	SIC	393	RC	2	0	02VD 02VO 09VC 02MD 02MO 02MC 02RD 02RO	1	0	2.37201905251	516.0	195.0	518	202	1
2.7	2015_May_08_1312	s	s	4	5	SIC	394	ABS	1	2	02VD 02VO 02VC 10MD 02MO 02MC 02RD 02RO	0	1	1.51308917999	None	None	None	None	1
2.7	2015_May_08_1312	s	s	4	5	SIC	395	ABS	2	0	02VD 02VO 10VC 02MD 02MO 02MC 02RD 02RO	0	1	1.82036304474	None	None	None	None	1
2.7	2015_May_08_1312	s	s	4	5	SIC	396	RC	1	0	02VD 02VO 02VC 02MD 02MO 09MC 02RD 02RO	1	0	1.13675093651	-263.0	185.0	-268	182	1
2.7	2015_May_08_1312	s	s	4	5	SIC	397	RC	0	2	02VD 02VO 02VC 02MD 02MO 02MC 09RD 02RO	1	0	2.11837005615	467.0	403.0	475	401	1
2.7	2015_May_08_1312	s	s	4	5	SIC	398	ABS	1	0	02VD 02VO 02VC 02MD 02MO 10MC 02RD 02RO	0	1	1.48245191574	None	None	None	None	1
2.7	2015_May_08_1312	s	s	4	5	SIC	399	RC	2	2	09VD 02VO 02VC 02MD 02MO 02MC 02RD 02RO	1	0	1.21172595024	411.0	-254.0	407	-254	1
2.7	2015_May_08_1312	s	s	4	5	SIC	400	ABS	2	2	10VD 02VO 02VC 02MD 02MO 02MC 02RD 02RO	0	1	2.02389907837	None	None	None	None	1
2.7	2015_May_08_1312	s	s	4	5	SIC	401	RC	1	1	02VD 02VO 02VC 02MD 09MO 02MC 02RD 02RO	1	0	0.982095956802	-65.0	-135.0	-66	-132	1
2.7	2015_May_08_1312	s	s	4	5	SIC	402	RC	2	1	02VD 09VO 02VC 02MD 02MO 02MC 02RD 02RO	1	0	0.670304059982	153.0	173.0	150	174	1
2.7	2015_May_08_1312	s	s	4	5	SIC	403	RC	2	0	02VD 02VO 09VC 02MD 02MO 02MC 02RD 02RO	1	0	0.623245954514	35.0	97.0	34	98	1
2.7	2015_May_08_1312	s	s	4	5	SIC	404	ABS	0	1	02VD 02VO 02VC 02MD 02MO 02MC 02RD 10RO	0	1	3.12473988533	None	None	None	None	1
2.7	2015_May_08_1312	s	s	4	5	SIC	405	ABS	0	2	02VD 02VO 02VC 02MD 02MO 02MC 10RD 02RO	0	1	1.64728999138	None	None	None	None	1
2.7	2015_May_08_1312	s	s	4	5	SIC	406	ABS	2	0	02VD 02VO 10VC 02MD 02MO 02MC 02RD 02RO	0	1	1.56489300728	None	None	None	None	1
2.7	2015_May_08_1312	s	s	4	5	SIC	407	RC	0	1	02VD 02VO 02VC 02MD 02MO 02MC 02RD 09RO	1	0	2.00968289375	271.0	-226.0	275	-223	1
2.7	2015_May_08_1312	s	s	4	5	SIC	408	RC	2	2	09VD 02VO 02VC 02MD 02MO 02MC 02RD 02RO	1	0	1.50136899948	-433.0	367.0	-443	371	1
2.7	2015_May_08_1312	s	s	4	5	SIC	409	ABS	1	0	02VD 02VO 02VC 02MD 02MO 10MC 02RD 02RO	0	1	2.24265909195	None	None	None	None	1
2.7	2015_May_08_1312	s	s	4	5	SIC	410	RC	1	0	02VD 02VO 02VC 02MD 02MO 09MC 02RD 02RO	1	0	1.05869197845	-390.0	-298.0	-391	-307	1
2.7	2015_May_08_1312	s	s	4	5	SIC	411	RC	0	2	02VD 02VO 02VC 02MD 02MO 02MC 09RD 02RO	1	0	0.93675994873	224.0	-67.0	228	-72	1
2.7	2015_May_08_1312	s	s	4	5	SIC	412	ABS	1	2	02VD 02VO 02VC 10MD 02MO 02MC 02RD 02RO	0	1	1.8595559597	None	None	None	None	1
2.7	2015_May_08_1312	s	s	4	5	SIC	413	ABS	2	1	02VD 10VO 02VC 02MD 02MO 02MC 02RD 02RO	0	1	1.90657091141	None	None	None	None	1
2.7	2015_May_08_1312	s	s	4	5	SIC	414	ABS	1	1	02VD 02VO 02VC 02MD 10MO 02MC 02RD 02RO	0	1	1.90650296211	None	None	None	None	1
2.7	2015_May_08_1312	s	s	4	5	SIC	415	RC	1	2	02VD 02VO 02VC 09MD 02MO 02MC 02RD 02RO	1	0	1.69002795219	262.0	225.0	254	227	1
2.7	2015_May_08_1312	s	s	4	5	SIC	416	ABS	2	2	10VD 02VO 02VC 02MD 02MO 02MC 02RD 02RO	0	1	1.70614099503	None	None	None	None	1
2.7	2015_May_08_1312	s	s	4	5	SIC	417	RC	2	2	09VD 02VO 02VC 02MD 02MO 02MC 02RD 02RO	1	0	1.54135298729	-502.0	184.0	-500	192	1
2.7	2015_May_08_1312	s	s	4	5	SIC	418	ABS	1	1	02VD 02VO 02VC 02MD 10MO 02MC 02RD 02RO	0	1	2.28294801712	None	None	None	None	1
2.7	2015_May_08_1312	s	s	4	5	SIC	419	RC	0	1	02VD 02VO 02VC 02MD 02MO 02MC 02RD 09RO	1	0	3.12261605263	-296.0	226.0	-291	234	1
2.7	2015_May_08_1312	s	s	4	5	SIC	420	ABS	0	1	02VD 02VO 02VC 02MD 02MO 02MC 02RD 10RO	0	1	3.41924405098	None	None	None	None	1
2.7	2015_May_08_1312	s	s	4	5	SIC	421	ABS	2	2	10VD 02VO 02VC 02MD 02MO 02MC 02RD 02RO	0	1	1.70611286163	None	None	None	None	1
2.7	2015_May_08_1312	s	s	4	5	SIC	422	RC	1	1	02VD 02VO 02VC 02MD 09MO 02MC 02RD 02RO	1	0	1.03556990623	-439.0	-5.0	-437	-10	1
2.7	2015_May_08_1312	s	s	4	5	SIC	423	ABS	2	1	02VD 10VO 02VC 02MD 02MO 02MC 02RD 02RO	0	1	1.17235207558	None	None	None	None	1
2.7	2015_May_08_1312	s	s	4	5	SIC	424	RC	2	0	02VD 02VO 09VC 02MD 02MO 02MC 02RD 02RO	1	0	0.964471101761	-304.0	317.0	-304	323	1
2.7	2015_May_08_1312	s	s	4	5	SIC	425	RC	1	2	02VD 02VO 02VC 09MD 02MO 02MC 02RD 02RO	1	0	0.729118824005	273.0	-155.0	280	-149	1
2.7	2015_May_08_1312	s	s	4	5	SIC	426	ABS	2	0	02VD 02VO 10VC 02MD 02MO 02MC 02RD 02RO	0	1	2.42165613174	None	None	None	None	1
2.7	2015_May_08_1312	s	s	4	5	SIC	427	RC	1	0	02VD 02VO 02VC 02MD 02MO 09MC 02RD 02RO	1	0	1.0116341114	-201.0	-132.0	-203	-132	1
2.7	2015_May_08_1312	s	s	4	5	SIC	428	RC	2	1	02VD 09VO 02VC 02MD 02MO 02MC 02RD 02RO	1	0	0.842348098755	180.0	-289.0	181	-293	1
2.7	2015_May_08_1312	s	s	4	5	SIC	429	ABS	1	2	02VD 02VO 02VC 10MD 02MO 02MC 02RD 02RO	0	1	1.75297212601	None	None	None	None	1
2.7	2015_May_08_1312	s	s	4	5	SIC	430	RC	0	2	02VD 02VO 02VC 02MD 02MO 02MC 09RD 02RO	1	0	0.891216039658	-222.0	-100.0	-214	-95	1
2.7	2015_May_08_1312	s	s	4	5	SIC	431	ABS	0	2	02VD 02VO 02VC 02MD 02MO 02MC 10RD 02RO	0	1	2.23583102226	None	None	None	None	1
2.7	2015_May_08_1312	s	s	4	5	SIC	432	ABS	1	0	02VD 02VO 02VC 02MD 02MO 10MC 02RD 02RO	0	1	2.0945110321	None	None	None	None	1
2.7	2015_May_08_1312	s	s	4	5	SIC	433	ABS	0	2	02VD 02VO 02VC 02MD 02MO 02MC 10RD 02RO	0	1	1.45413899422	None	None	None	None	1
2.7	2015_May_08_1312	s	s	4	5	SIC	434	ABS	1	2	02VD 02VO 02VC 10MD 02MO 02MC 02RD 02RO	0	1	1.32434487343	None	None	None	None	1
2.7	2015_May_08_1312	s	s	4	5	SIC	435	ABS	2	2	10VD 02VO 02VC 02MD 02MO 02MC 02RD 02RO	0	1	1.71314382553	None	None	None	None	1
2.7	2015_May_08_1312	s	s	4	5	SIC	436	RC	2	2	09VD 02VO 02VC 02MD 02MO 02MC 02RD 02RO	1	0	1.65444803238	382.0	-323.0	381	-320	1
2.7	2015_May_08_1312	s	s	4	5	SIC	437	RC	1	0	02VD 02VO 02VC 02MD 02MO 09MC 02RD 02RO	1	0	0.724844932556	95.0	-366.0	92	-366	1
2.7	2015_May_08_1312	s	s	4	5	SIC	438	RC	0	2	02VD 02VO 02VC 02MD 02MO 02MC 09RD 02RO	1	0	1.91798615456	-362.0	-205.0	-368	-203	1
2.7	2015_May_08_1312	s	s	4	5	SIC	439	RC	2	1	02VD 09VO 02VC 02MD 02MO 02MC 02RD 02RO	1	0	1.02337503433	-215.0	102.0	-213	97	1
2.7	2015_May_08_1312	s	s	4	5	SIC	440	RC	0	1	02VD 02VO 02VC 02MD 02MO 02MC 02RD 09RO	1	0	1.32430791855	-136.0	-357.0	-132	-362	1
2.7	2015_May_08_1312	s	s	4	5	SIC	441	RC	1	2	02VD 02VO 02VC 09MD 02MO 02MC 02RD 02RO	1	0	0.929292917252	-17.0	186.0	-15	187	1
2.7	2015_May_08_1312	s	s	4	5	SIC	442	ABS	0	1	02VD 02VO 02VC 02MD 02MO 02MC 02RD 10RO	0	1	2.04772400856	None	None	None	None	1
2.7	2015_May_08_1312	s	s	4	5	SIC	443	ABS	2	0	02VD 02VO 10VC 02MD 02MO 02MC 02RD 02RO	0	1	1.98860311508	None	None	None	None	1
2.7	2015_May_08_1312	s	s	4	5	SIC	444	ABS	1	1	02VD 02VO 02VC 02MD 10MO 02MC 02RD 02RO	0	1	2.09456205368	None	None	None	None	1
2.7	2015_May_08_1312	s	s	4	5	SIC	445	ABS	1	0	02VD 02VO 02VC 02MD 02MO 10MC 02RD 02RO	0	1	1.76019310951	None	None	None	None	1
2.7	2015_May_08_1312	s	s	4	5	SIC	446	RC	2	0	02VD 02VO 09VC 02MD 02MO 02MC 02RD 02RO	1	0	0.572510004044	172.0	86.0	175	83	1
2.7	2015_May_08_1312	s	s	4	5	SIC	447	RC	1	1	02VD 02VO 02VC 02MD 09MO 02MC 02RD 02RO	1	0	1.49427700043	389.0	35.0	386	37	1
2.7	2015_May_08_1312	s	s	4	5	SIC	448	ABS	2	1	02VD 10VO 02VC 02MD 02MO 02MC 02RD 02RO	0	1	1.623721838	None	None	None	None	1
2.7	2015_May_08_1312	s	s	4	5	SIC	449	ABS	0	1	02VD 02VO 02VC 02MD 02MO 02MC 02RD 10RO	0	1	2.412307024	None	None	None	None	1
2.7	2015_May_08_1312	s	s	4	5	SIC	450	RC	0	1	02VD 02VO 02VC 02MD 02MO 02MC 02RD 09RO	1	0	2.3536438942	-336.0	387.0	-340	391	1
2.7	2015_May_08_1312	s	s	4	5	SIC	451	ABS	2	0	02VD 02VO 10VC 02MD 02MO 02MC 02RD 02RO	0	1	1.501060009	None	None	None	None	1
2.7	2015_May_08_1312	s	s	4	5	SIC	452	ABS	2	2	10VD 02VO 02VC 02MD 02MO 02MC 02RD 02RO	0	1	1.75046491623	None	None	None	None	1
2.7	2015_May_08_1312	s	s	4	5	SIC	453	ABS	0	2	02VD 02VO 02VC 02MD 02MO 02MC 10RD 02RO	0	1	1.52406907082	None	None	None	None	1
2.7	2015_May_08_1312	s	s	4	5	SIC	454	RC	0	2	02VD 02VO 02VC 02MD 02MO 02MC 09RD 02RO	1	0	1.38826203346	-284.0	49.0	-278	47	1
2.7	2015_May_08_1312	s	s	4	5	SIC	455	RC	2	0	02VD 02VO 09VC 02MD 02MO 02MC 02RD 02RO	1	0	1.57661414146	-81.0	-290.0	-70	-281	1
2.7	2015_May_08_1312	s	s	4	5	SIC	456	ABS	2	1	02VD 10VO 02VC 02MD 02MO 02MC 02RD 02RO	0	1	1.52953290939	None	None	None	None	1
2.7	2015_May_08_1312	s	s	4	5	SIC	457	RC	1	0	02VD 02VO 02VC 02MD 02MO 09MC 02RD 02RO	1	0	1.66747903824	202.0	-284.0	200	-288	1
2.7	2015_May_08_1312	s	s	4	5	SIC	458	RC	1	2	02VD 02VO 02VC 09MD 02MO 02MC 02RD 02RO	1	0	1.21845984459	-231.0	170.0	-229	178	1
2.7	2015_May_08_1312	s	s	4	5	SIC	459	RC	1	1	02VD 02VO 02VC 02MD 09MO 02MC 02RD 02RO	1	0	1.02348709106	-309.0	-313.0	-310	-314	1
2.7	2015_May_08_1312	s	s	4	5	SIC	460	RC	2	2	09VD 02VO 02VC 02MD 02MO 02MC 02RD 02RO	1	0	1.19981312752	493.0	-137.0	496	-138	1
2.7	2015_May_08_1312	s	s	4	5	SIC	461	ABS	1	2	02VD 02VO 02VC 10MD 02MO 02MC 02RD 02RO	0	1	1.88959598541	None	None	None	None	1
2.7	2015_May_08_1312	s	s	4	5	SIC	462	ABS	1	0	02VD 02VO 02VC 02MD 02MO 10MC 02RD 02RO	0	1	2.25434088707	None	None	None	None	1
2.7	2015_May_08_1312	s	s	4	5	SIC	463	ABS	1	1	02VD 02VO 02VC 02MD 10MO 02MC 02RD 02RO	0	1	1.78252887726	None	None	None	None	1
2.7	2015_May_08_1312	s	s	4	5	SIC	464	RC	2	1	02VD 09VO 02VC 02MD 02MO 02MC 02RD 02RO	1	0	0.982422113419	-225.0	182.0	-225	187	1
2.7	2015_May_08_1312	s	s	4	5	SIC	465	ABS	2	2	10VD 02VO 02VC 02MD 02MO 02MC 02RD 02RO	0	1	1.62367391586	None	None	None	None	1
2.7	2015_May_08_1312	s	s	4	5	SIC	466	RC	1	2	02VD 02VO 02VC 09MD 02MO 02MC 02RD 02RO	1	0	1.1293618679	-107.0	-98.0	-103	-108	1
2.7	2015_May_08_1312	s	s	4	5	SIC	467	RC	2	2	09VD 02VO 02VC 02MD 02MO 02MC 02RD 02RO	1	0	2.12982010841	-357.0	276.0	-350	273	1
2.7	2015_May_08_1312	s	s	4	5	SIC	468	ABS	0	2	02VD 02VO 02VC 02MD 02MO 02MC 10RD 02RO	0	1	1.99707579613	None	None	None	None	1
2.7	2015_May_08_1312	s	s	4	5	SIC	469	ABS	1	0	02VD 02VO 02VC 02MD 02MO 10MC 02RD 02RO	0	1	2.466807127	None	None	None	None	1
2.7	2015_May_08_1312	s	s	4	5	SIC	470	RC	0	1	02VD 02VO 02VC 02MD 02MO 02MC 02RD 09RO	1	0	1.4706568718	-314.0	-296.0	-314	-293	1
2.7	2015_May_08_1312	s	s	4	5	SIC	471	RC	1	0	02VD 02VO 02VC 02MD 02MO 09MC 02RD 02RO	1	0	0.878545999527	-63.0	-305.0	-62	-312	1
2.7	2015_May_08_1312	s	s	4	5	SIC	472	ABS	1	1	02VD 02VO 02VC 02MD 10MO 02MC 02RD 02RO	0	1	1.94192814827	None	None	None	None	1
2.7	2015_May_08_1312	s	s	4	5	SIC	473	ABS	1	2	02VD 02VO 02VC 10MD 02MO 02MC 02RD 02RO	0	1	1.58540391922	None	None	None	None	1
2.7	2015_May_08_1312	s	s	4	5	SIC	474	RC	2	1	02VD 09VO 02VC 02MD 02MO 02MC 02RD 02RO	1	0	1.37145900726	-169.0	218.0	-177	222	1
2.7	2015_May_08_1312	s	s	4	5	SIC	475	ABS	2	1	02VD 10VO 02VC 02MD 02MO 02MC 02RD 02RO	0	1	1.72960209846	None	None	None	None	1
2.7	2015_May_08_1312	s	s	4	5	SIC	476	RC	2	0	02VD 02VO 09VC 02MD 02MO 02MC 02RD 02RO	1	0	0.958667039871	158.0	125.0	158	128	1
2.7	2015_May_08_1312	s	s	4	5	SIC	477	RC	0	2	02VD 02VO 02VC 02MD 02MO 02MC 09RD 02RO	1	0	1.41865897179	348.0	-19.0	343	-16	1
2.7	2015_May_08_1312	s	s	4	5	SIC	478	ABS	2	0	02VD 02VO 10VC 02MD 02MO 02MC 02RD 02RO	0	1	2.24487614632	None	None	None	None	1
2.7	2015_May_08_1312	s	s	4	5	SIC	479	RC	1	1	02VD 02VO 02VC 02MD 09MO 02MC 02RD 02RO	1	0	1.54860091209	491.0	323.0	498	328	1
2.7	2015_May_08_1312	s	s	4	5	SIC	480	ABS	0	1	02VD 02VO 02VC 02MD 02MO 02MC 02RD 10RO	0	1	3.77324199677	None	None	None	None	1
