Version	Date	Stimuli	Method	Subject	Session	Condition	Trial	Target	Channel1	Channel2	Distractors	LMouseButton	RMouseButton	RT	TargetX	TargetY	ResponseX	ResponseY	Correct
2.7	2015_May_04_1311	s	s	4	1	Capacity	1	ABS	0	2	16RD 08RO	0	1	0.917509078979	None	None	None	None	1
2.7	2015_May_04_1311	s	s	4	1	Capacity	2	ABS	0	1	08RD 16RO	0	1	1.37149000168	None	None	None	None	1
2.7	2015_May_04_1311	s	s	4	1	Capacity	3	RC	0	1	08RD 15RO	0	1	0.823312044144	466.0	-316.0	None	None	0
2.7	2015_May_04_1311	s	s	4	1	Capacity	4	RC	0	2	15RD 08RO	0	1	1.26577687263	531.0	-227.0	None	None	0
2.7	2015_May_04_1311	s	s	4	1	Capacity	5	RC	0	2	15RD 08RO	1	0	0.705581903458	133.0	298.0	132	297	1
2.7	2015_May_04_1311	s	s	4	1	Capacity	6	ABS	0	2	16RD 08RO	0	1	1.61195111275	None	None	None	None	1
2.7	2015_May_04_1311	s	s	4	1	Capacity	7	RC	0	1	08RD 15RO	1	0	1.25391888618	-340.0	-245.0	-334	-253	1
2.7	2015_May_04_1311	s	s	4	1	Capacity	8	ABS	0	1	08RD 16RO	0	1	1.46590304375	None	None	None	None	1
2.7	2015_May_04_1311	s	s	4	1	Capacity	9	ABS	0	1	08RD 16RO	0	1	1.71829319	None	None	None	None	1
2.7	2015_May_04_1311	s	s	4	1	Capacity	10	RC	0	2	15RD 08RO	0	1	1.60020089149	-378.0	-128.0	None	None	0
2.7	2015_May_04_1311	s	s	4	1	Capacity	11	ABS	0	2	16RD 08RO	0	1	1.86592793465	None	None	None	None	1
2.7	2015_May_04_1311	s	s	4	1	Capacity	12	RC	0	1	08RD 15RO	0	1	2.43590497971	-222.0	-325.0	None	None	0
2.7	2015_May_04_1311	s	s	4	1	Capacity	13	RC	0	1	08RD 15RO	0	1	1.7300131321	14.0	329.0	None	None	0
2.7	2015_May_04_1311	s	s	4	1	Capacity	14	RC	0	2	15RD 08RO	0	1	1.51779103279	-232.0	110.0	None	None	0
2.7	2015_May_04_1311	s	s	4	1	Capacity	15	ABS	0	2	16RD 08RO	0	1	2.06536889076	None	None	None	None	1
2.7	2015_May_04_1311	s	s	4	1	Capacity	16	ABS	0	1	08RD 16RO	0	1	1.88709211349	None	None	None	None	1
2.7	2015_May_04_1311	s	s	4	1	Capacity	17	RC	0	2	15RD 08RO	1	0	1.42359805107	299.0	-110.0	295	-113	1
2.7	2015_May_04_1311	s	s	4	1	Capacity	18	ABS	0	1	08RD 16RO	0	1	1.58312892914	None	None	None	None	1
2.7	2015_May_04_1311	s	s	4	1	Capacity	19	ABS	0	2	16RD 08RO	0	1	2.06610298157	None	None	None	None	1
2.7	2015_May_04_1311	s	s	4	1	Capacity	20	RC	0	1	08RD 15RO	0	1	2.02386808395	337.0	-301.0	None	None	0
2.7	2015_May_04_1311	s	s	4	1	Capacity	21	RC	0	1	08RD 15RO	1	0	1.0863571167	213.0	-25.0	204	-22	1
2.7	2015_May_04_1311	s	s	4	1	Capacity	22	ABS	0	2	16RD 08RO	0	1	2.11804080009	None	None	None	None	1
2.7	2015_May_04_1311	s	s	4	1	Capacity	23	RC	0	2	15RD 08RO	0	1	2.31817889214	34.0	-399.0	None	None	0
2.7	2015_May_04_1311	s	s	4	1	Capacity	24	ABS	0	1	08RD 16RO	1	0	2.44810795784	None	None	361	-341	0
2.7	2015_May_04_1311	s	s	4	1	Capacity	25	RC	0	1	08RD 15RO	1	0	0.983103990555	5.0	-65.0	5	-69	1
2.7	2015_May_04_1311	s	s	4	1	Capacity	26	RC	0	2	15RD 08RO	0	1	2.40591979027	-239.0	247.0	None	None	0
2.7	2015_May_04_1311	s	s	4	1	Capacity	27	ABS	0	2	16RD 08RO	0	1	2.24486804008	None	None	None	None	1
2.7	2015_May_04_1311	s	s	4	1	Capacity	28	ABS	0	1	08RD 16RO	0	1	3.00088381767	None	None	None	None	1
2.7	2015_May_04_1311	s	s	4	1	Capacity	29	RC	0	2	15RD 08RO	0	1	2.49839615822	367.0	320.0	None	None	0
2.7	2015_May_04_1311	s	s	4	1	Capacity	30	RC	0	1	08RD 15RO	1	0	2.67132306099	304.0	-246.0	298	-247	1
2.7	2015_May_04_1311	s	s	4	1	Capacity	31	ABS	0	1	08RD 16RO	0	1	3.51888012886	None	None	None	None	1
2.7	2015_May_04_1311	s	s	4	1	Capacity	32	ABS	0	2	16RD 08RO	0	1	3.03259301186	None	None	None	None	1
2.7	2015_May_04_1311	s	s	4	1	Capacity	33	RC	0	2	15RD 08RO	1	0	2.91491103172	217.0	-212.0	216	-206	1
2.7	2015_May_04_1311	s	s	4	1	Capacity	34	RC	0	1	08RD 15RO	1	0	1.60920000076	-71.0	214.0	-68	218	1
2.7	2015_May_04_1311	s	s	4	1	Capacity	35	ABS	0	2	16RD 08RO	0	1	2.73890781403	None	None	None	None	1
2.7	2015_May_04_1311	s	s	4	1	Capacity	36	ABS	0	1	08RD 16RO	0	1	3.53063893318	None	None	None	None	1
2.7	2015_May_04_1311	s	s	4	1	Capacity	37	ABS	0	2	16RD 08RO	0	1	2.59321904182	None	None	None	None	1
2.7	2015_May_04_1311	s	s	4	1	Capacity	38	RC	0	1	08RD 15RO	0	1	3.17232203484	457.0	-195.0	None	None	0
2.7	2015_May_04_1311	s	s	4	1	Capacity	39	ABS	0	1	08RD 16RO	0	1	3.02439880371	None	None	None	None	1
2.7	2015_May_04_1311	s	s	4	1	Capacity	40	RC	0	2	15RD 08RO	0	1	3.30694794655	-57.0	-311.0	None	None	0
2.7	2015_May_04_1311	s	s	4	1	Capacity	41	RC	0	1	08RD 15RO	1	0	1.54133987427	-523.0	4.0	-520	5	1
2.7	2015_May_04_1311	s	s	4	1	Capacity	42	ABS	0	2	16RD 08RO	0	1	2.58505010605	None	None	None	None	1
2.7	2015_May_04_1311	s	s	4	1	Capacity	43	ABS	0	1	08RD 16RO	0	1	3.16605091095	None	None	None	None	1
2.7	2015_May_04_1311	s	s	4	1	Capacity	44	RC	0	2	15RD 08RO	0	1	3.23337197304	327.0	357.0	None	None	0
2.7	2015_May_04_1311	s	s	4	1	Capacity	45	RC	0	2	15RD 08RO	1	0	1.49423193932	-11.0	-27.0	-10	-30	1
2.7	2015_May_04_1311	s	s	4	1	Capacity	46	ABS	0	1	08RD 16RO	0	1	4.3427670002	None	None	None	None	1
2.7	2015_May_04_1311	s	s	4	1	Capacity	47	ABS	0	2	16RD 08RO	0	1	3.16269207001	None	None	None	None	1
2.7	2015_May_04_1311	s	s	4	1	Capacity	48	RC	0	1	08RD 15RO	1	0	4.17553281784	512.0	-316.0	498	-310	1
2.7	2015_May_04_1311	s	s	4	1	Capacity	49	RC	0	1	08RD 15RO	0	1	4.51395392418	148.0	124.0	None	None	0
2.7	2015_May_04_1311	s	s	4	1	Capacity	50	ABS	0	2	16RD 08RO	0	1	3.83399200439	None	None	None	None	1
2.7	2015_May_04_1311	s	s	4	1	Capacity	51	RC	0	2	15RD 08RO	1	0	1.51330900192	-330.0	97.0	-329	106	1
2.7	2015_May_04_1311	s	s	4	1	Capacity	52	ABS	0	1	08RD 16RO	0	1	5.12629699707	None	None	None	None	1
2.7	2015_May_04_1311	s	s	4	1	Capacity	53	RC	0	2	15RD 08RO	1	0	1.70598697662	-140.0	-258.0	-136	-264	1
2.7	2015_May_04_1311	s	s	4	1	Capacity	54	ABS	0	1	08RD 16RO	0	1	4.38984894753	None	None	None	None	1
2.7	2015_May_04_1311	s	s	4	1	Capacity	55	RC	0	1	08RD 15RO	1	0	0.893849134445	-82.0	-131.0	-77	-126	1
2.7	2015_May_04_1311	s	s	4	1	Capacity	56	ABS	0	2	16RD 08RO	0	1	3.47169804573	None	None	None	None	1
2.7	2015_May_04_1311	s	s	4	1	Capacity	57	RC	0	2	15RD 08RO	1	0	1.28230810165	351.0	33.0	356	32	1
2.7	2015_May_04_1311	s	s	4	1	Capacity	58	ABS	0	1	08RD 16RO	0	1	4.57488298416	None	None	None	None	1
2.7	2015_May_04_1311	s	s	4	1	Capacity	59	ABS	0	2	16RD 08RO	0	1	3.74245381355	None	None	None	None	1
2.7	2015_May_04_1311	s	s	4	1	Capacity	60	RC	0	1	08RD 15RO	1	0	2.65952205658	289.0	-21.0	288	-28	1
2.7	2015_May_04_1311	s	s	4	1	Capacity	61	RC	0	2	15RD 08RO	0	1	1.31426692009	416.0	76.0	None	None	0
2.7	2015_May_04_1311	s	s	4	1	Capacity	62	RC	0	1	08RD 15RO	0	1	4.14266514778	450.0	-175.0	None	None	0
2.7	2015_May_04_1311	s	s	4	1	Capacity	63	ABS	0	2	16RD 08RO	0	1	3.46663498878	None	None	None	None	1
2.7	2015_May_04_1311	s	s	4	1	Capacity	64	ABS	0	1	08RD 16RO	0	1	3.72759008408	None	None	None	None	1
2.7	2015_May_04_1311	s	s	4	1	Capacity	1	ABS	2	0	16VC 08MC	0	1	2.22404289246	None	None	None	None	1
2.7	2015_May_04_1311	s	s	4	1	Capacity	2	RC	2	0	15VC 08MC	1	0	1.71289801598	183.0	400.0	351	-411	0
2.7	2015_May_04_1311	s	s	4	1	Capacity	3	ABS	1	0	08VC 16MC	0	1	2.84783196449	None	None	None	None	1
2.7	2015_May_04_1311	s	s	4	1	Capacity	4	RC	1	0	08VC 15MC	1	0	1.77706694603	-476.0	-296.0	-476	-299	1
2.7	2015_May_04_1311	s	s	4	1	Capacity	5	ABS	2	0	16VC 08MC	0	1	2.91361904144	None	None	None	None	1
2.7	2015_May_04_1311	s	s	4	1	Capacity	6	ABS	1	0	08VC 16MC	0	1	7.63855195045	None	None	None	None	1
2.7	2015_May_04_1311	s	s	4	1	Capacity	7	RC	1	0	08VC 15MC	1	0	1.51777601242	190.0	-28.0	191	-32	1
2.7	2015_May_04_1311	s	s	4	1	Capacity	8	RC	2	0	15VC 08MC	1	0	2.24204015732	189.0	-174.0	197	-174	1
2.7	2015_May_04_1311	s	s	4	1	Capacity	9	ABS	2	0	16VC 08MC	0	1	2.26651716232	None	None	None	None	1
2.7	2015_May_04_1311	s	s	4	1	Capacity	10	RC	2	0	15VC 08MC	1	0	1.21873402596	61.0	-116.0	63	-119	1
2.7	2015_May_04_1311	s	s	4	1	Capacity	11	RC	1	0	08VC 15MC	1	0	2.28281807899	418.0	293.0	417	302	1
2.7	2015_May_04_1311	s	s	4	1	Capacity	12	ABS	1	0	08VC 16MC	0	1	3.30192804337	None	None	None	None	1
2.7	2015_May_04_1311	s	s	4	1	Capacity	13	RC	2	0	15VC 08MC	1	0	3.7164709568	-316.0	-291.0	-322	-296	1
2.7	2015_May_04_1311	s	s	4	1	Capacity	14	ABS	2	0	16VC 08MC	0	1	4.20147204399	None	None	None	None	1
2.7	2015_May_04_1311	s	s	4	1	Capacity	15	RC	1	0	08VC 15MC	1	0	1.10138988495	-257.0	-53.0	-251	-51	1
2.7	2015_May_04_1311	s	s	4	1	Capacity	16	ABS	1	0	08VC 16MC	0	1	4.50388288498	None	None	None	None	1
2.7	2015_May_04_1311	s	s	4	1	Capacity	17	ABS	2	0	16VC 08MC	0	1	3.68106603622	None	None	None	None	1
2.7	2015_May_04_1311	s	s	4	1	Capacity	18	RC	1	0	08VC 15MC	1	0	1.64224410057	-269.0	-71.0	-270	-73	1
2.7	2015_May_04_1311	s	s	4	1	Capacity	19	ABS	1	0	08VC 16MC	0	1	4.33772182465	None	None	None	None	1
2.7	2015_May_04_1311	s	s	4	1	Capacity	20	RC	2	0	15VC 08MC	1	0	2.20716404915	227.0	-138.0	235	-142	1
2.7	2015_May_04_1311	s	s	4	1	Capacity	21	ABS	2	0	16VC 08MC	0	1	3.6599919796	None	None	None	None	1
2.7	2015_May_04_1311	s	s	4	1	Capacity	22	RC	1	0	08VC 15MC	1	0	1.17646098137	-237.0	97.0	-231	104	1
2.7	2015_May_04_1311	s	s	4	1	Capacity	23	ABS	1	0	08VC 16MC	0	1	3.6012070179	None	None	None	None	1
2.7	2015_May_04_1311	s	s	4	1	Capacity	24	RC	2	0	15VC 08MC	1	0	1.17296600342	-237.0	340.0	-234	329	1
2.7	2015_May_04_1311	s	s	4	1	Capacity	25	RC	1	0	08VC 15MC	1	0	3.50360989571	-538.0	-242.0	-540	-248	1
2.7	2015_May_04_1311	s	s	4	1	Capacity	26	ABS	1	0	08VC 16MC	0	1	5.10519886017	None	None	None	None	1
2.7	2015_May_04_1311	s	s	4	1	Capacity	27	RC	2	0	15VC 08MC	1	0	1.948595047	308.0	350.0	323	358	1
2.7	2015_May_04_1311	s	s	4	1	Capacity	28	ABS	2	0	16VC 08MC	0	1	4.04850506783	None	None	None	None	1
2.7	2015_May_04_1311	s	s	4	1	Capacity	29	RC	1	0	08VC 15MC	1	0	1.46686291695	-387.0	353.0	-374	357	1
2.7	2015_May_04_1311	s	s	4	1	Capacity	30	RC	2	0	15VC 08MC	1	0	2.7609910965	364.0	-301.0	369	-303	1
2.7	2015_May_04_1311	s	s	4	1	Capacity	31	ABS	2	0	16VC 08MC	0	1	3.14217090607	None	None	None	None	1
2.7	2015_May_04_1311	s	s	4	1	Capacity	32	ABS	1	0	08VC 16MC	0	1	3.21277785301	None	None	None	None	1
2.7	2015_May_04_1311	s	s	4	1	Capacity	33	RC	1	0	08VC 15MC	1	0	4.5781519413	238.0	-369.0	237	-370	1
2.7	2015_May_04_1311	s	s	4	1	Capacity	34	ABS	1	0	08VC 16MC	0	1	4.43182611465	None	None	None	None	1
2.7	2015_May_04_1311	s	s	4	1	Capacity	35	ABS	2	0	16VC 08MC	0	1	3.01922607422	None	None	None	None	1
2.7	2015_May_04_1311	s	s	4	1	Capacity	36	RC	2	0	15VC 08MC	1	0	1.99553394318	498.0	-248.0	491	-252	1
2.7	2015_May_04_1311	s	s	4	1	Capacity	37	ABS	2	0	16VC 08MC	0	1	3.27160787582	None	None	None	None	1
2.7	2015_May_04_1311	s	s	4	1	Capacity	38	ABS	1	0	08VC 16MC	0	1	2.9631588459	None	None	None	None	1
2.7	2015_May_04_1311	s	s	4	1	Capacity	39	RC	2	0	15VC 08MC	1	0	1.90619492531	285.0	-402.0	286	-396	1
2.7	2015_May_04_1311	s	s	4	1	Capacity	40	RC	1	0	08VC 15MC	1	0	1.96501898766	342.0	-311.0	342	-309	1
2.7	2015_May_04_1311	s	s	4	1	Capacity	41	ABS	1	0	08VC 16MC	0	1	4.64254379272	None	None	None	None	1
2.7	2015_May_04_1311	s	s	4	1	Capacity	42	ABS	2	0	16VC 08MC	0	1	3.41290998459	None	None	None	None	1
2.7	2015_May_04_1311	s	s	4	1	Capacity	43	RC	1	0	08VC 15MC	1	0	1.30032396317	390.0	396.0	390	392	1
2.7	2015_May_04_1311	s	s	4	1	Capacity	44	RC	2	0	15VC 08MC	1	0	1.05879092216	-86.0	16.0	-87	19	1
2.7	2015_May_04_1311	s	s	4	1	Capacity	45	RC	2	0	15VC 08MC	1	0	1.33794808388	149.0	-144.0	157	-141	1
2.7	2015_May_04_1311	s	s	4	1	Capacity	46	RC	1	0	08VC 15MC	0	1	3.96111392975	431.0	360.0	None	None	0
2.7	2015_May_04_1311	s	s	4	1	Capacity	47	ABS	2	0	16VC 08MC	0	1	2.67975997925	None	None	None	None	1
2.7	2015_May_04_1311	s	s	4	1	Capacity	48	ABS	1	0	08VC 16MC	0	1	4.31688284874	None	None	None	None	1
2.7	2015_May_04_1311	s	s	4	1	Capacity	49	ABS	1	0	08VC 16MC	0	1	2.71384501457	None	None	None	None	1
2.7	2015_May_04_1311	s	s	4	1	Capacity	50	RC	1	0	08VC 15MC	1	0	2.34219002724	-482.0	-189.0	-485	-188	1
2.7	2015_May_04_1311	s	s	4	1	Capacity	51	RC	2	0	15VC 08MC	1	0	3.80985498428	-395.0	228.0	-397	223	1
2.7	2015_May_04_1311	s	s	4	1	Capacity	52	ABS	2	0	16VC 08MC	0	1	3.47831296921	None	None	None	None	1
2.7	2015_May_04_1311	s	s	4	1	Capacity	53	ABS	2	0	16VC 08MC	1	0	0.924170017242	None	None	-112	-39	0
2.7	2015_May_04_1311	s	s	4	1	Capacity	54	ABS	1	0	08VC 16MC	0	1	4.45580911636	None	None	None	None	1
2.7	2015_May_04_1311	s	s	4	1	Capacity	55	RC	1	0	08VC 15MC	1	0	2.88719582558	403.0	-298.0	408	-301	1
2.7	2015_May_04_1311	s	s	4	1	Capacity	56	RC	2	0	15VC 08MC	1	0	1.65395998955	5.0	258.0	12	263	1
2.7	2015_May_04_1311	s	s	4	1	Capacity	57	RC	1	0	08VC 15MC	1	0	2.26671099663	-513.0	-310.0	-503	-312	1
2.7	2015_May_04_1311	s	s	4	1	Capacity	58	RC	2	0	15VC 08MC	1	0	1.27760100365	-92.0	-346.0	-86	-347	1
2.7	2015_May_04_1311	s	s	4	1	Capacity	59	ABS	1	0	08VC 16MC	0	1	3.52788496017	None	None	None	None	1
2.7	2015_May_04_1311	s	s	4	1	Capacity	60	ABS	2	0	16VC 08MC	0	1	2.37709498405	None	None	None	None	1
2.7	2015_May_04_1311	s	s	4	1	Capacity	61	ABS	2	0	16VC 08MC	0	1	2.86679697037	None	None	None	None	1
2.7	2015_May_04_1311	s	s	4	1	Capacity	62	RC	2	0	15VC 08MC	1	0	1.46753120422	254.0	69.0	257	58	1
2.7	2015_May_04_1311	s	s	4	1	Capacity	63	ABS	1	0	08VC 16MC	0	1	3.50200891495	None	None	None	None	1
2.7	2015_May_04_1311	s	s	4	1	Capacity	64	RC	1	0	08VC 15MC	1	0	1.43532013893	-8.0	-329.0	4	-326	1
2.7	2015_May_04_1311	s	s	4	1	SIC	1	ABS	2	0	02VD 02VO 10VC 02MD 02MO 02MC 02RD 02RO	0	1	4.84405684471	None	None	None	None	1
2.7	2015_May_04_1311	s	s	4	1	SIC	2	ABS	1	2	02VD 02VO 02VC 10MD 02MO 02MC 02RD 02RO	0	1	3.69010186195	None	None	None	None	1
2.7	2015_May_04_1311	s	s	4	1	SIC	3	RC	0	1	02VD 02VO 02VC 02MD 02MO 02MC 02RD 09RO	1	0	1.43023300171	-458.0	275.0	-462	269	1
2.7	2015_May_04_1311	s	s	4	1	SIC	4	RC	2	2	09VD 02VO 02VC 02MD 02MO 02MC 02RD 02RO	1	0	1.61852002144	-32.0	225.0	-28	227	1
2.7	2015_May_04_1311	s	s	4	1	SIC	5	RC	2	1	02VD 09VO 02VC 02MD 02MO 02MC 02RD 02RO	1	0	2.15324997902	491.0	-24.0	495	-17	1
2.7	2015_May_04_1311	s	s	4	1	SIC	6	RC	0	2	02VD 02VO 02VC 02MD 02MO 02MC 09RD 02RO	0	1	2.67831492424	-229.0	27.0	None	None	0
2.7	2015_May_04_1311	s	s	4	1	SIC	7	RC	1	1	02VD 02VO 02VC 02MD 09MO 02MC 02RD 02RO	1	0	3.74920105934	-299.0	-262.0	-303	-253	1
2.7	2015_May_04_1311	s	s	4	1	SIC	8	RC	2	0	02VD 02VO 09VC 02MD 02MO 02MC 02RD 02RO	1	0	1.97446203232	107.0	-380.0	105	-382	1
2.7	2015_May_04_1311	s	s	4	1	SIC	9	ABS	0	1	02VD 02VO 02VC 02MD 02MO 02MC 02RD 10RO	0	1	3.90204000473	None	None	None	None	1
2.7	2015_May_04_1311	s	s	4	1	SIC	10	RC	1	0	02VD 02VO 02VC 02MD 02MO 09MC 02RD 02RO	0	1	4.60850405693	500.0	272.0	None	None	0
2.7	2015_May_04_1311	s	s	4	1	SIC	11	ABS	1	0	02VD 02VO 02VC 02MD 02MO 10MC 02RD 02RO	0	1	3.77279090881	None	None	None	None	1
2.7	2015_May_04_1311	s	s	4	1	SIC	12	ABS	2	2	10VD 02VO 02VC 02MD 02MO 02MC 02RD 02RO	0	1	3.57199001312	None	None	None	None	1
2.7	2015_May_04_1311	s	s	4	1	SIC	13	ABS	1	1	02VD 02VO 02VC 02MD 10MO 02MC 02RD 02RO	0	1	3.28380298615	None	None	None	None	1
2.7	2015_May_04_1311	s	s	4	1	SIC	14	ABS	2	1	02VD 10VO 02VC 02MD 02MO 02MC 02RD 02RO	0	1	3.28944993019	None	None	None	None	1
2.7	2015_May_04_1311	s	s	4	1	SIC	15	RC	1	2	02VD 02VO 02VC 09MD 02MO 02MC 02RD 02RO	1	0	1.52957510948	-280.0	177.0	-276	166	1
2.7	2015_May_04_1311	s	s	4	1	SIC	16	ABS	0	2	02VD 02VO 02VC 02MD 02MO 02MC 10RD 02RO	0	1	3.9727628231	None	None	None	None	1
2.7	2015_May_04_1311	s	s	4	1	SIC	17	ABS	2	0	02VD 02VO 10VC 02MD 02MO 02MC 02RD 02RO	0	1	2.76243185997	None	None	None	None	1
2.7	2015_May_04_1311	s	s	4	1	SIC	18	ABS	2	2	10VD 02VO 02VC 02MD 02MO 02MC 02RD 02RO	0	1	1.8595199585	None	None	None	None	1
2.7	2015_May_04_1311	s	s	4	1	SIC	19	RC	1	0	02VD 02VO 02VC 02MD 02MO 09MC 02RD 02RO	1	0	1.93637800217	287.0	-143.0	297	-140	1
2.7	2015_May_04_1311	s	s	4	1	SIC	20	RC	1	1	02VD 02VO 02VC 02MD 09MO 02MC 02RD 02RO	1	0	2.03553509712	119.0	-304.0	115	-308	1
2.7	2015_May_04_1311	s	s	4	1	SIC	21	ABS	0	1	02VD 02VO 02VC 02MD 02MO 02MC 02RD 10RO	0	1	3.86739706993	None	None	None	None	1
2.7	2015_May_04_1311	s	s	4	1	SIC	22	RC	0	2	02VD 02VO 02VC 02MD 02MO 02MC 09RD 02RO	1	0	1.63139390945	180.0	-271.0	188	-274	1
2.7	2015_May_04_1311	s	s	4	1	SIC	23	ABS	1	2	02VD 02VO 02VC 10MD 02MO 02MC 02RD 02RO	0	1	2.9067261219	None	None	None	None	1
2.7	2015_May_04_1311	s	s	4	1	SIC	24	RC	2	2	09VD 02VO 02VC 02MD 02MO 02MC 02RD 02RO	1	0	1.2588300705	-106.0	164.0	-114	163	1
2.7	2015_May_04_1311	s	s	4	1	SIC	25	RC	1	2	02VD 02VO 02VC 09MD 02MO 02MC 02RD 02RO	1	0	2.3535130024	-506.0	231.0	-502	237	1
2.7	2015_May_04_1311	s	s	4	1	SIC	26	RC	2	1	02VD 09VO 02VC 02MD 02MO 02MC 02RD 02RO	1	0	1.14113402367	-243.0	237.0	-248	237	1
2.7	2015_May_04_1311	s	s	4	1	SIC	27	ABS	2	1	02VD 10VO 02VC 02MD 02MO 02MC 02RD 02RO	0	1	2.83603000641	None	None	None	None	1
2.7	2015_May_04_1311	s	s	4	1	SIC	28	ABS	1	1	02VD 02VO 02VC 02MD 10MO 02MC 02RD 02RO	0	1	3.24321508408	None	None	None	None	1
2.7	2015_May_04_1311	s	s	4	1	SIC	29	ABS	0	2	02VD 02VO 02VC 02MD 02MO 02MC 10RD 02RO	0	1	2.57310891151	None	None	None	None	1
2.7	2015_May_04_1311	s	s	4	1	SIC	30	ABS	1	0	02VD 02VO 02VC 02MD 02MO 10MC 02RD 02RO	0	1	3.50745296478	None	None	None	None	1
2.7	2015_May_04_1311	s	s	4	1	SIC	31	RC	0	1	02VD 02VO 02VC 02MD 02MO 02MC 02RD 09RO	1	0	2.17431616783	28.0	-149.0	26	-143	1
2.7	2015_May_04_1311	s	s	4	1	SIC	32	RC	2	0	02VD 02VO 09VC 02MD 02MO 02MC 02RD 02RO	1	0	2.03978085518	126.0	353.0	125	350	1
2.7	2015_May_04_1311	s	s	4	1	SIC	33	ABS	1	0	02VD 02VO 02VC 02MD 02MO 10MC 02RD 02RO	0	1	3.69135499001	None	None	None	None	1
2.7	2015_May_04_1311	s	s	4	1	SIC	34	ABS	0	2	02VD 02VO 02VC 02MD 02MO 02MC 10RD 02RO	0	1	3.94249510765	None	None	None	None	1
2.7	2015_May_04_1311	s	s	4	1	SIC	35	ABS	2	2	10VD 02VO 02VC 02MD 02MO 02MC 02RD 02RO	0	1	3.16064310074	None	None	None	None	1
2.7	2015_May_04_1311	s	s	4	1	SIC	36	ABS	1	2	02VD 02VO 02VC 10MD 02MO 02MC 02RD 02RO	0	1	3.86822509766	None	None	None	None	1
2.7	2015_May_04_1311	s	s	4	1	SIC	37	ABS	1	1	02VD 02VO 02VC 02MD 10MO 02MC 02RD 02RO	0	1	2.98912191391	None	None	None	None	1
2.7	2015_May_04_1311	s	s	4	1	SIC	38	RC	2	0	02VD 02VO 09VC 02MD 02MO 02MC 02RD 02RO	1	0	2.38568806648	170.0	-310.0	172	-301	1
2.7	2015_May_04_1311	s	s	4	1	SIC	39	RC	1	0	02VD 02VO 02VC 02MD 02MO 09MC 02RD 02RO	1	0	1.57666492462	-174.0	-111.0	-173	-113	1
2.7	2015_May_04_1311	s	s	4	1	SIC	40	RC	0	1	02VD 02VO 02VC 02MD 02MO 02MC 02RD 09RO	1	0	1.51771593094	-118.0	101.0	-110	106	1
2.7	2015_May_04_1311	s	s	4	1	SIC	41	RC	2	1	02VD 09VO 02VC 02MD 02MO 02MC 02RD 02RO	1	0	1.22354912758	-494.0	194.0	-502	192	1
2.7	2015_May_04_1311	s	s	4	1	SIC	42	RC	1	1	02VD 02VO 02VC 02MD 09MO 02MC 02RD 02RO	1	0	1.74139904976	-222.0	-162.0	-218	-164	1
2.7	2015_May_04_1311	s	s	4	1	SIC	43	RC	0	2	02VD 02VO 02VC 02MD 02MO 02MC 09RD 02RO	1	0	2.4435479641	-432.0	322.0	-434	325	1
2.7	2015_May_04_1311	s	s	4	1	SIC	44	ABS	2	1	02VD 10VO 02VC 02MD 02MO 02MC 02RD 02RO	0	1	4.24499583244	None	None	None	None	1
2.7	2015_May_04_1311	s	s	4	1	SIC	45	ABS	2	0	02VD 02VO 10VC 02MD 02MO 02MC 02RD 02RO	0	1	3.09143900871	None	None	None	None	1
2.7	2015_May_04_1311	s	s	4	1	SIC	46	RC	1	2	02VD 02VO 02VC 09MD 02MO 02MC 02RD 02RO	1	0	1.44268798828	313.0	40.0	318	45	1
2.7	2015_May_04_1311	s	s	4	1	SIC	47	ABS	0	1	02VD 02VO 02VC 02MD 02MO 02MC 02RD 10RO	0	1	4.28998708725	None	None	None	None	1
2.7	2015_May_04_1311	s	s	4	1	SIC	48	RC	2	2	09VD 02VO 02VC 02MD 02MO 02MC 02RD 02RO	1	0	2.38875603676	48.0	-241.0	45	-249	1
2.7	2015_May_04_1311	s	s	4	1	SIC	49	ABS	0	1	02VD 02VO 02VC 02MD 02MO 02MC 02RD 10RO	0	1	3.64828681946	None	None	None	None	1
2.7	2015_May_04_1311	s	s	4	1	SIC	50	ABS	1	2	02VD 02VO 02VC 10MD 02MO 02MC 02RD 02RO	0	1	2.78893399239	None	None	None	None	1
2.7	2015_May_04_1311	s	s	4	1	SIC	51	RC	2	1	02VD 09VO 02VC 02MD 02MO 02MC 02RD 02RO	1	0	1.12456798553	-246.0	233.0	-246	232	1
2.7	2015_May_04_1311	s	s	4	1	SIC	52	RC	2	0	02VD 02VO 09VC 02MD 02MO 02MC 02RD 02RO	1	0	2.14159202576	406.0	149.0	400	153	1
2.7	2015_May_04_1311	s	s	4	1	SIC	53	RC	2	2	09VD 02VO 02VC 02MD 02MO 02MC 02RD 02RO	1	0	1.22347617149	208.0	102.0	207	102	1
2.7	2015_May_04_1311	s	s	4	1	SIC	54	RC	1	1	02VD 02VO 02VC 02MD 09MO 02MC 02RD 02RO	1	0	1.74142003059	403.0	-333.0	399	-329	1
2.7	2015_May_04_1311	s	s	4	1	SIC	55	ABS	2	1	02VD 10VO 02VC 02MD 02MO 02MC 02RD 02RO	0	1	2.91848301888	None	None	None	None	1
2.7	2015_May_04_1311	s	s	4	1	SIC	56	ABS	2	0	02VD 02VO 10VC 02MD 02MO 02MC 02RD 02RO	0	1	3.03134202957	None	None	None	None	1
2.7	2015_May_04_1311	s	s	4	1	SIC	57	RC	1	2	02VD 02VO 02VC 09MD 02MO 02MC 02RD 02RO	1	0	1.87124085426	-515.0	75.0	-502	81	1
2.7	2015_May_04_1311	s	s	4	1	SIC	58	ABS	1	1	02VD 02VO 02VC 02MD 10MO 02MC 02RD 02RO	0	1	2.96554899216	None	None	None	None	1
2.7	2015_May_04_1311	s	s	4	1	SIC	59	ABS	2	2	10VD 02VO 02VC 02MD 02MO 02MC 02RD 02RO	0	1	2.74886322021	None	None	None	None	1
2.7	2015_May_04_1311	s	s	4	1	SIC	60	ABS	1	0	02VD 02VO 02VC 02MD 02MO 10MC 02RD 02RO	0	1	3.18444895744	None	None	None	None	1
2.7	2015_May_04_1311	s	s	4	1	SIC	61	ABS	0	2	02VD 02VO 02VC 02MD 02MO 02MC 10RD 02RO	0	1	2.80850696564	None	None	None	None	1
2.7	2015_May_04_1311	s	s	4	1	SIC	62	RC	0	1	02VD 02VO 02VC 02MD 02MO 02MC 02RD 09RO	1	0	2.85958981514	-442.0	-79.0	-437	-78	1
2.7	2015_May_04_1311	s	s	4	1	SIC	63	RC	1	0	02VD 02VO 02VC 02MD 02MO 09MC 02RD 02RO	1	0	1.47919106483	285.0	-391.0	281	-383	1
2.7	2015_May_04_1311	s	s	4	1	SIC	64	RC	0	2	02VD 02VO 02VC 02MD 02MO 02MC 09RD 02RO	1	0	1.72635889053	53.0	246.0	55	242	1
2.7	2015_May_04_1311	s	s	4	1	SIC	65	RC	0	2	02VD 02VO 02VC 02MD 02MO 02MC 09RD 02RO	1	0	2.51495695114	-514.0	-372.0	-509	-363	1
2.7	2015_May_04_1311	s	s	4	1	SIC	66	ABS	2	1	02VD 10VO 02VC 02MD 02MO 02MC 02RD 02RO	0	1	2.91363382339	None	None	None	None	1
2.7	2015_May_04_1311	s	s	4	1	SIC	67	RC	2	2	09VD 02VO 02VC 02MD 02MO 02MC 02RD 02RO	1	0	2.91402411461	423.0	-336.0	424	-331	1
2.7	2015_May_04_1311	s	s	4	1	SIC	68	RC	0	1	02VD 02VO 02VC 02MD 02MO 02MC 02RD 09RO	1	0	1.47061800957	333.0	-310.0	338	-308	1
2.7	2015_May_04_1311	s	s	4	1	SIC	69	ABS	0	2	02VD 02VO 02VC 02MD 02MO 02MC 10RD 02RO	0	1	4.19324612617	None	None	None	None	1
2.7	2015_May_04_1311	s	s	4	1	SIC	70	RC	1	0	02VD 02VO 02VC 02MD 02MO 09MC 02RD 02RO	1	0	1.1951611042	-246.0	389.0	-245	394	1
2.7	2015_May_04_1311	s	s	4	1	SIC	71	ABS	0	1	02VD 02VO 02VC 02MD 02MO 02MC 02RD 10RO	0	1	4.58723378181	None	None	None	None	1
2.7	2015_May_04_1311	s	s	4	1	SIC	72	ABS	1	0	02VD 02VO 02VC 02MD 02MO 10MC 02RD 02RO	0	1	3.71894097328	None	None	None	None	1
2.7	2015_May_04_1311	s	s	4	1	SIC	73	ABS	1	2	02VD 02VO 02VC 10MD 02MO 02MC 02RD 02RO	0	1	2.58399295807	None	None	None	None	1
2.7	2015_May_04_1311	s	s	4	1	SIC	74	ABS	2	2	10VD 02VO 02VC 02MD 02MO 02MC 02RD 02RO	0	1	2.32997918129	None	None	None	None	1
2.7	2015_May_04_1311	s	s	4	1	SIC	75	RC	1	1	02VD 02VO 02VC 02MD 09MO 02MC 02RD 02RO	1	0	1.87934994698	478.0	303.0	471	306	1
2.7	2015_May_04_1311	s	s	4	1	SIC	76	ABS	2	0	02VD 02VO 10VC 02MD 02MO 02MC 02RD 02RO	0	1	2.87735891342	None	None	None	None	1
2.7	2015_May_04_1311	s	s	4	1	SIC	77	RC	2	1	02VD 09VO 02VC 02MD 02MO 02MC 02RD 02RO	1	0	1.42957401276	-521.0	231.0	-522	221	1
2.7	2015_May_04_1311	s	s	4	1	SIC	78	RC	2	0	02VD 02VO 09VC 02MD 02MO 02MC 02RD 02RO	1	0	1.10601210594	-369.0	-328.0	-367	-341	1
2.7	2015_May_04_1311	s	s	4	1	SIC	79	RC	1	2	02VD 02VO 02VC 09MD 02MO 02MC 02RD 02RO	1	0	0.985216140747	-316.0	-343.0	-316	-346	1
2.7	2015_May_04_1311	s	s	4	1	SIC	80	ABS	1	1	02VD 02VO 02VC 02MD 10MO 02MC 02RD 02RO	0	1	2.27794480324	None	None	None	None	1
2.7	2015_May_04_1311	s	s	4	1	SIC	81	RC	1	1	02VD 02VO 02VC 02MD 09MO 02MC 02RD 02RO	1	0	1.12450695038	-116.0	224.0	-119	221	1
2.7	2015_May_04_1311	s	s	4	1	SIC	82	RC	2	2	09VD 02VO 02VC 02MD 02MO 02MC 02RD 02RO	1	0	1.33852005005	-484.0	-195.0	-481	-187	1
2.7	2015_May_04_1311	s	s	4	1	SIC	83	ABS	1	2	02VD 02VO 02VC 10MD 02MO 02MC 02RD 02RO	0	1	3.46000504494	None	None	None	None	1
2.7	2015_May_04_1311	s	s	4	1	SIC	84	ABS	2	1	02VD 10VO 02VC 02MD 02MO 02MC 02RD 02RO	0	1	2.80074691772	None	None	None	None	1
2.7	2015_May_04_1311	s	s	4	1	SIC	85	RC	2	0	02VD 02VO 09VC 02MD 02MO 02MC 02RD 02RO	1	0	1.27761411667	-375.0	-101.0	-369	-100	1
2.7	2015_May_04_1311	s	s	4	1	SIC	86	RC	0	2	02VD 02VO 02VC 02MD 02MO 02MC 09RD 02RO	1	0	2.58931899071	163.0	267.0	167	265	1
2.7	2015_May_04_1311	s	s	4	1	SIC	87	ABS	0	2	02VD 02VO 02VC 02MD 02MO 02MC 10RD 02RO	0	1	3.57769989967	None	None	None	None	1
2.7	2015_May_04_1311	s	s	4	1	SIC	88	RC	1	0	02VD 02VO 02VC 02MD 02MO 09MC 02RD 02RO	1	0	2.61246490479	-35.0	-277.0	-36	-274	1
2.7	2015_May_04_1311	s	s	4	1	SIC	89	ABS	0	1	02VD 02VO 02VC 02MD 02MO 02MC 02RD 10RO	1	0	4.3377931118	None	None	-494	-186	0
2.7	2015_May_04_1311	s	s	4	1	SIC	90	RC	2	1	02VD 09VO 02VC 02MD 02MO 02MC 02RD 02RO	1	0	0.929261922836	-214.0	-172.0	-211	-165	1
2.7	2015_May_04_1311	s	s	4	1	SIC	91	RC	1	2	02VD 02VO 02VC 09MD 02MO 02MC 02RD 02RO	1	0	1.31265497208	-384.0	193.0	-387	195	1
2.7	2015_May_04_1311	s	s	4	1	SIC	92	ABS	2	0	02VD 02VO 10VC 02MD 02MO 02MC 02RD 02RO	0	1	3.19581913948	None	None	None	None	1
2.7	2015_May_04_1311	s	s	4	1	SIC	93	RC	0	1	02VD 02VO 02VC 02MD 02MO 02MC 02RD 09RO	1	0	2.33690690994	-202.0	-35.0	-206	-38	1
2.7	2015_May_04_1311	s	s	4	1	SIC	94	ABS	2	2	10VD 02VO 02VC 02MD 02MO 02MC 02RD 02RO	0	1	2.67510700226	None	None	None	None	1
2.7	2015_May_04_1311	s	s	4	1	SIC	95	ABS	1	1	02VD 02VO 02VC 02MD 10MO 02MC 02RD 02RO	0	1	3.06667900085	None	None	None	None	1
2.7	2015_May_04_1311	s	s	4	1	SIC	96	ABS	1	0	02VD 02VO 02VC 02MD 02MO 10MC 02RD 02RO	0	1	3.68392896652	None	None	None	None	1
2.7	2015_May_04_1311	s	s	4	1	SIC	97	RC	2	1	02VD 09VO 02VC 02MD 02MO 02MC 02RD 02RO	1	0	1.45248818398	-524.0	-107.0	-528	-101	1
2.7	2015_May_04_1311	s	s	4	1	SIC	98	RC	2	2	09VD 02VO 02VC 02MD 02MO 02MC 02RD 02RO	1	0	1.90625810623	271.0	66.0	280	68	1
2.7	2015_May_04_1311	s	s	4	1	SIC	99	ABS	1	2	02VD 02VO 02VC 10MD 02MO 02MC 02RD 02RO	0	1	2.21901082993	None	None	None	None	1
2.7	2015_May_04_1311	s	s	4	1	SIC	100	RC	0	2	02VD 02VO 02VC 02MD 02MO 02MC 09RD 02RO	0	1	3.82161998749	248.0	-28.0	None	None	0
2.7	2015_May_04_1311	s	s	4	1	SIC	101	RC	1	1	02VD 02VO 02VC 02MD 09MO 02MC 02RD 02RO	1	0	1.02711510658	-411.0	-72.0	-411	-72	1
2.7	2015_May_04_1311	s	s	4	1	SIC	102	ABS	1	0	02VD 02VO 02VC 02MD 02MO 10MC 02RD 02RO	0	1	4.45556497574	None	None	None	None	1
2.7	2015_May_04_1311	s	s	4	1	SIC	103	ABS	2	2	10VD 02VO 02VC 02MD 02MO 02MC 02RD 02RO	0	1	2.97750401497	None	None	None	None	1
2.7	2015_May_04_1311	s	s	4	1	SIC	104	RC	2	0	02VD 02VO 09VC 02MD 02MO 02MC 02RD 02RO	1	0	1.55868911743	196.0	223.0	198	221	1
2.7	2015_May_04_1311	s	s	4	1	SIC	105	RC	1	0	02VD 02VO 02VC 02MD 02MO 09MC 02RD 02RO	1	0	3.94255304337	-476.0	-114.0	-475	-109	1
2.7	2015_May_04_1311	s	s	4	1	SIC	106	ABS	0	2	02VD 02VO 02VC 02MD 02MO 02MC 10RD 02RO	0	1	2.76544308662	None	None	None	None	1
2.7	2015_May_04_1311	s	s	4	1	SIC	107	ABS	0	1	02VD 02VO 02VC 02MD 02MO 02MC 02RD 10RO	0	1	3.68352508545	None	None	None	None	1
2.7	2015_May_04_1311	s	s	4	1	SIC	108	ABS	1	1	02VD 02VO 02VC 02MD 10MO 02MC 02RD 02RO	0	1	3.06667900085	None	None	None	None	1
2.7	2015_May_04_1311	s	s	4	1	SIC	109	RC	0	1	02VD 02VO 02VC 02MD 02MO 02MC 02RD 09RO	1	0	1.31825399399	389.0	196.0	381	205	1
2.7	2015_May_04_1311	s	s	4	1	SIC	110	ABS	2	0	02VD 02VO 10VC 02MD 02MO 02MC 02RD 02RO	0	1	2.69481682777	None	None	None	None	1
2.7	2015_May_04_1311	s	s	4	1	SIC	111	ABS	2	1	02VD 10VO 02VC 02MD 02MO 02MC 02RD 02RO	0	1	2.97733902931	None	None	None	None	1
2.7	2015_May_04_1311	s	s	4	1	SIC	112	RC	1	2	02VD 02VO 02VC 09MD 02MO 02MC 02RD 02RO	1	0	1.94154000282	480.0	101.0	474	93	1
2.7	2015_May_04_1311	s	s	4	1	SIC	113	ABS	1	0	02VD 02VO 02VC 02MD 02MO 10MC 02RD 02RO	0	1	3.76593995094	None	None	None	None	1
2.7	2015_May_04_1311	s	s	4	1	SIC	114	ABS	2	0	02VD 02VO 10VC 02MD 02MO 02MC 02RD 02RO	0	1	3.03659105301	None	None	None	None	1
2.7	2015_May_04_1311	s	s	4	1	SIC	115	RC	2	2	09VD 02VO 02VC 02MD 02MO 02MC 02RD 02RO	1	0	2.97731518745	-55.0	348.0	-48	352	1
2.7	2015_May_04_1311	s	s	4	1	SIC	116	RC	1	0	02VD 02VO 02VC 02MD 02MO 09MC 02RD 02RO	1	0	1.37107491493	-385.0	-213.0	-385	-206	1
2.7	2015_May_04_1311	s	s	4	1	SIC	117	ABS	1	1	02VD 02VO 02VC 02MD 10MO 02MC 02RD 02RO	0	1	3.53742289543	None	None	None	None	1
2.7	2015_May_04_1311	s	s	4	1	SIC	118	ABS	0	2	02VD 02VO 02VC 02MD 02MO 02MC 10RD 02RO	0	1	2.8600769043	None	None	None	None	1
2.7	2015_May_04_1311	s	s	4	1	SIC	119	RC	0	2	02VD 02VO 02VC 02MD 02MO 02MC 09RD 02RO	1	0	2.20095491409	-108.0	378.0	-104	381	1
2.7	2015_May_04_1311	s	s	4	1	SIC	120	ABS	1	2	02VD 02VO 02VC 10MD 02MO 02MC 02RD 02RO	0	1	2.46610808372	None	None	None	None	1
2.7	2015_May_04_1311	s	s	4	1	SIC	121	RC	1	2	02VD 02VO 02VC 09MD 02MO 02MC 02RD 02RO	1	0	1.83108210564	326.0	-346.0	324	-351	1
2.7	2015_May_04_1311	s	s	4	1	SIC	122	RC	0	1	02VD 02VO 02VC 02MD 02MO 02MC 02RD 09RO	0	1	3.24802899361	-366.0	246.0	None	None	0
2.7	2015_May_04_1311	s	s	4	1	SIC	123	RC	2	0	02VD 02VO 09VC 02MD 02MO 02MC 02RD 02RO	1	0	2.13648796082	92.0	-390.0	90	-400	1
2.7	2015_May_04_1311	s	s	4	1	SIC	124	RC	2	1	02VD 09VO 02VC 02MD 02MO 02MC 02RD 02RO	1	0	4.06024003029	-334.0	151.0	-333	149	1
2.7	2015_May_04_1311	s	s	4	1	SIC	125	ABS	2	2	10VD 02VO 02VC 02MD 02MO 02MC 02RD 02RO	0	1	2.13656115532	None	None	None	None	1
2.7	2015_May_04_1311	s	s	4	1	SIC	126	ABS	2	1	02VD 10VO 02VC 02MD 02MO 02MC 02RD 02RO	0	1	3.20099902153	None	None	None	None	1
2.7	2015_May_04_1311	s	s	4	1	SIC	127	ABS	0	1	02VD 02VO 02VC 02MD 02MO 02MC 02RD 10RO	0	1	3.10682082176	None	None	None	None	1
2.7	2015_May_04_1311	s	s	4	1	SIC	128	RC	1	1	02VD 02VO 02VC 02MD 09MO 02MC 02RD 02RO	1	0	2.45660591125	-6.0	270.0	-3	256	1
2.7	2015_May_04_1311	s	s	4	1	SIC	129	ABS	0	1	02VD 02VO 02VC 02MD 02MO 02MC 02RD 10RO	0	1	4.02195596695	None	None	None	None	1
2.7	2015_May_04_1311	s	s	4	1	SIC	130	RC	1	1	02VD 02VO 02VC 02MD 09MO 02MC 02RD 02RO	1	0	1.275359869	189.0	54.0	183	52	1
2.7	2015_May_04_1311	s	s	4	1	SIC	131	RC	2	0	02VD 02VO 09VC 02MD 02MO 02MC 02RD 02RO	1	0	3.17745494843	57.0	270.0	61	267	1
2.7	2015_May_04_1311	s	s	4	1	SIC	132	RC	1	2	02VD 02VO 02VC 09MD 02MO 02MC 02RD 02RO	1	0	4.2839050293	486.0	100.0	491	99	1
2.7	2015_May_04_1311	s	s	4	1	SIC	133	ABS	1	2	02VD 02VO 02VC 10MD 02MO 02MC 02RD 02RO	0	1	3.05726480484	None	None	None	None	1
2.7	2015_May_04_1311	s	s	4	1	SIC	134	ABS	2	1	02VD 10VO 02VC 02MD 02MO 02MC 02RD 02RO	0	1	2.91315317154	None	None	None	None	1
2.7	2015_May_04_1311	s	s	4	1	SIC	135	ABS	2	0	02VD 02VO 10VC 02MD 02MO 02MC 02RD 02RO	0	1	2.36575078964	None	None	None	None	1
2.7	2015_May_04_1311	s	s	4	1	SIC	136	RC	0	1	02VD 02VO 02VC 02MD 02MO 02MC 02RD 09RO	1	0	1.10081505775	28.0	90.0	17	91	1
2.7	2015_May_04_1311	s	s	4	1	SIC	137	RC	2	2	09VD 02VO 02VC 02MD 02MO 02MC 02RD 02RO	1	0	1.11762499809	-82.0	264.0	-90	260	1
2.7	2015_May_04_1311	s	s	4	1	SIC	138	RC	0	2	02VD 02VO 02VC 02MD 02MO 02MC 09RD 02RO	1	0	0.68798995018	-20.0	-20.0	-15	-23	1
2.7	2015_May_04_1311	s	s	4	1	SIC	139	ABS	2	2	10VD 02VO 02VC 02MD 02MO 02MC 02RD 02RO	0	1	2.97142791748	None	None	None	None	1
2.7	2015_May_04_1311	s	s	4	1	SIC	140	ABS	1	0	02VD 02VO 02VC 02MD 02MO 10MC 02RD 02RO	0	1	3.50697302818	None	None	None	None	1
2.7	2015_May_04_1311	s	s	4	1	SIC	141	RC	2	1	02VD 09VO 02VC 02MD 02MO 02MC 02RD 02RO	1	0	0.938278913498	-240.0	28.0	-233	30	1
2.7	2015_May_04_1311	s	s	4	1	SIC	142	ABS	0	2	02VD 02VO 02VC 02MD 02MO 02MC 10RD 02RO	0	1	2.61956095695	None	None	None	None	1
2.7	2015_May_04_1311	s	s	4	1	SIC	143	RC	1	0	02VD 02VO 02VC 02MD 02MO 09MC 02RD 02RO	1	0	1.60726213455	10.0	-385.0	6	-398	1
2.7	2015_May_04_1311	s	s	4	1	SIC	144	ABS	1	1	02VD 02VO 02VC 02MD 10MO 02MC 02RD 02RO	0	1	2.70157217979	None	None	None	None	1
2.7	2015_May_04_1311	s	s	4	1	SIC	145	ABS	1	1	02VD 02VO 02VC 02MD 10MO 02MC 02RD 02RO	0	1	2.24246001244	None	None	None	None	1
2.7	2015_May_04_1311	s	s	4	1	SIC	146	RC	2	2	09VD 02VO 02VC 02MD 02MO 02MC 02RD 02RO	1	0	2.44761109352	383.0	25.0	388	28	1
2.7	2015_May_04_1311	s	s	4	1	SIC	147	RC	0	1	02VD 02VO 02VC 02MD 02MO 02MC 02RD 09RO	1	0	3.18561601639	-270.0	-37.0	-268	-35	1
2.7	2015_May_04_1311	s	s	4	1	SIC	148	RC	1	2	02VD 02VO 02VC 09MD 02MO 02MC 02RD 02RO	1	0	1.13613510132	328.0	-48.0	323	-48	1
2.7	2015_May_04_1311	s	s	4	1	SIC	149	RC	1	1	02VD 02VO 02VC 02MD 09MO 02MC 02RD 02RO	1	0	2.27108001709	-224.0	-409.0	-218	-409	1
2.7	2015_May_04_1311	s	s	4	1	SIC	150	ABS	0	2	02VD 02VO 02VC 02MD 02MO 02MC 10RD 02RO	0	1	2.54169607162	None	None	None	None	1
2.7	2015_May_04_1311	s	s	4	1	SIC	151	ABS	1	2	02VD 02VO 02VC 10MD 02MO 02MC 02RD 02RO	0	1	2.35354304314	None	None	None	None	1
2.7	2015_May_04_1311	s	s	4	1	SIC	152	ABS	1	0	02VD 02VO 02VC 02MD 02MO 10MC 02RD 02RO	0	1	3.24307107925	None	None	None	None	1
2.7	2015_May_04_1311	s	s	4	1	SIC	153	ABS	2	2	10VD 02VO 02VC 02MD 02MO 02MC 02RD 02RO	0	1	2.13706707954	None	None	None	None	1
2.7	2015_May_04_1311	s	s	4	1	SIC	154	RC	2	1	02VD 09VO 02VC 02MD 02MO 02MC 02RD 02RO	1	0	1.66478705406	181.0	-201.0	188	-198	1
2.7	2015_May_04_1311	s	s	4	1	SIC	155	RC	2	0	02VD 02VO 09VC 02MD 02MO 02MC 02RD 02RO	1	0	1.54760909081	-416.0	-216.0	-421	-215	1
2.7	2015_May_04_1311	s	s	4	1	SIC	156	ABS	2	1	02VD 10VO 02VC 02MD 02MO 02MC 02RD 02RO	0	1	2.43595600128	None	None	None	None	1
2.7	2015_May_04_1311	s	s	4	1	SIC	157	ABS	2	0	02VD 02VO 10VC 02MD 02MO 02MC 02RD 02RO	0	1	2.51559495926	None	None	None	None	1
2.7	2015_May_04_1311	s	s	4	1	SIC	158	ABS	0	1	02VD 02VO 02VC 02MD 02MO 02MC 02RD 10RO	0	1	3.31350684166	None	None	None	None	1
2.7	2015_May_04_1311	s	s	4	1	SIC	159	RC	1	0	02VD 02VO 02VC 02MD 02MO 09MC 02RD 02RO	1	0	3.13035798073	-504.0	354.0	-504	344	1
2.7	2015_May_04_1311	s	s	4	1	SIC	160	RC	0	2	02VD 02VO 02VC 02MD 02MO 02MC 09RD 02RO	1	0	1.3944838047	185.0	-344.0	194	-346	1
2.7	2015_May_04_1311	s	s	4	1	SIC	161	RC	1	2	02VD 02VO 02VC 09MD 02MO 02MC 02RD 02RO	1	0	1.99546003342	-398.0	235.0	-394	234	1
2.7	2015_May_04_1311	s	s	4	1	SIC	162	ABS	1	2	02VD 02VO 02VC 10MD 02MO 02MC 02RD 02RO	0	1	2.91837692261	None	None	None	None	1
2.7	2015_May_04_1311	s	s	4	1	SIC	163	ABS	1	0	02VD 02VO 02VC 02MD 02MO 10MC 02RD 02RO	0	1	3.55390906334	None	None	None	None	1
2.7	2015_May_04_1311	s	s	4	1	SIC	164	ABS	0	2	02VD 02VO 02VC 02MD 02MO 02MC 10RD 02RO	0	1	2.56537985802	None	None	None	None	1
2.7	2015_May_04_1311	s	s	4	1	SIC	165	ABS	0	1	02VD 02VO 02VC 02MD 02MO 02MC 02RD 10RO	0	1	3.54934310913	None	None	None	None	1
2.7	2015_May_04_1311	s	s	4	1	SIC	166	ABS	1	1	02VD 02VO 02VC 02MD 10MO 02MC 02RD 02RO	0	1	3.1017241478	None	None	None	None	1
2.7	2015_May_04_1311	s	s	4	1	SIC	167	RC	2	2	09VD 02VO 02VC 02MD 02MO 02MC 02RD 02RO	1	0	0.752698898315	43.0	-150.0	37	-148	1
2.7	2015_May_04_1311	s	s	4	1	SIC	168	ABS	2	1	02VD 10VO 02VC 02MD 02MO 02MC 02RD 02RO	0	1	2.80077791214	None	None	None	None	1
2.7	2015_May_04_1311	s	s	4	1	SIC	169	RC	2	0	02VD 02VO 09VC 02MD 02MO 02MC 02RD 02RO	1	0	0.929243087769	-15.0	-73.0	-19	-66	1
2.7	2015_May_04_1311	s	s	4	1	SIC	170	RC	1	1	02VD 02VO 02VC 02MD 09MO 02MC 02RD 02RO	1	0	2.95380711555	-356.0	40.0	-354	27	1
2.7	2015_May_04_1311	s	s	4	1	SIC	171	RC	1	0	02VD 02VO 02VC 02MD 02MO 09MC 02RD 02RO	1	0	1.04692411423	-224.0	-101.0	-226	-93	1
2.7	2015_May_04_1311	s	s	4	1	SIC	172	RC	2	1	02VD 09VO 02VC 02MD 02MO 02MC 02RD 02RO	1	0	0.77114200592	-127.0	-56.0	-119	-53	1
2.7	2015_May_04_1311	s	s	4	1	SIC	173	RC	0	1	02VD 02VO 02VC 02MD 02MO 02MC 02RD 09RO	0	1	3.98391413689	358.0	13.0	None	None	0
2.7	2015_May_04_1311	s	s	4	1	SIC	174	ABS	2	0	02VD 02VO 10VC 02MD 02MO 02MC 02RD 02RO	0	1	2.46632099152	None	None	None	None	1
2.7	2015_May_04_1311	s	s	4	1	SIC	175	RC	0	2	02VD 02VO 02VC 02MD 02MO 02MC 09RD 02RO	0	1	2.36265420914	-195.0	108.0	None	None	0
2.7	2015_May_04_1311	s	s	4	1	SIC	176	ABS	2	2	10VD 02VO 02VC 02MD 02MO 02MC 02RD 02RO	0	1	1.74816799164	None	None	None	None	1
2.7	2015_May_04_1311	s	s	4	1	SIC	177	RC	2	2	09VD 02VO 02VC 02MD 02MO 02MC 02RD 02RO	1	0	1.42362999916	-228.0	-266.0	-231	-262	1
2.7	2015_May_04_1311	s	s	4	1	SIC	178	ABS	0	2	02VD 02VO 02VC 02MD 02MO 02MC 10RD 02RO	0	1	2.43587899208	None	None	None	None	1
2.7	2015_May_04_1311	s	s	4	1	SIC	179	RC	1	1	02VD 02VO 02VC 02MD 09MO 02MC 02RD 02RO	1	0	1.97164106369	-448.0	306.0	-446	296	1
2.7	2015_May_04_1311	s	s	4	1	SIC	180	ABS	1	2	02VD 02VO 02VC 10MD 02MO 02MC 02RD 02RO	0	1	2.04238009453	None	None	None	None	1
2.7	2015_May_04_1311	s	s	4	1	SIC	181	RC	1	0	02VD 02VO 02VC 02MD 02MO 09MC 02RD 02RO	1	0	2.86565589905	-407.0	-28.0	-408	-37	1
2.7	2015_May_04_1311	s	s	4	1	SIC	182	ABS	0	1	02VD 02VO 02VC 02MD 02MO 02MC 02RD 10RO	0	1	3.44328093529	None	None	None	None	1
2.7	2015_May_04_1311	s	s	4	1	SIC	183	RC	2	1	02VD 09VO 02VC 02MD 02MO 02MC 02RD 02RO	1	0	1.6775701046	-85.0	-260.0	-89	-265	1
2.7	2015_May_04_1311	s	s	4	1	SIC	184	ABS	1	1	02VD 02VO 02VC 02MD 10MO 02MC 02RD 02RO	0	1	3.27191615105	None	None	None	None	1
2.7	2015_May_04_1311	s	s	4	1	SIC	185	ABS	2	2	10VD 02VO 02VC 02MD 02MO 02MC 02RD 02RO	0	1	3.0597589016	None	None	None	None	1
2.7	2015_May_04_1311	s	s	4	1	SIC	186	RC	0	1	02VD 02VO 02VC 02MD 02MO 02MC 02RD 09RO	0	1	3.76114106178	-351.0	-98.0	None	None	0
2.7	2015_May_04_1311	s	s	4	1	SIC	187	ABS	1	0	02VD 02VO 02VC 02MD 02MO 10MC 02RD 02RO	0	1	3.3490049839	None	None	None	None	1
2.7	2015_May_04_1311	s	s	4	1	SIC	188	RC	1	2	02VD 02VO 02VC 09MD 02MO 02MC 02RD 02RO	1	0	1.11760091782	-297.0	-112.0	-294	-109	1
2.7	2015_May_04_1311	s	s	4	1	SIC	189	ABS	2	1	02VD 10VO 02VC 02MD 02MO 02MC 02RD 02RO	0	1	2.52202010155	None	None	None	None	1
2.7	2015_May_04_1311	s	s	4	1	SIC	190	ABS	2	0	02VD 02VO 10VC 02MD 02MO 02MC 02RD 02RO	0	1	2.4332909584	None	None	None	None	1
2.7	2015_May_04_1311	s	s	4	1	SIC	191	RC	2	0	02VD 02VO 09VC 02MD 02MO 02MC 02RD 02RO	1	0	2.51821613312	54.0	-290.0	49	-293	1
2.7	2015_May_04_1311	s	s	4	1	SIC	192	RC	0	2	02VD 02VO 02VC 02MD 02MO 02MC 09RD 02RO	1	0	0.794737100601	105.0	-109.0	103	-111	1
2.7	2015_May_04_1311	s	s	4	1	SIC	193	RC	2	2	09VD 02VO 02VC 02MD 02MO 02MC 02RD 02RO	1	0	1.37407183647	468.0	58.0	474	54	1
2.7	2015_May_04_1311	s	s	4	1	SIC	194	ABS	2	1	02VD 10VO 02VC 02MD 02MO 02MC 02RD 02RO	0	1	2.16533994675	None	None	None	None	1
2.7	2015_May_04_1311	s	s	4	1	SIC	195	ABS	1	0	02VD 02VO 02VC 02MD 02MO 10MC 02RD 02RO	0	1	3.30374693871	None	None	None	None	1
2.7	2015_May_04_1311	s	s	4	1	SIC	196	RC	2	0	02VD 02VO 09VC 02MD 02MO 02MC 02RD 02RO	1	0	1.65642809868	-487.0	-66.0	-483	-76	1
2.7	2015_May_04_1311	s	s	4	1	SIC	197	ABS	0	1	02VD 02VO 02VC 02MD 02MO 02MC 02RD 10RO	0	1	3.73802089691	None	None	None	None	1
2.7	2015_May_04_1311	s	s	4	1	SIC	198	ABS	1	1	02VD 02VO 02VC 02MD 10MO 02MC 02RD 02RO	0	1	2.83606791496	None	None	None	None	1
2.7	2015_May_04_1311	s	s	4	1	SIC	199	RC	2	1	02VD 09VO 02VC 02MD 02MO 02MC 02RD 02RO	1	0	1.61861991882	-430.0	-230.0	-426	-233	1
2.7	2015_May_04_1311	s	s	4	1	SIC	200	RC	0	1	02VD 02VO 02VC 02MD 02MO 02MC 02RD 09RO	1	0	1.23532795906	-78.0	309.0	-76	308	1
2.7	2015_May_04_1311	s	s	4	1	SIC	201	ABS	0	2	02VD 02VO 02VC 02MD 02MO 02MC 10RD 02RO	0	1	3.12467694283	None	None	None	None	1
2.7	2015_May_04_1311	s	s	4	1	SIC	202	RC	1	0	02VD 02VO 02VC 02MD 02MO 09MC 02RD 02RO	0	1	3.28062582016	-113.0	-261.0	None	None	0
2.7	2015_May_04_1311	s	s	4	1	SIC	203	ABS	2	0	02VD 02VO 10VC 02MD 02MO 02MC 02RD 02RO	0	1	2.81894302368	None	None	None	None	1
2.7	2015_May_04_1311	s	s	4	1	SIC	204	ABS	2	2	10VD 02VO 02VC 02MD 02MO 02MC 02RD 02RO	0	1	2.16015791893	None	None	None	None	1
2.7	2015_May_04_1311	s	s	4	1	SIC	205	RC	1	1	02VD 02VO 02VC 02MD 09MO 02MC 02RD 02RO	1	0	2.74190211296	259.0	-81.0	259	-81	1
2.7	2015_May_04_1311	s	s	4	1	SIC	206	ABS	1	2	02VD 02VO 02VC 10MD 02MO 02MC 02RD 02RO	0	1	2.76545500755	None	None	None	None	1
2.7	2015_May_04_1311	s	s	4	1	SIC	207	RC	0	2	02VD 02VO 02VC 02MD 02MO 02MC 09RD 02RO	1	0	1.37088990211	293.0	235.0	289	241	1
2.7	2015_May_04_1311	s	s	4	1	SIC	208	RC	1	2	02VD 02VO 02VC 09MD 02MO 02MC 02RD 02RO	1	0	0.911697149277	379.0	211.0	373	209	1
2.7	2015_May_04_1311	s	s	4	1	SIC	209	RC	0	2	02VD 02VO 02VC 02MD 02MO 02MC 09RD 02RO	1	0	1.5125041008	-429.0	289.0	-434	283	1
2.7	2015_May_04_1311	s	s	4	1	SIC	210	RC	1	1	02VD 02VO 02VC 02MD 09MO 02MC 02RD 02RO	1	0	1.86800289154	365.0	-348.0	369	-348	1
2.7	2015_May_04_1311	s	s	4	1	SIC	211	ABS	0	2	02VD 02VO 02VC 02MD 02MO 02MC 10RD 02RO	0	1	2.71319818497	None	None	None	None	1
2.7	2015_May_04_1311	s	s	4	1	SIC	212	ABS	2	2	10VD 02VO 02VC 02MD 02MO 02MC 02RD 02RO	0	1	2.18345499039	None	None	None	None	1
2.7	2015_May_04_1311	s	s	4	1	SIC	213	RC	0	1	02VD 02VO 02VC 02MD 02MO 02MC 02RD 09RO	1	0	1.3717918396	367.0	184.0	364	184	1
2.7	2015_May_04_1311	s	s	4	1	SIC	214	ABS	1	1	02VD 02VO 02VC 02MD 10MO 02MC 02RD 02RO	0	1	3.31862592697	None	None	None	None	1
2.7	2015_May_04_1311	s	s	4	1	SIC	215	ABS	2	0	02VD 02VO 10VC 02MD 02MO 02MC 02RD 02RO	0	1	1.98860406876	None	None	None	None	1
2.7	2015_May_04_1311	s	s	4	1	SIC	216	RC	2	2	09VD 02VO 02VC 02MD 02MO 02MC 02RD 02RO	1	0	1.05385088921	111.0	81.0	112	81	1
2.7	2015_May_04_1311	s	s	4	1	SIC	217	RC	2	1	02VD 09VO 02VC 02MD 02MO 02MC 02RD 02RO	1	0	2.07098603249	-534.0	-402.0	-544	-402	1
2.7	2015_May_04_1311	s	s	4	1	SIC	218	RC	2	0	02VD 02VO 09VC 02MD 02MO 02MC 02RD 02RO	1	0	0.830085992813	-473.0	-250.0	-466	-245	1
2.7	2015_May_04_1311	s	s	4	1	SIC	219	ABS	1	2	02VD 02VO 02VC 10MD 02MO 02MC 02RD 02RO	0	1	2.80074000359	None	None	None	None	1
2.7	2015_May_04_1311	s	s	4	1	SIC	220	ABS	1	0	02VD 02VO 02VC 02MD 02MO 10MC 02RD 02RO	0	1	3.25983500481	None	None	None	None	1
2.7	2015_May_04_1311	s	s	4	1	SIC	221	RC	1	0	02VD 02VO 02VC 02MD 02MO 09MC 02RD 02RO	1	0	1.58339285851	117.0	-145.0	123	-142	1
2.7	2015_May_04_1311	s	s	4	1	SIC	222	RC	1	2	02VD 02VO 02VC 09MD 02MO 02MC 02RD 02RO	1	0	2.41973614693	-501.0	406.0	-498	409	1
2.7	2015_May_04_1311	s	s	4	1	SIC	223	ABS	0	1	02VD 02VO 02VC 02MD 02MO 02MC 02RD 10RO	0	1	3.98965978622	None	None	None	None	1
2.7	2015_May_04_1311	s	s	4	1	SIC	224	ABS	2	1	02VD 10VO 02VC 02MD 02MO 02MC 02RD 02RO	0	1	1.93802499771	None	None	None	None	1
2.7	2015_May_04_1311	s	s	4	1	SIC	225	ABS	0	1	02VD 02VO 02VC 02MD 02MO 02MC 02RD 10RO	0	1	2.91466498375	None	None	None	None	1
2.7	2015_May_04_1311	s	s	4	1	SIC	226	RC	1	2	02VD 02VO 02VC 09MD 02MO 02MC 02RD 02RO	1	0	2.84445810318	95.0	298.0	95	296	1
2.7	2015_May_04_1311	s	s	4	1	SIC	227	ABS	2	1	02VD 10VO 02VC 02MD 02MO 02MC 02RD 02RO	0	1	3.25672411919	None	None	None	None	1
2.7	2015_May_04_1311	s	s	4	1	SIC	228	RC	2	0	02VD 02VO 09VC 02MD 02MO 02MC 02RD 02RO	1	0	2.19559621811	323.0	324.0	326	314	1
2.7	2015_May_04_1311	s	s	4	1	SIC	229	ABS	1	0	02VD 02VO 02VC 02MD 02MO 10MC 02RD 02RO	0	1	2.68307995796	None	None	None	None	1
2.7	2015_May_04_1311	s	s	4	1	SIC	230	ABS	1	1	02VD 02VO 02VC 02MD 10MO 02MC 02RD 02RO	0	1	2.37231111526	None	None	None	None	1
2.7	2015_May_04_1311	s	s	4	1	SIC	231	RC	0	1	02VD 02VO 02VC 02MD 02MO 02MC 02RD 09RO	0	1	3.11853194237	-319.0	355.0	None	None	0
2.7	2015_May_04_1311	s	s	4	1	SIC	232	ABS	0	2	02VD 02VO 02VC 02MD 02MO 02MC 10RD 02RO	0	1	2.71348190308	None	None	None	None	1
2.7	2015_May_04_1311	s	s	4	1	SIC	233	RC	1	0	02VD 02VO 02VC 02MD 02MO 09MC 02RD 02RO	1	0	3.18959593773	478.0	-320.0	486	-326	1
2.7	2015_May_04_1311	s	s	4	1	SIC	234	RC	2	2	09VD 02VO 02VC 02MD 02MO 02MC 02RD 02RO	1	0	1.54771494865	-398.0	118.0	-397	125	1
2.7	2015_May_04_1311	s	s	4	1	SIC	235	RC	2	1	02VD 09VO 02VC 02MD 02MO 02MC 02RD 02RO	1	0	1.14770007133	-167.0	-400.0	-170	-409	1
2.7	2015_May_04_1311	s	s	4	1	SIC	236	ABS	1	2	02VD 02VO 02VC 10MD 02MO 02MC 02RD 02RO	0	1	2.40718913078	None	None	None	None	1
2.7	2015_May_04_1311	s	s	4	1	SIC	237	RC	1	1	02VD 02VO 02VC 02MD 09MO 02MC 02RD 02RO	1	0	1.32641983032	-494.0	-157.0	-502	-154	1
2.7	2015_May_04_1311	s	s	4	1	SIC	238	ABS	2	0	02VD 02VO 10VC 02MD 02MO 02MC 02RD 02RO	0	1	2.8905069828	None	None	None	None	1
2.7	2015_May_04_1311	s	s	4	1	SIC	239	RC	0	2	02VD 02VO 02VC 02MD 02MO 02MC 09RD 02RO	1	0	2.88316011429	-356.0	109.0	-350	105	1
2.7	2015_May_04_1311	s	s	4	1	SIC	240	ABS	2	2	10VD 02VO 02VC 02MD 02MO 02MC 02RD 02RO	0	1	3.53724694252	None	None	None	None	1
2.7	2015_May_04_1311	s	s	4	1	SIC	241	RC	0	2	02VD 02VO 02VC 02MD 02MO 02MC 09RD 02RO	1	0	2.45593595505	32.0	397.0	35	404	1
2.7	2015_May_04_1311	s	s	4	1	SIC	242	ABS	1	2	02VD 02VO 02VC 10MD 02MO 02MC 02RD 02RO	0	1	3.08326888084	None	None	None	None	1
2.7	2015_May_04_1311	s	s	4	1	SIC	243	RC	1	2	02VD 02VO 02VC 09MD 02MO 02MC 02RD 02RO	1	0	1.030148983	10.0	-229.0	15	-226	1
2.7	2015_May_04_1311	s	s	4	1	SIC	244	RC	2	1	02VD 09VO 02VC 02MD 02MO 02MC 02RD 02RO	1	0	0.972784042358	-64.0	-30.0	-64	-46	1
2.7	2015_May_04_1311	s	s	4	1	SIC	245	RC	2	2	09VD 02VO 02VC 02MD 02MO 02MC 02RD 02RO	1	0	1.22904801369	49.0	-210.0	52	-217	1
2.7	2015_May_04_1311	s	s	4	1	SIC	246	RC	1	0	02VD 02VO 02VC 02MD 02MO 09MC 02RD 02RO	1	0	1.53692913055	422.0	-63.0	423	-74	1
2.7	2015_May_04_1311	s	s	4	1	SIC	247	RC	1	1	02VD 02VO 02VC 02MD 09MO 02MC 02RD 02RO	1	0	1.84739804268	272.0	-400.0	277	-401	1
2.7	2015_May_04_1311	s	s	4	1	SIC	248	ABS	2	2	10VD 02VO 02VC 02MD 02MO 02MC 02RD 02RO	0	1	2.48293089867	None	None	None	None	1
2.7	2015_May_04_1311	s	s	4	1	SIC	249	RC	0	1	02VD 02VO 02VC 02MD 02MO 02MC 02RD 09RO	0	1	2.90677404404	157.0	73.0	None	None	0
2.7	2015_May_04_1311	s	s	4	1	SIC	250	ABS	1	0	02VD 02VO 02VC 02MD 02MO 10MC 02RD 02RO	0	1	3.19584703445	None	None	None	None	1
2.7	2015_May_04_1311	s	s	4	1	SIC	251	ABS	1	1	02VD 02VO 02VC 02MD 10MO 02MC 02RD 02RO	0	1	3.5725851059	None	None	None	None	1
2.7	2015_May_04_1311	s	s	4	1	SIC	252	RC	2	0	02VD 02VO 09VC 02MD 02MO 02MC 02RD 02RO	1	0	1.53637099266	-329.0	-339.0	-330	-346	1
2.7	2015_May_04_1311	s	s	4	1	SIC	253	ABS	0	1	02VD 02VO 02VC 02MD 02MO 02MC 02RD 10RO	0	1	3.27843403816	None	None	None	None	1
2.7	2015_May_04_1311	s	s	4	1	SIC	254	ABS	0	2	02VD 02VO 02VC 02MD 02MO 02MC 10RD 02RO	0	1	2.6442220211	None	None	None	None	1
2.7	2015_May_04_1311	s	s	4	1	SIC	255	ABS	2	0	02VD 02VO 10VC 02MD 02MO 02MC 02RD 02RO	0	1	2.30286312103	None	None	None	None	1
2.7	2015_May_04_1311	s	s	4	1	SIC	256	ABS	2	1	02VD 10VO 02VC 02MD 02MO 02MC 02RD 02RO	0	1	2.01214408875	None	None	None	None	1
2.7	2015_May_04_1311	s	s	4	1	SIC	257	RC	0	2	02VD 02VO 02VC 02MD 02MO 02MC 09RD 02RO	0	1	2.87507581711	-52.0	392.0	None	None	0
2.7	2015_May_04_1311	s	s	4	1	SIC	258	ABS	1	0	02VD 02VO 02VC 02MD 02MO 10MC 02RD 02RO	0	1	2.52529001236	None	None	None	None	1
2.7	2015_May_04_1311	s	s	4	1	SIC	259	ABS	1	2	02VD 02VO 02VC 10MD 02MO 02MC 02RD 02RO	0	1	1.65904784203	None	None	None	None	1
2.7	2015_May_04_1311	s	s	4	1	SIC	260	ABS	0	1	02VD 02VO 02VC 02MD 02MO 02MC 02RD 10RO	0	1	2.94201683998	None	None	None	None	1
2.7	2015_May_04_1311	s	s	4	1	SIC	261	ABS	0	2	02VD 02VO 02VC 02MD 02MO 02MC 10RD 02RO	0	1	2.5484919548	None	None	None	None	1
2.7	2015_May_04_1311	s	s	4	1	SIC	262	RC	1	1	02VD 02VO 02VC 02MD 09MO 02MC 02RD 02RO	1	0	2.36198210716	390.0	53.0	389	57	1
2.7	2015_May_04_1311	s	s	4	1	SIC	263	RC	1	0	02VD 02VO 02VC 02MD 02MO 09MC 02RD 02RO	1	0	1.55680084229	242.0	-179.0	239	-174	1
2.7	2015_May_04_1311	s	s	4	1	SIC	264	RC	0	1	02VD 02VO 02VC 02MD 02MO 02MC 02RD 09RO	0	1	3.4197409153	267.0	148.0	None	None	0
2.7	2015_May_04_1311	s	s	4	1	SIC	265	ABS	1	1	02VD 02VO 02VC 02MD 10MO 02MC 02RD 02RO	0	1	2.72523617744	None	None	None	None	1
2.7	2015_May_04_1311	s	s	4	1	SIC	266	ABS	2	2	10VD 02VO 02VC 02MD 02MO 02MC 02RD 02RO	0	1	1.84732413292	None	None	None	None	1
2.7	2015_May_04_1311	s	s	4	1	SIC	267	RC	1	2	02VD 02VO 02VC 09MD 02MO 02MC 02RD 02RO	1	0	1.67871785164	-278.0	-278.0	-282	-286	1
2.7	2015_May_04_1311	s	s	4	1	SIC	268	ABS	2	0	02VD 02VO 10VC 02MD 02MO 02MC 02RD 02RO	0	1	2.02134990692	None	None	None	None	1
2.7	2015_May_04_1311	s	s	4	1	SIC	269	RC	2	1	02VD 09VO 02VC 02MD 02MO 02MC 02RD 02RO	1	0	1.35001301765	387.0	-327.0	385	-337	1
2.7	2015_May_04_1311	s	s	4	1	SIC	270	RC	2	2	09VD 02VO 02VC 02MD 02MO 02MC 02RD 02RO	1	0	2.28016114235	-442.0	243.0	-440	242	1
2.7	2015_May_04_1311	s	s	4	1	SIC	271	RC	2	0	02VD 02VO 09VC 02MD 02MO 02MC 02RD 02RO	1	0	1.93869304657	495.0	-179.0	498	-185	1
2.7	2015_May_04_1311	s	s	4	1	SIC	272	ABS	2	1	02VD 10VO 02VC 02MD 02MO 02MC 02RD 02RO	0	1	2.4829750061	None	None	None	None	1
2.7	2015_May_04_1311	s	s	4	1	SIC	273	ABS	0	1	02VD 02VO 02VC 02MD 02MO 02MC 02RD 10RO	0	1	3.72312784195	None	None	None	None	1
2.7	2015_May_04_1311	s	s	4	1	SIC	274	RC	0	1	02VD 02VO 02VC 02MD 02MO 02MC 02RD 09RO	1	0	1.83286094666	314.0	-86.0	311	-84	1
2.7	2015_May_04_1311	s	s	4	1	SIC	275	RC	1	0	02VD 02VO 02VC 02MD 02MO 09MC 02RD 02RO	0	1	4.26862001419	-324.0	338.0	None	None	0
2.7	2015_May_04_1311	s	s	4	1	SIC	276	ABS	2	0	02VD 02VO 10VC 02MD 02MO 02MC 02RD 02RO	0	1	2.16891908646	None	None	None	None	1
2.7	2015_May_04_1311	s	s	4	1	SIC	277	RC	1	1	02VD 02VO 02VC 02MD 09MO 02MC 02RD 02RO	1	0	1.04701900482	469.0	-115.0	475	-109	1
2.7	2015_May_04_1311	s	s	4	1	SIC	278	RC	2	2	09VD 02VO 02VC 02MD 02MO 02MC 02RD 02RO	1	0	0.99988079071	-9.0	291.0	-10	280	1
2.7	2015_May_04_1311	s	s	4	1	SIC	279	RC	0	2	02VD 02VO 02VC 02MD 02MO 02MC 09RD 02RO	1	0	1.91454911232	246.0	27.0	247	25	1
2.7	2015_May_04_1311	s	s	4	1	SIC	280	RC	1	2	02VD 02VO 02VC 09MD 02MO 02MC 02RD 02RO	1	0	1.83057594299	523.0	-11.0	525	-10	1
2.7	2015_May_04_1311	s	s	4	1	SIC	281	ABS	1	2	02VD 02VO 02VC 10MD 02MO 02MC 02RD 02RO	0	1	2.65363311768	None	None	None	None	1
2.7	2015_May_04_1311	s	s	4	1	SIC	282	ABS	1	0	02VD 02VO 02VC 02MD 02MO 10MC 02RD 02RO	0	1	3.65453600883	None	None	None	None	1
2.7	2015_May_04_1311	s	s	4	1	SIC	283	ABS	2	2	10VD 02VO 02VC 02MD 02MO 02MC 02RD 02RO	0	1	2.68312597275	None	None	None	None	1
2.7	2015_May_04_1311	s	s	4	1	SIC	284	RC	2	0	02VD 02VO 09VC 02MD 02MO 02MC 02RD 02RO	1	0	1.92497706413	295.0	408.0	290	405	1
2.7	2015_May_04_1311	s	s	4	1	SIC	285	ABS	0	2	02VD 02VO 02VC 02MD 02MO 02MC 10RD 02RO	0	1	2.47113704681	None	None	None	None	1
2.7	2015_May_04_1311	s	s	4	1	SIC	286	ABS	1	1	02VD 02VO 02VC 02MD 10MO 02MC 02RD 02RO	0	1	3.07146811485	None	None	None	None	1
2.7	2015_May_04_1311	s	s	4	1	SIC	287	ABS	2	1	02VD 10VO 02VC 02MD 02MO 02MC 02RD 02RO	0	1	2.28293919563	None	None	None	None	1
2.7	2015_May_04_1311	s	s	4	1	SIC	288	RC	2	1	02VD 09VO 02VC 02MD 02MO 02MC 02RD 02RO	1	0	0.830343008041	45.0	46.0	41	40	1
2.7	2015_May_04_1311	s	s	4	1	SIC	289	ABS	2	2	10VD 02VO 02VC 02MD 02MO 02MC 02RD 02RO	0	1	2.23608517647	None	None	None	None	1
2.7	2015_May_04_1311	s	s	4	1	SIC	290	ABS	1	1	02VD 02VO 02VC 02MD 10MO 02MC 02RD 02RO	0	1	2.51826906204	None	None	None	None	1
2.7	2015_May_04_1311	s	s	4	1	SIC	291	RC	2	0	02VD 02VO 09VC 02MD 02MO 02MC 02RD 02RO	1	0	1.52996397018	-509.0	-372.0	-508	-374	1
2.7	2015_May_04_1311	s	s	4	1	SIC	292	RC	2	1	02VD 09VO 02VC 02MD 02MO 02MC 02RD 02RO	1	0	1.31768584251	-198.0	-293.0	-196	-298	1
2.7	2015_May_04_1311	s	s	4	1	SIC	293	ABS	1	2	02VD 02VO 02VC 10MD 02MO 02MC 02RD 02RO	0	1	2.4449930191	None	None	None	None	1
2.7	2015_May_04_1311	s	s	4	1	SIC	294	ABS	0	2	02VD 02VO 02VC 02MD 02MO 02MC 10RD 02RO	0	1	2.32493591309	None	None	None	None	1
2.7	2015_May_04_1311	s	s	4	1	SIC	295	RC	1	0	02VD 02VO 02VC 02MD 02MO 09MC 02RD 02RO	1	0	0.882390975952	144.0	86.0	145	80	1
2.7	2015_May_04_1311	s	s	4	1	SIC	296	RC	0	1	02VD 02VO 02VC 02MD 02MO 02MC 02RD 09RO	1	0	2.92486000061	344.0	369.0	350	363	1
2.7	2015_May_04_1311	s	s	4	1	SIC	297	RC	1	2	02VD 02VO 02VC 09MD 02MO 02MC 02RD 02RO	1	0	2.43083095551	44.0	-380.0	45	-371	1
2.7	2015_May_04_1311	s	s	4	1	SIC	298	ABS	2	0	02VD 02VO 10VC 02MD 02MO 02MC 02RD 02RO	0	1	3.41942501068	None	None	None	None	1
2.7	2015_May_04_1311	s	s	4	1	SIC	299	RC	1	1	02VD 02VO 02VC 02MD 09MO 02MC 02RD 02RO	1	0	2.05927109718	178.0	-383.0	183	-380	1
2.7	2015_May_04_1311	s	s	4	1	SIC	300	ABS	0	1	02VD 02VO 02VC 02MD 02MO 02MC 02RD 10RO	0	1	3.32695388794	None	None	None	None	1
2.7	2015_May_04_1311	s	s	4	1	SIC	301	ABS	2	1	02VD 10VO 02VC 02MD 02MO 02MC 02RD 02RO	0	1	2.35094118118	None	None	None	None	1
2.7	2015_May_04_1311	s	s	4	1	SIC	302	ABS	1	0	02VD 02VO 02VC 02MD 02MO 10MC 02RD 02RO	0	1	3.11864590645	None	None	None	None	1
2.7	2015_May_04_1311	s	s	4	1	SIC	303	RC	2	2	09VD 02VO 02VC 02MD 02MO 02MC 02RD 02RO	1	0	2.06623601913	-205.0	-228.0	-208	-219	1
2.7	2015_May_04_1311	s	s	4	1	SIC	304	RC	0	2	02VD 02VO 02VC 02MD 02MO 02MC 09RD 02RO	1	0	1.62372684479	250.0	-128.0	255	-139	1
2.7	2015_May_04_1311	s	s	4	1	SIC	305	ABS	1	1	02VD 02VO 02VC 02MD 10MO 02MC 02RD 02RO	0	1	3.0189011097	None	None	None	None	1
2.7	2015_May_04_1311	s	s	4	1	SIC	306	RC	2	0	02VD 02VO 09VC 02MD 02MO 02MC 02RD 02RO	1	0	1.60070800781	29.0	303.0	34	300	1
2.7	2015_May_04_1311	s	s	4	1	SIC	307	RC	1	0	02VD 02VO 02VC 02MD 02MO 09MC 02RD 02RO	1	0	1.34682488441	-379.0	380.0	-373	381	1
2.7	2015_May_04_1311	s	s	4	1	SIC	308	RC	1	1	02VD 02VO 02VC 02MD 09MO 02MC 02RD 02RO	1	0	1.75321698189	-430.0	145.0	-426	153	1
2.7	2015_May_04_1311	s	s	4	1	SIC	309	ABS	2	1	02VD 10VO 02VC 02MD 02MO 02MC 02RD 02RO	0	1	3.20097613335	None	None	None	None	1
2.7	2015_May_04_1311	s	s	4	1	SIC	310	RC	2	1	02VD 09VO 02VC 02MD 02MO 02MC 02RD 02RO	1	0	1.67997503281	472.0	370.0	476	368	1
2.7	2015_May_04_1311	s	s	4	1	SIC	311	RC	2	2	09VD 02VO 02VC 02MD 02MO 02MC 02RD 02RO	1	0	2.12984895706	-256.0	-224.0	-254	-226	1
2.7	2015_May_04_1311	s	s	4	1	SIC	312	ABS	1	2	02VD 02VO 02VC 10MD 02MO 02MC 02RD 02RO	0	1	3.33049798012	None	None	None	None	1
2.7	2015_May_04_1311	s	s	4	1	SIC	313	RC	1	2	02VD 02VO 02VC 09MD 02MO 02MC 02RD 02RO	1	0	1.20670485497	-410.0	230.0	-405	232	1
2.7	2015_May_04_1311	s	s	4	1	SIC	314	ABS	1	0	02VD 02VO 02VC 02MD 02MO 10MC 02RD 02RO	0	1	3.07823181152	None	None	None	None	1
2.7	2015_May_04_1311	s	s	4	1	SIC	315	RC	0	2	02VD 02VO 02VC 02MD 02MO 02MC 09RD 02RO	1	0	1.70154619217	424.0	-3.0	424	-3	1
2.7	2015_May_04_1311	s	s	4	1	SIC	316	RC	0	1	02VD 02VO 02VC 02MD 02MO 02MC 02RD 09RO	1	0	4.12589406967	-111.0	-178.0	-112	-175	1
2.7	2015_May_04_1311	s	s	4	1	SIC	317	ABS	2	2	10VD 02VO 02VC 02MD 02MO 02MC 02RD 02RO	0	1	2.91871404648	None	None	None	None	1
2.7	2015_May_04_1311	s	s	4	1	SIC	318	ABS	0	2	02VD 02VO 02VC 02MD 02MO 02MC 10RD 02RO	0	1	2.61246013641	None	None	None	None	1
2.7	2015_May_04_1311	s	s	4	1	SIC	319	ABS	2	0	02VD 02VO 10VC 02MD 02MO 02MC 02RD 02RO	0	1	3.17738199234	None	None	None	None	1
2.7	2015_May_04_1311	s	s	4	1	SIC	320	ABS	0	1	02VD 02VO 02VC 02MD 02MO 02MC 02RD 10RO	0	1	2.76541185379	None	None	None	None	1
2.7	2015_May_04_1311	s	s	4	1	SIC	321	RC	2	0	02VD 02VO 09VC 02MD 02MO 02MC 02RD 02RO	1	0	1.29161500931	257.0	127.0	262	132	1
2.7	2015_May_04_1311	s	s	4	1	SIC	322	RC	1	1	02VD 02VO 02VC 02MD 09MO 02MC 02RD 02RO	1	0	1.15285587311	-216.0	193.0	-215	187	1
2.7	2015_May_04_1311	s	s	4	1	SIC	323	ABS	2	2	10VD 02VO 02VC 02MD 02MO 02MC 02RD 02RO	0	1	2.23576903343	None	None	None	None	1
2.7	2015_May_04_1311	s	s	4	1	SIC	324	RC	2	2	09VD 02VO 02VC 02MD 02MO 02MC 02RD 02RO	1	0	0.93834900856	-5.0	-305.0	0	-302	1
2.7	2015_May_04_1311	s	s	4	1	SIC	325	ABS	0	2	02VD 02VO 02VC 02MD 02MO 02MC 10RD 02RO	0	1	2.85383200645	None	None	None	None	1
2.7	2015_May_04_1311	s	s	4	1	SIC	326	RC	0	2	02VD 02VO 02VC 02MD 02MO 02MC 09RD 02RO	1	0	1.24710011482	26.0	-360.0	30	-355	1
2.7	2015_May_04_1311	s	s	4	1	SIC	327	ABS	1	0	02VD 02VO 02VC 02MD 02MO 10MC 02RD 02RO	0	1	2.81928300858	None	None	None	None	1
2.7	2015_May_04_1311	s	s	4	1	SIC	328	RC	2	1	02VD 09VO 02VC 02MD 02MO 02MC 02RD 02RO	1	0	1.01849508286	-48.0	319.0	-48	318	1
2.7	2015_May_04_1311	s	s	4	1	SIC	329	ABS	1	2	02VD 02VO 02VC 10MD 02MO 02MC 02RD 02RO	0	1	2.00625991821	None	None	None	None	1
2.7	2015_May_04_1311	s	s	4	1	SIC	330	RC	1	2	02VD 02VO 02VC 09MD 02MO 02MC 02RD 02RO	0	1	2.12993907928	-299.0	56.0	None	None	0
2.7	2015_May_04_1311	s	s	4	1	SIC	331	ABS	2	1	02VD 10VO 02VC 02MD 02MO 02MC 02RD 02RO	0	1	2.40733718872	None	None	None	None	1
2.7	2015_May_04_1311	s	s	4	1	SIC	332	RC	1	0	02VD 02VO 02VC 02MD 02MO 09MC 02RD 02RO	1	0	2.50696206093	-364.0	-190.0	-359	-183	1
2.7	2015_May_04_1311	s	s	4	1	SIC	333	ABS	0	1	02VD 02VO 02VC 02MD 02MO 02MC 02RD 10RO	0	1	3.3601899147	None	None	None	None	1
2.7	2015_May_04_1311	s	s	4	1	SIC	334	ABS	1	1	02VD 02VO 02VC 02MD 10MO 02MC 02RD 02RO	0	1	2.67825293541	None	None	None	None	1
2.7	2015_May_04_1311	s	s	4	1	SIC	335	ABS	2	0	02VD 02VO 10VC 02MD 02MO 02MC 02RD 02RO	0	1	2.79577302933	None	None	None	None	1
2.7	2015_May_04_1311	s	s	4	1	SIC	336	RC	0	1	02VD 02VO 02VC 02MD 02MO 02MC 02RD 09RO	1	0	2.71549391747	259.0	381.0	268	382	1
2.7	2015_May_04_1311	s	s	4	1	SIC	337	RC	2	2	09VD 02VO 02VC 02MD 02MO 02MC 02RD 02RO	1	0	1.77673578262	365.0	340.0	374	342	1
2.7	2015_May_04_1311	s	s	4	1	SIC	338	RC	2	1	02VD 09VO 02VC 02MD 02MO 02MC 02RD 02RO	1	0	2.1419699192	162.0	403.0	159	408	1
2.7	2015_May_04_1311	s	s	4	1	SIC	339	ABS	0	1	02VD 02VO 02VC 02MD 02MO 02MC 02RD 10RO	0	1	3.5979218483	None	None	None	None	1
2.7	2015_May_04_1311	s	s	4	1	SIC	340	ABS	1	2	02VD 02VO 02VC 10MD 02MO 02MC 02RD 02RO	0	1	2.64499306679	None	None	None	None	1
2.7	2015_May_04_1311	s	s	4	1	SIC	341	RC	1	1	02VD 02VO 02VC 02MD 09MO 02MC 02RD 02RO	1	0	2.99668622017	-210.0	18.0	-202	17	1
2.7	2015_May_04_1311	s	s	4	1	SIC	342	ABS	0	2	02VD 02VO 02VC 02MD 02MO 02MC 10RD 02RO	0	1	2.71278595924	None	None	None	None	1
2.7	2015_May_04_1311	s	s	4	1	SIC	343	RC	0	1	02VD 02VO 02VC 02MD 02MO 02MC 02RD 09RO	1	0	0.924249887466	-116.0	72.0	-112	82	1
2.7	2015_May_04_1311	s	s	4	1	SIC	344	ABS	2	2	10VD 02VO 02VC 02MD 02MO 02MC 02RD 02RO	0	1	3.23638391495	None	None	None	None	1
2.7	2015_May_04_1311	s	s	4	1	SIC	345	ABS	1	1	02VD 02VO 02VC 02MD 10MO 02MC 02RD 02RO	0	1	2.47806596756	None	None	None	None	1
2.7	2015_May_04_1311	s	s	4	1	SIC	346	ABS	2	0	02VD 02VO 10VC 02MD 02MO 02MC 02RD 02RO	0	1	3.10678386688	None	None	None	None	1
2.7	2015_May_04_1311	s	s	4	1	SIC	347	ABS	2	1	02VD 10VO 02VC 02MD 02MO 02MC 02RD 02RO	0	1	2.07099795341	None	None	None	None	1
2.7	2015_May_04_1311	s	s	4	1	SIC	348	ABS	1	0	02VD 02VO 02VC 02MD 02MO 10MC 02RD 02RO	0	1	3.52559995651	None	None	None	None	1
2.7	2015_May_04_1311	s	s	4	1	SIC	349	RC	0	2	02VD 02VO 02VC 02MD 02MO 02MC 09RD 02RO	1	0	1.24263000488	257.0	-127.0	262	-137	1
2.7	2015_May_04_1311	s	s	4	1	SIC	350	RC	1	2	02VD 02VO 02VC 09MD 02MO 02MC 02RD 02RO	1	0	2.03599190712	-372.0	-376.0	-367	-376	1
2.7	2015_May_04_1311	s	s	4	1	SIC	351	RC	2	0	02VD 02VO 09VC 02MD 02MO 02MC 02RD 02RO	1	0	1.07407212257	-341.0	-139.0	-341	-136	1
2.7	2015_May_04_1311	s	s	4	1	SIC	352	RC	1	0	02VD 02VO 02VC 02MD 02MO 09MC 02RD 02RO	1	0	1.16836905479	337.0	229.0	341	232	1
2.7	2015_May_04_1311	s	s	4	1	SIC	353	ABS	2	1	02VD 10VO 02VC 02MD 02MO 02MC 02RD 02RO	0	1	3.28014612198	None	None	None	None	1
2.7	2015_May_04_1311	s	s	4	1	SIC	354	RC	1	0	02VD 02VO 02VC 02MD 02MO 09MC 02RD 02RO	1	0	2.79606294632	-122.0	323.0	-120	313	1
2.7	2015_May_04_1311	s	s	4	1	SIC	355	ABS	1	1	02VD 02VO 02VC 02MD 10MO 02MC 02RD 02RO	0	1	3.13813209534	None	None	None	None	1
2.7	2015_May_04_1311	s	s	4	1	SIC	356	ABS	0	2	02VD 02VO 02VC 02MD 02MO 02MC 10RD 02RO	0	1	2.08284592628	None	None	None	None	1
2.7	2015_May_04_1311	s	s	4	1	SIC	357	ABS	0	1	02VD 02VO 02VC 02MD 02MO 02MC 02RD 10RO	0	1	2.92218399048	None	None	None	None	1
2.7	2015_May_04_1311	s	s	4	1	SIC	358	RC	2	0	02VD 02VO 09VC 02MD 02MO 02MC 02RD 02RO	0	1	2.3012650013	519.0	208.0	None	None	0
2.7	2015_May_04_1311	s	s	4	1	SIC	359	RC	2	1	02VD 09VO 02VC 02MD 02MO 02MC 02RD 02RO	1	0	1.62372493744	274.0	-410.0	278	-409	1
2.7	2015_May_04_1311	s	s	4	1	SIC	360	ABS	1	2	02VD 02VO 02VC 10MD 02MO 02MC 02RD 02RO	0	1	2.14855289459	None	None	None	None	1
2.7	2015_May_04_1311	s	s	4	1	SIC	361	RC	1	2	02VD 02VO 02VC 09MD 02MO 02MC 02RD 02RO	1	0	1.47070598602	282.0	231.0	286	221	1
2.7	2015_May_04_1311	s	s	4	1	SIC	362	ABS	1	0	02VD 02VO 02VC 02MD 02MO 10MC 02RD 02RO	0	1	3.40797185898	None	None	None	None	1
2.7	2015_May_04_1311	s	s	4	1	SIC	363	RC	0	2	02VD 02VO 02VC 02MD 02MO 02MC 09RD 02RO	1	0	1.22347998619	-401.0	-192.0	-402	-186	1
2.7	2015_May_04_1311	s	s	4	1	SIC	364	ABS	2	2	10VD 02VO 02VC 02MD 02MO 02MC 02RD 02RO	0	1	1.73800802231	None	None	None	None	1
2.7	2015_May_04_1311	s	s	4	1	SIC	365	RC	1	1	02VD 02VO 02VC 02MD 09MO 02MC 02RD 02RO	1	0	0.976387023926	-202.0	251.0	-206	248	1
2.7	2015_May_04_1311	s	s	4	1	SIC	366	RC	0	1	02VD 02VO 02VC 02MD 02MO 02MC 02RD 09RO	1	0	0.991726875305	39.0	-33.0	45	-29	1
2.7	2015_May_04_1311	s	s	4	1	SIC	367	ABS	2	0	02VD 02VO 10VC 02MD 02MO 02MC 02RD 02RO	0	1	2.49476003647	None	None	None	None	1
2.7	2015_May_04_1311	s	s	4	1	SIC	368	RC	2	2	09VD 02VO 02VC 02MD 02MO 02MC 02RD 02RO	1	0	2.11315011978	-487.0	-8.0	-486	-4	1
2.7	2015_May_04_1311	s	s	4	1	SIC	369	ABS	1	0	02VD 02VO 02VC 02MD 02MO 10MC 02RD 02RO	0	1	4.06024098396	None	None	None	None	1
2.7	2015_May_04_1311	s	s	4	1	SIC	370	RC	1	0	02VD 02VO 02VC 02MD 02MO 09MC 02RD 02RO	1	0	0.926002979279	-42.0	92.0	-38	79	1
2.7	2015_May_04_1311	s	s	4	1	SIC	371	ABS	2	2	10VD 02VO 02VC 02MD 02MO 02MC 02RD 02RO	0	1	2.8088991642	None	None	None	None	1
2.7	2015_May_04_1311	s	s	4	1	SIC	372	ABS	1	2	02VD 02VO 02VC 10MD 02MO 02MC 02RD 02RO	0	1	2.83651399612	None	None	None	None	1
2.7	2015_May_04_1311	s	s	4	1	SIC	373	ABS	0	2	02VD 02VO 02VC 02MD 02MO 02MC 10RD 02RO	0	1	2.60064482689	None	None	None	None	1
2.7	2015_May_04_1311	s	s	4	1	SIC	374	RC	1	2	02VD 02VO 02VC 09MD 02MO 02MC 02RD 02RO	1	0	1.15288281441	196.0	103.0	194	108	1
2.7	2015_May_04_1311	s	s	4	1	SIC	375	RC	1	1	02VD 02VO 02VC 02MD 09MO 02MC 02RD 02RO	1	0	1.10316491127	294.0	120.0	292	118	1
2.7	2015_May_04_1311	s	s	4	1	SIC	376	RC	2	2	09VD 02VO 02VC 02MD 02MO 02MC 02RD 02RO	1	0	2.35966706276	480.0	101.0	483	89	1
2.7	2015_May_04_1311	s	s	4	1	SIC	377	RC	2	1	02VD 09VO 02VC 02MD 02MO 02MC 02RD 02RO	1	0	1.64481115341	457.0	-345.0	463	-351	1
2.7	2015_May_04_1311	s	s	4	1	SIC	378	RC	0	2	02VD 02VO 02VC 02MD 02MO 02MC 09RD 02RO	1	0	0.938300848007	134.0	-230.0	135	-231	1
2.7	2015_May_04_1311	s	s	4	1	SIC	379	ABS	2	0	02VD 02VO 10VC 02MD 02MO 02MC 02RD 02RO	0	1	2.95395684242	None	None	None	None	1
2.7	2015_May_04_1311	s	s	4	1	SIC	380	ABS	0	1	02VD 02VO 02VC 02MD 02MO 02MC 02RD 10RO	0	1	3.48347616196	None	None	None	None	1
2.7	2015_May_04_1311	s	s	4	1	SIC	381	ABS	1	1	02VD 02VO 02VC 02MD 10MO 02MC 02RD 02RO	0	1	3.03612780571	None	None	None	None	1
2.7	2015_May_04_1311	s	s	4	1	SIC	382	ABS	2	1	02VD 10VO 02VC 02MD 02MO 02MC 02RD 02RO	0	1	2.54184007645	None	None	None	None	1
2.7	2015_May_04_1311	s	s	4	1	SIC	383	RC	0	1	02VD 02VO 02VC 02MD 02MO 02MC 02RD 09RO	1	0	1.26564788818	413.0	-16.0	416	-17	1
2.7	2015_May_04_1311	s	s	4	1	SIC	384	RC	2	0	02VD 02VO 09VC 02MD 02MO 02MC 02RD 02RO	1	0	0.776300907135	-154.0	-157.0	-153	-150	1
2.7	2015_May_04_1311	s	s	4	1	SIC	385	RC	2	0	02VD 02VO 09VC 02MD 02MO 02MC 02RD 02RO	1	0	0.973641872406	-231.0	85.0	-226	88	1
2.7	2015_May_04_1311	s	s	4	1	SIC	386	ABS	2	2	10VD 02VO 02VC 02MD 02MO 02MC 02RD 02RO	0	1	2.68312001228	None	None	None	None	1
2.7	2015_May_04_1311	s	s	4	1	SIC	387	ABS	0	2	02VD 02VO 02VC 02MD 02MO 02MC 10RD 02RO	0	1	2.28960800171	None	None	None	None	1
2.7	2015_May_04_1311	s	s	4	1	SIC	388	RC	1	2	02VD 02VO 02VC 09MD 02MO 02MC 02RD 02RO	1	0	1.3597009182	-155.0	-217.0	-155	-219	1
2.7	2015_May_04_1311	s	s	4	1	SIC	389	RC	0	1	02VD 02VO 02VC 02MD 02MO 02MC 02RD 09RO	1	0	2.8313229084	342.0	-241.0	340	-245	1
2.7	2015_May_04_1311	s	s	4	1	SIC	390	RC	2	1	02VD 09VO 02VC 02MD 02MO 02MC 02RD 02RO	1	0	1.77173781395	-297.0	-403.0	-306	-403	1
2.7	2015_May_04_1311	s	s	4	1	SIC	391	ABS	0	1	02VD 02VO 02VC 02MD 02MO 02MC 02RD 10RO	0	1	2.72519993782	None	None	None	None	1
2.7	2015_May_04_1311	s	s	4	1	SIC	392	ABS	2	1	02VD 10VO 02VC 02MD 02MO 02MC 02RD 02RO	0	1	2.18370199203	None	None	None	None	1
2.7	2015_May_04_1311	s	s	4	1	SIC	393	RC	0	2	02VD 02VO 02VC 02MD 02MO 02MC 09RD 02RO	1	0	0.950361967087	57.0	-178.0	66	-178	1
2.7	2015_May_04_1311	s	s	4	1	SIC	394	ABS	1	1	02VD 02VO 02VC 02MD 10MO 02MC 02RD 02RO	0	1	3.0597782135	None	None	None	None	1
2.7	2015_May_04_1311	s	s	4	1	SIC	395	RC	1	1	02VD 02VO 02VC 02MD 09MO 02MC 02RD 02RO	1	0	1.0914170742	48.0	-154.0	53	-149	1
2.7	2015_May_04_1311	s	s	4	1	SIC	396	ABS	1	2	02VD 02VO 02VC 10MD 02MO 02MC 02RD 02RO	0	1	2.95382595062	None	None	None	None	1
2.7	2015_May_04_1311	s	s	4	1	SIC	397	RC	2	2	09VD 02VO 02VC 02MD 02MO 02MC 02RD 02RO	1	0	1.23566389084	-286.0	224.0	-287	232	1
2.7	2015_May_04_1311	s	s	4	1	SIC	398	ABS	2	0	02VD 02VO 10VC 02MD 02MO 02MC 02RD 02RO	0	1	3.20105695724	None	None	None	None	1
2.7	2015_May_04_1311	s	s	4	1	SIC	399	RC	1	0	02VD 02VO 02VC 02MD 02MO 09MC 02RD 02RO	1	0	2.6073179245	442.0	129.0	444	126	1
2.7	2015_May_04_1311	s	s	4	1	SIC	400	ABS	1	0	02VD 02VO 02VC 02MD 02MO 10MC 02RD 02RO	0	1	3.74900698662	None	None	None	None	1
2.7	2015_May_04_1311	s	s	4	1	SIC	401	RC	2	0	02VD 02VO 09VC 02MD 02MO 02MC 02RD 02RO	1	0	1.65419411659	379.0	-374.0	372	-368	1
2.7	2015_May_04_1311	s	s	4	1	SIC	402	ABS	1	0	02VD 02VO 02VC 02MD 02MO 10MC 02RD 02RO	0	1	2.40732002258	None	None	None	None	1
2.7	2015_May_04_1311	s	s	4	1	SIC	403	ABS	0	2	02VD 02VO 02VC 02MD 02MO 02MC 10RD 02RO	0	1	2.7133910656	None	None	None	None	1
2.7	2015_May_04_1311	s	s	4	1	SIC	404	RC	2	2	09VD 02VO 02VC 02MD 02MO 02MC 02RD 02RO	1	0	1.19507288933	-464.0	-57.0	-469	-58	1
2.7	2015_May_04_1311	s	s	4	1	SIC	405	ABS	0	1	02VD 02VO 02VC 02MD 02MO 02MC 02RD 10RO	0	1	3.05465197563	None	None	None	None	1
2.7	2015_May_04_1311	s	s	4	1	SIC	406	RC	1	0	02VD 02VO 02VC 02MD 02MO 09MC 02RD 02RO	0	1	3.63408207893	178.0	282.0	None	None	0
2.7	2015_May_04_1311	s	s	4	1	SIC	407	RC	0	2	02VD 02VO 02VC 02MD 02MO 02MC 09RD 02RO	1	0	1.70614719391	124.0	-366.0	124	-368	1
2.7	2015_May_04_1311	s	s	4	1	SIC	408	ABS	2	1	02VD 10VO 02VC 02MD 02MO 02MC 02RD 02RO	0	1	2.0449488163	None	None	None	None	1
2.7	2015_May_04_1311	s	s	4	1	SIC	409	ABS	2	2	10VD 02VO 02VC 02MD 02MO 02MC 02RD 02RO	0	1	2.18545103073	None	None	None	None	1
2.7	2015_May_04_1311	s	s	4	1	SIC	410	ABS	1	2	02VD 02VO 02VC 10MD 02MO 02MC 02RD 02RO	0	1	2.55358099937	None	None	None	None	1
2.7	2015_May_04_1311	s	s	4	1	SIC	411	RC	2	1	02VD 09VO 02VC 02MD 02MO 02MC 02RD 02RO	1	0	2.24255013466	-395.0	109.0	-390	119	1
2.7	2015_May_04_1311	s	s	4	1	SIC	412	ABS	1	1	02VD 02VO 02VC 02MD 10MO 02MC 02RD 02RO	0	1	2.96074008942	None	None	None	None	1
2.7	2015_May_04_1311	s	s	4	1	SIC	413	RC	1	1	02VD 02VO 02VC 02MD 09MO 02MC 02RD 02RO	0	1	2.45449185371	-384.0	-9.0	None	None	0
2.7	2015_May_04_1311	s	s	4	1	SIC	414	RC	1	2	02VD 02VO 02VC 09MD 02MO 02MC 02RD 02RO	1	0	1.11806201935	-36.0	-73.0	-26	-70	1
2.7	2015_May_04_1311	s	s	4	1	SIC	415	RC	0	1	02VD 02VO 02VC 02MD 02MO 02MC 02RD 09RO	1	0	3.42169809341	-519.0	306.0	-519	300	1
2.7	2015_May_04_1311	s	s	4	1	SIC	416	ABS	2	0	02VD 02VO 10VC 02MD 02MO 02MC 02RD 02RO	0	1	1.61872601509	None	None	None	None	1
2.7	2015_May_04_1311	s	s	4	1	SIC	417	ABS	1	1	02VD 02VO 02VC 02MD 10MO 02MC 02RD 02RO	0	1	2.35388493538	None	None	None	None	1
2.7	2015_May_04_1311	s	s	4	1	SIC	418	ABS	0	1	02VD 02VO 02VC 02MD 02MO 02MC 02RD 10RO	0	1	2.73637199402	None	None	None	None	1
2.7	2015_May_04_1311	s	s	4	1	SIC	419	RC	1	0	02VD 02VO 02VC 02MD 02MO 09MC 02RD 02RO	1	0	1.04201793671	95.0	-89.0	94	-102	1
2.7	2015_May_04_1311	s	s	4	1	SIC	420	RC	2	0	02VD 02VO 09VC 02MD 02MO 02MC 02RD 02RO	1	0	5.86111712456	173.0	209.0	166	214	1
2.7	2015_May_04_1311	s	s	4	1	SIC	421	ABS	0	2	02VD 02VO 02VC 02MD 02MO 02MC 10RD 02RO	0	1	2.9185628891	None	None	None	None	1
2.7	2015_May_04_1311	s	s	4	1	SIC	422	ABS	2	0	02VD 02VO 10VC 02MD 02MO 02MC 02RD 02RO	0	1	2.18389320374	None	None	None	None	1
2.7	2015_May_04_1311	s	s	4	1	SIC	423	ABS	1	2	02VD 02VO 02VC 10MD 02MO 02MC 02RD 02RO	0	1	2.10674500465	None	None	None	None	1
2.7	2015_May_04_1311	s	s	4	1	SIC	424	ABS	1	0	02VD 02VO 02VC 02MD 02MO 10MC 02RD 02RO	0	1	2.21885299683	None	None	None	None	1
2.7	2015_May_04_1311	s	s	4	1	SIC	425	RC	0	2	02VD 02VO 02VC 02MD 02MO 02MC 09RD 02RO	1	0	2.65496897697	445.0	213.0	441	219	1
2.7	2015_May_04_1311	s	s	4	1	SIC	426	RC	2	2	09VD 02VO 02VC 02MD 02MO 02MC 02RD 02RO	1	0	1.87733507156	182.0	-266.0	180	-281	1
2.7	2015_May_04_1311	s	s	4	1	SIC	427	ABS	2	2	10VD 02VO 02VC 02MD 02MO 02MC 02RD 02RO	0	1	2.21906113625	None	None	None	None	1
2.7	2015_May_04_1311	s	s	4	1	SIC	428	ABS	2	1	02VD 10VO 02VC 02MD 02MO 02MC 02RD 02RO	0	1	2.38389396667	None	None	None	None	1
2.7	2015_May_04_1311	s	s	4	1	SIC	429	RC	2	1	02VD 09VO 02VC 02MD 02MO 02MC 02RD 02RO	1	0	1.37640595436	-255.0	95.0	-264	91	1
2.7	2015_May_04_1311	s	s	4	1	SIC	430	RC	0	1	02VD 02VO 02VC 02MD 02MO 02MC 02RD 09RO	0	1	3.55100297928	-460.0	-87.0	None	None	0
2.7	2015_May_04_1311	s	s	4	1	SIC	431	RC	1	2	02VD 02VO 02VC 09MD 02MO 02MC 02RD 02RO	1	0	1.08262205124	-261.0	356.0	-259	360	1
2.7	2015_May_04_1311	s	s	4	1	SIC	432	RC	1	1	02VD 02VO 02VC 02MD 09MO 02MC 02RD 02RO	1	0	1.05869102478	42.0	-2.0	43	1	1
2.7	2015_May_04_1311	s	s	4	1	SIC	433	ABS	2	2	10VD 02VO 02VC 02MD 02MO 02MC 02RD 02RO	0	1	2.23574399948	None	None	None	None	1
2.7	2015_May_04_1311	s	s	4	1	SIC	434	RC	0	2	02VD 02VO 02VC 02MD 02MO 02MC 09RD 02RO	1	0	1.17649006844	-328.0	355.0	-320	351	1
2.7	2015_May_04_1311	s	s	4	1	SIC	435	ABS	0	1	02VD 02VO 02VC 02MD 02MO 02MC 02RD 10RO	0	1	3.70181393623	None	None	None	None	1
2.7	2015_May_04_1311	s	s	4	1	SIC	436	ABS	1	2	02VD 02VO 02VC 10MD 02MO 02MC 02RD 02RO	0	1	2.14166498184	None	None	None	None	1
2.7	2015_May_04_1311	s	s	4	1	SIC	437	RC	2	0	02VD 02VO 09VC 02MD 02MO 02MC 02RD 02RO	1	0	1.53622603416	429.0	239.0	435	237	1
2.7	2015_May_04_1311	s	s	4	1	SIC	438	ABS	1	1	02VD 02VO 02VC 02MD 10MO 02MC 02RD 02RO	0	1	2.24758386612	None	None	None	None	1
2.7	2015_May_04_1311	s	s	4	1	SIC	439	ABS	0	2	02VD 02VO 02VC 02MD 02MO 02MC 10RD 02RO	0	1	2.08284902573	None	None	None	None	1
2.7	2015_May_04_1311	s	s	4	1	SIC	440	ABS	2	1	02VD 10VO 02VC 02MD 02MO 02MC 02RD 02RO	0	1	1.78846621513	None	None	None	None	1
2.7	2015_May_04_1311	s	s	4	1	SIC	441	RC	0	1	02VD 02VO 02VC 02MD 02MO 02MC 02RD 09RO	0	1	2.77265381813	291.0	-108.0	None	None	0
2.7	2015_May_04_1311	s	s	4	1	SIC	442	RC	1	1	02VD 02VO 02VC 02MD 09MO 02MC 02RD 02RO	1	0	1.11753296852	205.0	331.0	204	331	1
2.7	2015_May_04_1311	s	s	4	1	SIC	443	RC	1	0	02VD 02VO 02VC 02MD 02MO 09MC 02RD 02RO	1	0	1.74819493294	-467.0	-367.0	-471	-372	1
2.7	2015_May_04_1311	s	s	4	1	SIC	444	RC	2	2	09VD 02VO 02VC 02MD 02MO 02MC 02RD 02RO	1	0	2.54949498177	529.0	-127.0	409	-26	0
2.7	2015_May_04_1311	s	s	4	1	SIC	445	RC	2	1	02VD 09VO 02VC 02MD 02MO 02MC 02RD 02RO	1	0	1.3120970726	376.0	78.0	383	75	1
2.7	2015_May_04_1311	s	s	4	1	SIC	446	ABS	1	0	02VD 02VO 02VC 02MD 02MO 10MC 02RD 02RO	0	1	3.0565829277	None	None	None	None	1
2.7	2015_May_04_1311	s	s	4	1	SIC	447	ABS	2	0	02VD 02VO 10VC 02MD 02MO 02MC 02RD 02RO	0	1	2.38882708549	None	None	None	None	1
2.7	2015_May_04_1311	s	s	4	1	SIC	448	RC	1	2	02VD 02VO 02VC 09MD 02MO 02MC 02RD 02RO	1	0	1.69021296501	501.0	71.0	504	63	1
2.7	2015_May_04_1311	s	s	4	1	SIC	449	ABS	2	1	02VD 10VO 02VC 02MD 02MO 02MC 02RD 02RO	0	1	1.70628404617	None	None	None	None	1
2.7	2015_May_04_1311	s	s	4	1	SIC	450	ABS	2	0	02VD 02VO 10VC 02MD 02MO 02MC 02RD 02RO	0	1	2.80738997459	None	None	None	None	1
2.7	2015_May_04_1311	s	s	4	1	SIC	451	RC	2	0	02VD 02VO 09VC 02MD 02MO 02MC 02RD 02RO	1	0	2.2711250782	351.0	-367.0	351	-375	1
2.7	2015_May_04_1311	s	s	4	1	SIC	452	RC	1	1	02VD 02VO 02VC 02MD 09MO 02MC 02RD 02RO	1	0	1.37152719498	-522.0	-75.0	-521	-84	1
2.7	2015_May_04_1311	s	s	4	1	SIC	453	RC	1	2	02VD 02VO 02VC 09MD 02MO 02MC 02RD 02RO	1	0	1.11511516571	-383.0	340.0	-381	348	1
2.7	2015_May_04_1311	s	s	4	1	SIC	454	RC	2	2	09VD 02VO 02VC 02MD 02MO 02MC 02RD 02RO	1	0	1.43050098419	-156.0	-241.0	-158	-248	1
2.7	2015_May_04_1311	s	s	4	1	SIC	455	ABS	1	0	02VD 02VO 02VC 02MD 02MO 10MC 02RD 02RO	0	1	2.14536809921	None	None	None	None	1
2.7	2015_May_04_1311	s	s	4	1	SIC	456	RC	2	1	02VD 09VO 02VC 02MD 02MO 02MC 02RD 02RO	1	0	1.49424695969	-328.0	33.0	-332	24	1
2.7	2015_May_04_1311	s	s	4	1	SIC	457	RC	1	0	02VD 02VO 02VC 02MD 02MO 09MC 02RD 02RO	1	0	1.02056002617	-268.0	-54.0	-271	-60	1
2.7	2015_May_04_1311	s	s	4	1	SIC	458	ABS	1	2	02VD 02VO 02VC 10MD 02MO 02MC 02RD 02RO	0	1	2.37704014778	None	None	None	None	1
2.7	2015_May_04_1311	s	s	4	1	SIC	459	ABS	1	1	02VD 02VO 02VC 02MD 10MO 02MC 02RD 02RO	0	1	3.28341889381	None	None	None	None	1
2.7	2015_May_04_1311	s	s	4	1	SIC	460	ABS	2	2	10VD 02VO 02VC 02MD 02MO 02MC 02RD 02RO	0	1	2.44769310951	None	None	None	None	1
2.7	2015_May_04_1311	s	s	4	1	SIC	461	ABS	0	2	02VD 02VO 02VC 02MD 02MO 02MC 10RD 02RO	0	1	2.07790803909	None	None	None	None	1
2.7	2015_May_04_1311	s	s	4	1	SIC	462	ABS	0	1	02VD 02VO 02VC 02MD 02MO 02MC 02RD 10RO	0	1	2.67862319946	None	None	None	None	1
2.7	2015_May_04_1311	s	s	4	1	SIC	463	RC	0	2	02VD 02VO 02VC 02MD 02MO 02MC 09RD 02RO	1	0	1.09435009956	-187.0	13.0	-185	9	1
2.7	2015_May_04_1311	s	s	4	1	SIC	464	RC	0	1	02VD 02VO 02VC 02MD 02MO 02MC 02RD 09RO	1	0	1.58877301216	33.0	-301.0	33	-302	1
2.7	2015_May_04_1311	s	s	4	1	SIC	465	RC	0	2	02VD 02VO 02VC 02MD 02MO 02MC 09RD 02RO	1	0	2.61929702759	462.0	362.0	460	351	1
2.7	2015_May_04_1311	s	s	4	1	SIC	466	ABS	0	1	02VD 02VO 02VC 02MD 02MO 02MC 02RD 10RO	0	1	2.30379199982	None	None	None	None	1
2.7	2015_May_04_1311	s	s	4	1	SIC	467	ABS	2	1	02VD 10VO 02VC 02MD 02MO 02MC 02RD 02RO	0	1	1.63041090965	None	None	None	None	1
2.7	2015_May_04_1311	s	s	4	1	SIC	468	ABS	0	2	02VD 02VO 02VC 02MD 02MO 02MC 10RD 02RO	0	1	1.94745898247	None	None	None	None	1
2.7	2015_May_04_1311	s	s	4	1	SIC	469	RC	2	2	09VD 02VO 02VC 02MD 02MO 02MC 02RD 02RO	1	0	2.0595099926	-119.0	176.0	-115	184	1
2.7	2015_May_04_1311	s	s	4	1	SIC	470	RC	1	1	02VD 02VO 02VC 02MD 09MO 02MC 02RD 02RO	1	0	3.39623999596	271.0	-207.0	272	-205	1
2.7	2015_May_04_1311	s	s	4	1	SIC	471	RC	2	1	02VD 09VO 02VC 02MD 02MO 02MC 02RD 02RO	1	0	1.06417584419	-22.0	166.0	-22	167	1
2.7	2015_May_04_1311	s	s	4	1	SIC	472	ABS	1	1	02VD 02VO 02VC 02MD 10MO 02MC 02RD 02RO	0	1	3.48013806343	None	None	None	None	1
2.7	2015_May_04_1311	s	s	4	1	SIC	473	ABS	1	0	02VD 02VO 02VC 02MD 02MO 10MC 02RD 02RO	0	1	3.6457118988	None	None	None	None	1
2.7	2015_May_04_1311	s	s	4	1	SIC	474	RC	1	2	02VD 02VO 02VC 09MD 02MO 02MC 02RD 02RO	1	0	1.17147397995	308.0	190.0	308	192	1
2.7	2015_May_04_1311	s	s	4	1	SIC	475	RC	1	0	02VD 02VO 02VC 02MD 02MO 09MC 02RD 02RO	1	0	2.41231489182	173.0	-227.0	167	-230	1
2.7	2015_May_04_1311	s	s	4	1	SIC	476	ABS	2	0	02VD 02VO 10VC 02MD 02MO 02MC 02RD 02RO	0	1	2.6546061039	None	None	None	None	1
2.7	2015_May_04_1311	s	s	4	1	SIC	477	RC	0	1	02VD 02VO 02VC 02MD 02MO 02MC 02RD 09RO	1	0	1.91799688339	-110.0	-251.0	-105	-253	1
2.7	2015_May_04_1311	s	s	4	1	SIC	478	RC	2	0	02VD 02VO 09VC 02MD 02MO 02MC 02RD 02RO	1	0	1.28876304626	167.0	-230.0	165	-232	1
2.7	2015_May_04_1311	s	s	4	1	SIC	479	ABS	1	2	02VD 02VO 02VC 10MD 02MO 02MC 02RD 02RO	0	1	2.32497000694	None	None	None	None	1
2.7	2015_May_04_1311	s	s	4	1	SIC	480	ABS	2	2	10VD 02VO 02VC 02MD 02MO 02MC 02RD 02RO	0	1	2.51828813553	None	None	None	None	1
