Version	Date	Stimuli	Method	Subject	Session	Condition	Trial	Target	Channel1	Channel2	Distractors	LMouseButton	RMouseButton	RT	TargetX	TargetY	ResponseX	ResponseY	Correct
2.7	2015_May_05_1302	s	s	5	2	Capacity	1	RC	0	2	15RD 08RO	1	0	2.67123985291	467.0	-48.0	470	-54	1
2.7	2015_May_05_1302	s	s	5	2	Capacity	2	ABS	0	1	08RD 16RO	0	1	3.25417494774	None	None	None	None	1
2.7	2015_May_05_1302	s	s	5	2	Capacity	3	RC	0	1	08RD 15RO	1	0	1.75327205658	150.0	-193.0	146	-193	1
2.7	2015_May_05_1302	s	s	5	2	Capacity	4	ABS	0	2	16RD 08RO	0	1	3.80582284927	None	None	None	None	1
2.7	2015_May_05_1302	s	s	5	2	Capacity	5	RC	0	2	15RD 08RO	1	0	1.05531001091	131.0	49.0	129	41	1
2.7	2015_May_05_1302	s	s	5	2	Capacity	6	ABS	0	2	16RD 08RO	0	1	3.50694608688	None	None	None	None	1
2.7	2015_May_05_1302	s	s	5	2	Capacity	7	RC	0	1	08RD 15RO	1	0	4.01316285133	-497.0	-291.0	-490	-290	1
2.7	2015_May_05_1302	s	s	5	2	Capacity	8	ABS	0	1	08RD 16RO	0	1	4.81354093552	None	None	None	None	1
2.7	2015_May_05_1302	s	s	5	2	Capacity	9	ABS	0	1	08RD 16RO	0	1	6.29180717468	None	None	None	None	1
2.7	2015_May_05_1302	s	s	5	2	Capacity	10	RC	0	1	08RD 15RO	1	0	4.59000086784	497.0	-291.0	501	-289	1
2.7	2015_May_05_1302	s	s	5	2	Capacity	11	RC	0	2	15RD 08RO	1	0	3.24804115295	360.0	-25.0	363	-21	1
2.7	2015_May_05_1302	s	s	5	2	Capacity	12	ABS	0	2	16RD 08RO	0	1	4.11951494217	None	None	None	None	1
2.7	2015_May_05_1302	s	s	5	2	Capacity	13	RC	0	2	15RD 08RO	1	0	4.42515707016	458.0	144.0	458	140	1
2.7	2015_May_05_1302	s	s	5	2	Capacity	14	ABS	0	1	08RD 16RO	0	1	6.22397089005	None	None	None	None	1
2.7	2015_May_05_1302	s	s	5	2	Capacity	15	RC	0	1	08RD 15RO	1	0	1.78846907616	-104.0	-115.0	-102	-113	1
2.7	2015_May_05_1302	s	s	5	2	Capacity	16	ABS	0	2	16RD 08RO	0	1	4.33087706566	None	None	None	None	1
2.7	2015_May_05_1302	s	s	5	2	Capacity	17	RC	0	1	08RD 15RO	1	0	3.10172796249	261.0	213.0	264	213	1
2.7	2015_May_05_1302	s	s	5	2	Capacity	18	ABS	0	2	16RD 08RO	0	1	3.9135620594	None	None	None	None	1
2.7	2015_May_05_1302	s	s	5	2	Capacity	19	ABS	0	1	08RD 16RO	0	1	6.33238196373	None	None	None	None	1
2.7	2015_May_05_1302	s	s	5	2	Capacity	20	RC	0	2	15RD 08RO	1	0	5.17443990707	291.0	108.0	296	103	1
2.7	2015_May_05_1302	s	s	5	2	Capacity	21	ABS	0	1	08RD 16RO	0	1	6.97940301895	None	None	None	None	1
2.7	2015_May_05_1302	s	s	5	2	Capacity	22	RC	0	1	08RD 15RO	1	0	4.25492405891	374.0	368.0	373	365	1
2.7	2015_May_05_1302	s	s	5	2	Capacity	23	ABS	0	2	16RD 08RO	0	1	5.72845602036	None	None	None	None	1
2.7	2015_May_05_1302	s	s	5	2	Capacity	24	RC	0	2	15RD 08RO	1	0	5.33143687248	382.0	310.0	379	301	1
2.7	2015_May_05_1302	s	s	5	2	Capacity	25	RC	0	2	15RD 08RO	1	0	6.07297301292	293.0	-121.0	291	-122	1
2.7	2015_May_05_1302	s	s	5	2	Capacity	26	RC	0	1	08RD 15RO	1	0	5.57251191139	523.0	-392.0	527	-387	1
2.7	2015_May_05_1302	s	s	5	2	Capacity	27	ABS	0	1	08RD 16RO	0	1	4.61345005035	None	None	None	None	1
2.7	2015_May_05_1302	s	s	5	2	Capacity	28	ABS	0	2	16RD 08RO	0	1	3.97602510452	None	None	None	None	1
2.7	2015_May_05_1302	s	s	5	2	Capacity	29	ABS	0	2	16RD 08RO	0	1	4.25460982323	None	None	None	None	1
2.7	2015_May_05_1302	s	s	5	2	Capacity	30	RC	0	2	15RD 08RO	1	0	2.89251995087	191.0	265.0	191	268	1
2.7	2015_May_05_1302	s	s	5	2	Capacity	31	ABS	0	1	08RD 16RO	0	1	7.75607204437	None	None	None	None	1
2.7	2015_May_05_1302	s	s	5	2	Capacity	32	RC	0	1	08RD 15RO	1	0	1.35856485367	-249.0	307.0	-250	302	1
2.7	2015_May_05_1302	s	s	5	2	Capacity	33	RC	0	2	15RD 08RO	1	0	3.89085197449	361.0	-151.0	355	-153	1
2.7	2015_May_05_1302	s	s	5	2	Capacity	34	RC	0	1	08RD 15RO	1	0	1.14709305763	-79.0	276.0	-85	272	1
2.7	2015_May_05_1302	s	s	5	2	Capacity	35	ABS	0	1	08RD 16RO	0	1	5.16382288933	None	None	None	None	1
2.7	2015_May_05_1302	s	s	5	2	Capacity	36	ABS	0	2	16RD 08RO	0	1	5.62318515778	None	None	None	None	1
2.7	2015_May_05_1302	s	s	5	2	Capacity	37	ABS	0	2	16RD 08RO	0	1	5.46101903915	None	None	None	None	1
2.7	2015_May_05_1302	s	s	5	2	Capacity	38	RC	0	2	15RD 08RO	1	0	1.86569404602	-464.0	-42.0	-462	-36	1
2.7	2015_May_05_1302	s	s	5	2	Capacity	39	ABS	0	1	08RD 16RO	0	1	6.75235414505	None	None	None	None	1
2.7	2015_May_05_1302	s	s	5	2	Capacity	40	RC	0	1	08RD 15RO	1	0	1.46752405167	-253.0	392.0	-252	390	1
2.7	2015_May_05_1302	s	s	5	2	Capacity	41	RC	0	2	15RD 08RO	1	0	3.43371605873	291.0	-277.0	295	-280	1
2.7	2015_May_05_1302	s	s	5	2	Capacity	42	RC	0	1	08RD 15RO	1	0	1.33770012856	4.0	369.0	4	365	1
2.7	2015_May_05_1302	s	s	5	2	Capacity	43	ABS	0	1	08RD 16RO	0	1	4.79004716873	None	None	None	None	1
2.7	2015_May_05_1302	s	s	5	2	Capacity	44	ABS	0	2	16RD 08RO	0	1	3.37757992744	None	None	None	None	1
2.7	2015_May_05_1302	s	s	5	2	Capacity	45	RC	0	1	08RD 15RO	1	0	3.13735103607	-394.0	-189.0	-389	-187	1
2.7	2015_May_05_1302	s	s	5	2	Capacity	46	RC	0	2	15RD 08RO	1	0	2.15049409866	207.0	-286.0	213	-290	1
2.7	2015_May_05_1302	s	s	5	2	Capacity	47	ABS	0	1	08RD 16RO	0	1	5.11386299133	None	None	None	None	1
2.7	2015_May_05_1302	s	s	5	2	Capacity	48	ABS	0	2	16RD 08RO	0	1	2.78924393654	None	None	None	None	1
2.7	2015_May_05_1302	s	s	5	2	Capacity	49	ABS	0	1	08RD 16RO	0	1	6.57115888596	None	None	None	None	1
2.7	2015_May_05_1302	s	s	5	2	Capacity	50	RC	0	1	08RD 15RO	1	0	6.00238609314	-338.0	-91.0	-337	-93	1
2.7	2015_May_05_1302	s	s	5	2	Capacity	51	RC	0	2	15RD 08RO	1	0	2.8595468998	59.0	366.0	50	372	1
2.7	2015_May_05_1302	s	s	5	2	Capacity	52	ABS	0	2	16RD 08RO	0	1	2.61934399605	None	None	None	None	1
2.7	2015_May_05_1302	s	s	5	2	Capacity	53	RC	0	2	15RD 08RO	1	0	1.23179578781	-355.0	364.0	-357	361	1
2.7	2015_May_05_1302	s	s	5	2	Capacity	54	RC	0	1	08RD 15RO	1	0	2.64759302139	-92.0	-176.0	-90	-175	1
2.7	2015_May_05_1302	s	s	5	2	Capacity	55	ABS	0	2	16RD 08RO	0	1	3.2955031395	None	None	None	None	1
2.7	2015_May_05_1302	s	s	5	2	Capacity	56	ABS	0	1	08RD 16RO	0	1	8.14121294022	None	None	None	None	1
2.7	2015_May_05_1302	s	s	5	2	Capacity	57	RC	0	1	08RD 15RO	0	1	5.85493302345	17.0	202.0	None	None	0
2.7	2015_May_05_1302	s	s	5	2	Capacity	58	ABS	0	1	08RD 16RO	0	1	10.1809139252	None	None	None	None	1
2.7	2015_May_05_1302	s	s	5	2	Capacity	59	RC	0	2	15RD 08RO	1	0	2.9890460968	-217.0	-195.0	-210	-198	1
2.7	2015_May_05_1302	s	s	5	2	Capacity	60	ABS	0	2	16RD 08RO	0	1	2.80932998657	None	None	None	None	1
2.7	2015_May_05_1302	s	s	5	2	Capacity	61	RC	0	1	08RD 15RO	1	0	3.9049179554	427.0	-355.0	435	-359	1
2.7	2015_May_05_1302	s	s	5	2	Capacity	62	RC	0	2	15RD 08RO	1	0	2.47801399231	-77.0	349.0	-83	346	1
2.7	2015_May_05_1302	s	s	5	2	Capacity	63	ABS	0	1	08RD 16RO	0	1	5.44368910789	None	None	None	None	1
2.7	2015_May_05_1302	s	s	5	2	Capacity	64	ABS	0	2	16RD 08RO	0	1	3.08332896233	None	None	None	None	1
2.7	2015_May_05_1302	s	s	5	2	Capacity	1	ABS	1	0	08VC 16MC	0	1	4.20869684219	None	None	None	None	1
2.7	2015_May_05_1302	s	s	5	2	Capacity	2	RC	2	0	15VC 08MC	1	0	2.98932600021	402.0	353.0	405	351	1
2.7	2015_May_05_1302	s	s	5	2	Capacity	3	ABS	2	0	16VC 08MC	1	0	2.98916196823	None	None	85	24	0
2.7	2015_May_05_1302	s	s	5	2	Capacity	4	RC	1	0	08VC 15MC	1	0	2.60816717148	-307.0	-187.0	-301	-184	1
2.7	2015_May_05_1302	s	s	5	2	Capacity	5	ABS	1	0	08VC 16MC	0	1	4.17800307274	None	None	None	None	1
2.7	2015_May_05_1302	s	s	5	2	Capacity	6	RC	1	0	08VC 15MC	1	0	1.36463904381	-442.0	151.0	-445	147	1
2.7	2015_May_05_1302	s	s	5	2	Capacity	7	ABS	2	0	16VC 08MC	0	1	4.16671204567	None	None	None	None	1
2.7	2015_May_05_1302	s	s	5	2	Capacity	8	RC	2	0	15VC 08MC	1	0	1.18257713318	112.0	29.0	112	28	1
2.7	2015_May_05_1302	s	s	5	2	Capacity	9	RC	1	0	08VC 15MC	1	0	1.24251794815	38.0	-240.0	40	-245	1
2.7	2015_May_05_1302	s	s	5	2	Capacity	10	ABS	2	0	16VC 08MC	0	1	3.12754297256	None	None	None	None	1
2.7	2015_May_05_1302	s	s	5	2	Capacity	11	ABS	1	0	08VC 16MC	0	1	1.94131493568	None	None	None	None	1
2.7	2015_May_05_1302	s	s	5	2	Capacity	12	RC	2	0	15VC 08MC	1	0	1.02330112457	-214.0	141.0	-211	139	1
2.7	2015_May_05_1302	s	s	5	2	Capacity	13	RC	2	0	15VC 08MC	1	0	1.74136686325	-71.0	-328.0	-70	-337	1
2.7	2015_May_05_1302	s	s	5	2	Capacity	14	ABS	1	0	08VC 16MC	1	0	5.38514590263	None	None	0	26	0
2.7	2015_May_05_1302	s	s	5	2	Capacity	15	RC	1	0	08VC 15MC	1	0	1.88285207748	-321.0	-187.0	-320	-183	1
2.7	2015_May_05_1302	s	s	5	2	Capacity	16	ABS	2	0	16VC 08MC	0	1	4.5599489212	None	None	None	None	1
2.7	2015_May_05_1302	s	s	5	2	Capacity	17	ABS	2	0	16VC 08MC	0	1	2.91636514664	None	None	None	None	1
2.7	2015_May_05_1302	s	s	5	2	Capacity	18	RC	1	0	08VC 15MC	1	0	1.54822301865	180.0	232.0	185	231	1
2.7	2015_May_05_1302	s	s	5	2	Capacity	19	RC	2	0	15VC 08MC	1	0	1.4760351181	-153.0	-410.0	-155	-403	1
2.7	2015_May_05_1302	s	s	5	2	Capacity	20	ABS	1	0	08VC 16MC	0	1	4.1371088028	None	None	None	None	1
2.7	2015_May_05_1302	s	s	5	2	Capacity	21	RC	2	0	15VC 08MC	1	0	2.04747104645	429.0	-130.0	428	-131	1
2.7	2015_May_05_1302	s	s	5	2	Capacity	22	RC	1	0	08VC 15MC	1	0	2.99624109268	-44.0	30.0	-40	24	1
2.7	2015_May_05_1302	s	s	5	2	Capacity	23	ABS	2	0	16VC 08MC	0	1	3.70181512833	None	None	None	None	1
2.7	2015_May_05_1302	s	s	5	2	Capacity	24	ABS	1	0	08VC 16MC	0	1	6.73216986656	None	None	None	None	1
2.7	2015_May_05_1302	s	s	5	2	Capacity	25	RC	1	0	08VC 15MC	1	0	2.83612585068	-296.0	107.0	-291	99	1
2.7	2015_May_05_1302	s	s	5	2	Capacity	26	ABS	2	0	16VC 08MC	0	1	3.7189218998	None	None	None	None	1
2.7	2015_May_05_1302	s	s	5	2	Capacity	27	ABS	1	0	08VC 16MC	0	1	4.44497799873	None	None	None	None	1
2.7	2015_May_05_1302	s	s	5	2	Capacity	28	RC	2	0	15VC 08MC	1	0	2.75998783112	456.0	357.0	452	359	1
2.7	2015_May_05_1302	s	s	5	2	Capacity	29	ABS	2	0	16VC 08MC	0	1	5.68886184692	None	None	None	None	1
2.7	2015_May_05_1302	s	s	5	2	Capacity	30	ABS	1	0	08VC 16MC	0	1	7.49747300148	None	None	None	None	1
2.7	2015_May_05_1302	s	s	5	2	Capacity	31	RC	2	0	15VC 08MC	1	0	2.20422291756	232.0	220.0	235	216	1
2.7	2015_May_05_1302	s	s	5	2	Capacity	32	RC	1	0	08VC 15MC	1	0	1.54881811142	-25.0	178.0	-23	175	1
2.7	2015_May_05_1302	s	s	5	2	Capacity	33	ABS	2	0	16VC 08MC	0	1	4.94983696938	None	None	None	None	1
2.7	2015_May_05_1302	s	s	5	2	Capacity	34	ABS	1	0	08VC 16MC	0	1	6.20247411728	None	None	None	None	1
2.7	2015_May_05_1302	s	s	5	2	Capacity	35	RC	2	0	15VC 08MC	1	0	1.89213609695	-414.0	-55.0	-410	-54	1
2.7	2015_May_05_1302	s	s	5	2	Capacity	36	RC	1	0	08VC 15MC	1	0	4.49576497078	-236.0	-223.0	-231	-221	1
2.7	2015_May_05_1302	s	s	5	2	Capacity	37	ABS	2	0	16VC 08MC	0	1	3.38949990273	None	None	None	None	1
2.7	2015_May_05_1302	s	s	5	2	Capacity	38	ABS	1	0	08VC 16MC	0	1	4.72608804703	None	None	None	None	1
2.7	2015_May_05_1302	s	s	5	2	Capacity	39	RC	1	0	08VC 15MC	1	0	1.38074302673	-93.0	77.0	-97	69	1
2.7	2015_May_05_1302	s	s	5	2	Capacity	40	RC	2	0	15VC 08MC	1	0	3.13721609116	488.0	39.0	487	43	1
2.7	2015_May_05_1302	s	s	5	2	Capacity	41	RC	1	0	08VC 15MC	1	0	3.63653111458	157.0	284.0	157	283	1
2.7	2015_May_05_1302	s	s	5	2	Capacity	42	ABS	1	0	08VC 16MC	0	1	4.39591217041	None	None	None	None	1
2.7	2015_May_05_1302	s	s	5	2	Capacity	43	ABS	2	0	16VC 08MC	0	1	4.09000301361	None	None	None	None	1
2.7	2015_May_05_1302	s	s	5	2	Capacity	44	RC	2	0	15VC 08MC	1	0	3.05412197113	-212.0	-286.0	-216	-289	1
2.7	2015_May_05_1302	s	s	5	2	Capacity	45	ABS	1	0	08VC 16MC	0	1	5.62095379829	None	None	None	None	1
2.7	2015_May_05_1302	s	s	5	2	Capacity	46	ABS	2	0	16VC 08MC	0	1	9.05099201202	None	None	None	None	1
2.7	2015_May_05_1302	s	s	5	2	Capacity	47	RC	1	0	08VC 15MC	1	0	2.3129761219	-293.0	158.0	-296	160	1
2.7	2015_May_05_1302	s	s	5	2	Capacity	48	RC	2	0	15VC 08MC	1	0	1.11264491081	-244.0	-26.0	-250	-26	1
2.7	2015_May_05_1302	s	s	5	2	Capacity	49	ABS	2	0	16VC 08MC	0	1	3.74247288704	None	None	None	None	1
2.7	2015_May_05_1302	s	s	5	2	Capacity	50	RC	1	0	08VC 15MC	1	0	1.35302305222	-327.0	-38.0	-319	-34	1
2.7	2015_May_05_1302	s	s	5	2	Capacity	51	RC	2	0	15VC 08MC	1	0	1.43076109886	-303.0	-233.0	-310	-233	1
2.7	2015_May_05_1302	s	s	5	2	Capacity	52	ABS	1	0	08VC 16MC	0	1	7.43841290474	None	None	None	None	1
2.7	2015_May_05_1302	s	s	5	2	Capacity	53	RC	2	0	15VC 08MC	1	0	2.99574494362	353.0	320.0	358	315	1
2.7	2015_May_05_1302	s	s	5	2	Capacity	54	ABS	2	0	16VC 08MC	0	1	4.04569101334	None	None	None	None	1
2.7	2015_May_05_1302	s	s	5	2	Capacity	55	RC	1	0	08VC 15MC	1	0	1.00641489029	-365.0	202.0	-363	196	1
2.7	2015_May_05_1302	s	s	5	2	Capacity	56	ABS	1	0	08VC 16MC	0	1	3.65514087677	None	None	None	None	1
2.7	2015_May_05_1302	s	s	5	2	Capacity	57	RC	2	0	15VC 08MC	1	0	1.07884001732	-56.0	38.0	-56	33	1
2.7	2015_May_05_1302	s	s	5	2	Capacity	58	ABS	2	0	16VC 08MC	0	1	3.16567397118	None	None	None	None	1
2.7	2015_May_05_1302	s	s	5	2	Capacity	59	RC	1	0	08VC 15MC	0	1	3.89534783363	284.0	-244.0	None	None	0
2.7	2015_May_05_1302	s	s	5	2	Capacity	60	ABS	1	0	08VC 16MC	0	1	3.57273888588	None	None	None	None	1
2.7	2015_May_05_1302	s	s	5	2	Capacity	61	ABS	1	0	08VC 16MC	0	1	6.08153510094	None	None	None	None	1
2.7	2015_May_05_1302	s	s	5	2	Capacity	62	RC	2	0	15VC 08MC	1	0	2.52493190765	508.0	316.0	506	309	1
2.7	2015_May_05_1302	s	s	5	2	Capacity	63	RC	1	0	08VC 15MC	1	0	1.48014116287	-106.0	-39.0	-106	-45	1
2.7	2015_May_05_1302	s	s	5	2	Capacity	64	ABS	2	0	16VC 08MC	0	1	2.40060806274	None	None	None	None	1
2.7	2015_May_05_1302	s	s	5	2	SIC	1	RC	1	1	02VD 02VO 02VC 02MD 09MO 02MC 02RD 02RO	1	0	3.4566860199	-331.0	-386.0	-330	-385	1
2.7	2015_May_05_1302	s	s	5	2	SIC	2	ABS	2	2	10VD 02VO 02VC 02MD 02MO 02MC 02RD 02RO	0	1	2.74186301231	None	None	None	None	1
2.7	2015_May_05_1302	s	s	5	2	SIC	3	ABS	1	1	02VD 02VO 02VC 02MD 10MO 02MC 02RD 02RO	0	1	11.3193969727	None	None	None	None	1
2.7	2015_May_05_1302	s	s	5	2	SIC	4	ABS	2	0	02VD 02VO 10VC 02MD 02MO 02MC 02RD 02RO	0	1	5.39756298065	None	None	None	None	1
2.7	2015_May_05_1302	s	s	5	2	SIC	5	RC	2	0	02VD 02VO 09VC 02MD 02MO 02MC 02RD 02RO	1	0	1.38413000107	-451.0	-341.0	-458	-341	1
2.7	2015_May_05_1302	s	s	5	2	SIC	6	ABS	1	0	02VD 02VO 02VC 02MD 02MO 10MC 02RD 02RO	0	1	4.84366512299	None	None	None	None	1
2.7	2015_May_05_1302	s	s	5	2	SIC	7	RC	1	0	02VD 02VO 02VC 02MD 02MO 09MC 02RD 02RO	1	0	3.8905608654	-244.0	89.0	-244	91	1
2.7	2015_May_05_1302	s	s	5	2	SIC	8	ABS	0	1	02VD 02VO 02VC 02MD 02MO 02MC 02RD 10RO	0	1	4.47798800468	None	None	None	None	1
2.7	2015_May_05_1302	s	s	5	2	SIC	9	RC	2	1	02VD 09VO 02VC 02MD 02MO 02MC 02RD 02RO	1	0	7.60362696648	-3.0	-180.0	-1	-182	1
2.7	2015_May_05_1302	s	s	5	2	SIC	10	RC	0	1	02VD 02VO 02VC 02MD 02MO 02MC 02RD 09RO	1	0	1.4658639431	-260.0	119.0	-256	115	1
2.7	2015_May_05_1302	s	s	5	2	SIC	11	RC	2	2	09VD 02VO 02VC 02MD 02MO 02MC 02RD 02RO	1	0	2.04502105713	482.0	346.0	481	341	1
2.7	2015_May_05_1302	s	s	5	2	SIC	12	ABS	2	1	02VD 10VO 02VC 02MD 02MO 02MC 02RD 02RO	0	1	3.40799593925	None	None	None	None	1
2.7	2015_May_05_1302	s	s	5	2	SIC	13	ABS	1	2	02VD 02VO 02VC 10MD 02MO 02MC 02RD 02RO	0	1	2.90679001808	None	None	None	None	1
2.7	2015_May_05_1302	s	s	5	2	SIC	14	ABS	0	2	02VD 02VO 02VC 02MD 02MO 02MC 10RD 02RO	0	1	2.9953110218	None	None	None	None	1
2.7	2015_May_05_1302	s	s	5	2	SIC	15	RC	0	2	02VD 02VO 02VC 02MD 02MO 02MC 09RD 02RO	1	0	2.0540971756	191.0	-400.0	191	-406	1
2.7	2015_May_05_1302	s	s	5	2	SIC	16	RC	1	2	02VD 02VO 02VC 09MD 02MO 02MC 02RD 02RO	1	0	3.3342590332	153.0	238.0	162	237	1
2.7	2015_May_05_1302	s	s	5	2	SIC	17	RC	1	1	02VD 02VO 02VC 02MD 09MO 02MC 02RD 02RO	1	0	3.17739892006	179.0	-30.0	177	-36	1
2.7	2015_May_05_1302	s	s	5	2	SIC	18	ABS	2	1	02VD 10VO 02VC 02MD 02MO 02MC 02RD 02RO	0	1	2.87143087387	None	None	None	None	1
2.7	2015_May_05_1302	s	s	5	2	SIC	19	ABS	1	1	02VD 02VO 02VC 02MD 10MO 02MC 02RD 02RO	0	1	3.81292819977	None	None	None	None	1
2.7	2015_May_05_1302	s	s	5	2	SIC	20	RC	0	2	02VD 02VO 02VC 02MD 02MO 02MC 09RD 02RO	1	0	1.73904109001	-115.0	302.0	-115	302	1
2.7	2015_May_05_1302	s	s	5	2	SIC	21	ABS	2	0	02VD 02VO 10VC 02MD 02MO 02MC 02RD 02RO	0	1	2.74791002274	None	None	None	None	1
2.7	2015_May_05_1302	s	s	5	2	SIC	22	RC	2	1	02VD 09VO 02VC 02MD 02MO 02MC 02RD 02RO	1	0	2.3614897728	309.0	-68.0	306	-68	1
2.7	2015_May_05_1302	s	s	5	2	SIC	23	ABS	1	0	02VD 02VO 02VC 02MD 02MO 10MC 02RD 02RO	0	1	3.39877605438	None	None	None	None	1
2.7	2015_May_05_1302	s	s	5	2	SIC	24	ABS	1	2	02VD 02VO 02VC 10MD 02MO 02MC 02RD 02RO	0	1	3.3489689827	None	None	None	None	1
2.7	2015_May_05_1302	s	s	5	2	SIC	25	RC	0	1	02VD 02VO 02VC 02MD 02MO 02MC 02RD 09RO	1	0	2.63097906113	-212.0	-364.0	-214	-367	1
2.7	2015_May_05_1302	s	s	5	2	SIC	26	ABS	2	2	10VD 02VO 02VC 02MD 02MO 02MC 02RD 02RO	0	1	2.37226581573	None	None	None	None	1
2.7	2015_May_05_1302	s	s	5	2	SIC	27	ABS	0	1	02VD 02VO 02VC 02MD 02MO 02MC 02RD 10RO	0	1	5.38665294647	None	None	None	None	1
2.7	2015_May_05_1302	s	s	5	2	SIC	28	RC	1	2	02VD 02VO 02VC 09MD 02MO 02MC 02RD 02RO	1	0	1.67965388298	-453.0	347.0	-456	349	1
2.7	2015_May_05_1302	s	s	5	2	SIC	29	RC	2	2	09VD 02VO 02VC 02MD 02MO 02MC 02RD 02RO	1	0	1.89440584183	-339.0	-104.0	-336	-105	1
2.7	2015_May_05_1302	s	s	5	2	SIC	30	RC	1	0	02VD 02VO 02VC 02MD 02MO 09MC 02RD 02RO	0	1	3.39618206024	494.0	-85.0	None	None	0
2.7	2015_May_05_1302	s	s	5	2	SIC	31	ABS	0	2	02VD 02VO 02VC 02MD 02MO 02MC 10RD 02RO	0	1	3.33872199059	None	None	None	None	1
2.7	2015_May_05_1302	s	s	5	2	SIC	32	RC	2	0	02VD 02VO 09VC 02MD 02MO 02MC 02RD 02RO	1	0	2.14675307274	-420.0	-284.0	-422	-284	1
2.7	2015_May_05_1302	s	s	5	2	SIC	33	RC	2	0	02VD 02VO 09VC 02MD 02MO 02MC 02RD 02RO	1	0	2.02943515778	502.0	-274.0	509	-274	1
2.7	2015_May_05_1302	s	s	5	2	SIC	34	RC	1	0	02VD 02VO 02VC 02MD 02MO 09MC 02RD 02RO	1	0	5.044039011	-260.0	8.0	-259	4	1
2.7	2015_May_05_1302	s	s	5	2	SIC	35	ABS	2	2	10VD 02VO 02VC 02MD 02MO 02MC 02RD 02RO	0	1	1.98306488991	None	None	None	None	1
2.7	2015_May_05_1302	s	s	5	2	SIC	36	ABS	0	1	02VD 02VO 02VC 02MD 02MO 02MC 02RD 10RO	0	1	4.8582777977	None	None	None	None	1
2.7	2015_May_05_1302	s	s	5	2	SIC	37	RC	2	2	09VD 02VO 02VC 02MD 02MO 02MC 02RD 02RO	1	0	2.27806687355	84.0	-369.0	89	-378	1
2.7	2015_May_05_1302	s	s	5	2	SIC	38	ABS	2	0	02VD 02VO 10VC 02MD 02MO 02MC 02RD 02RO	0	1	5.20193719864	None	None	None	None	1
2.7	2015_May_05_1302	s	s	5	2	SIC	39	RC	2	1	02VD 09VO 02VC 02MD 02MO 02MC 02RD 02RO	1	0	2.05594611168	111.0	-42.0	115	-43	1
2.7	2015_May_05_1302	s	s	5	2	SIC	40	ABS	1	2	02VD 02VO 02VC 10MD 02MO 02MC 02RD 02RO	0	1	2.56258392334	None	None	None	None	1
2.7	2015_May_05_1302	s	s	5	2	SIC	41	RC	1	1	02VD 02VO 02VC 02MD 09MO 02MC 02RD 02RO	1	0	1.40844082832	326.0	-344.0	323	-339	1
2.7	2015_May_05_1302	s	s	5	2	SIC	42	RC	0	1	02VD 02VO 02VC 02MD 02MO 02MC 02RD 09RO	0	1	3.4807498455	-91.0	156.0	None	None	0
2.7	2015_May_05_1302	s	s	5	2	SIC	43	RC	0	2	02VD 02VO 02VC 02MD 02MO 02MC 09RD 02RO	1	0	6.24710011482	-533.0	-281.0	-530	-285	1
2.7	2015_May_05_1302	s	s	5	2	SIC	44	ABS	1	0	02VD 02VO 02VC 02MD 02MO 10MC 02RD 02RO	0	1	4.0316400528	None	None	None	None	1
2.7	2015_May_05_1302	s	s	5	2	SIC	45	ABS	0	2	02VD 02VO 02VC 02MD 02MO 02MC 10RD 02RO	0	1	3.25389099121	None	None	None	None	1
2.7	2015_May_05_1302	s	s	5	2	SIC	46	RC	1	2	02VD 02VO 02VC 09MD 02MO 02MC 02RD 02RO	1	0	1.84173798561	288.0	341.0	284	334	1
2.7	2015_May_05_1302	s	s	5	2	SIC	47	ABS	2	1	02VD 10VO 02VC 02MD 02MO 02MC 02RD 02RO	0	1	3.18458604813	None	None	None	None	1
2.7	2015_May_05_1302	s	s	5	2	SIC	48	ABS	1	1	02VD 02VO 02VC 02MD 10MO 02MC 02RD 02RO	0	1	4.17793083191	None	None	None	None	1
2.7	2015_May_05_1302	s	s	5	2	SIC	49	ABS	0	1	02VD 02VO 02VC 02MD 02MO 02MC 02RD 10RO	0	1	4.90286898613	None	None	None	None	1
2.7	2015_May_05_1302	s	s	5	2	SIC	50	ABS	1	2	02VD 02VO 02VC 10MD 02MO 02MC 02RD 02RO	0	1	3.38355302811	None	None	None	None	1
2.7	2015_May_05_1302	s	s	5	2	SIC	51	RC	1	0	02VD 02VO 02VC 02MD 02MO 09MC 02RD 02RO	1	0	3.10049295425	-221.0	-222.0	-220	-222	1
2.7	2015_May_05_1302	s	s	5	2	SIC	52	RC	2	2	09VD 02VO 02VC 02MD 02MO 02MC 02RD 02RO	1	0	1.84773516655	-479.0	411.0	-480	405	1
2.7	2015_May_05_1302	s	s	5	2	SIC	53	ABS	2	0	02VD 02VO 10VC 02MD 02MO 02MC 02RD 02RO	0	1	3.13032507896	None	None	None	None	1
2.7	2015_May_05_1302	s	s	5	2	SIC	54	RC	1	1	02VD 02VO 02VC 02MD 09MO 02MC 02RD 02RO	1	0	3.1421661377	-378.0	-70.0	-376	-75	1
2.7	2015_May_05_1302	s	s	5	2	SIC	55	ABS	0	2	02VD 02VO 02VC 02MD 02MO 02MC 10RD 02RO	0	1	2.67117500305	None	None	None	None	1
2.7	2015_May_05_1302	s	s	5	2	SIC	56	RC	2	1	02VD 09VO 02VC 02MD 02MO 02MC 02RD 02RO	1	0	2.83179497719	-195.0	-304.0	-189	-309	1
2.7	2015_May_05_1302	s	s	5	2	SIC	57	ABS	2	2	10VD 02VO 02VC 02MD 02MO 02MC 02RD 02RO	0	1	1.9836499691	None	None	None	None	1
2.7	2015_May_05_1302	s	s	5	2	SIC	58	ABS	1	0	02VD 02VO 02VC 02MD 02MO 10MC 02RD 02RO	0	1	3.3893020153	None	None	None	None	1
2.7	2015_May_05_1302	s	s	5	2	SIC	59	RC	0	1	02VD 02VO 02VC 02MD 02MO 02MC 02RD 09RO	1	0	6.95363283157	-450.0	-50.0	-451	-46	1
2.7	2015_May_05_1302	s	s	5	2	SIC	60	ABS	2	1	02VD 10VO 02VC 02MD 02MO 02MC 02RD 02RO	0	1	2.76542592049	None	None	None	None	1
2.7	2015_May_05_1302	s	s	5	2	SIC	61	ABS	1	1	02VD 02VO 02VC 02MD 10MO 02MC 02RD 02RO	0	1	5.19017410278	None	None	None	None	1
2.7	2015_May_05_1302	s	s	5	2	SIC	62	RC	1	2	02VD 02VO 02VC 09MD 02MO 02MC 02RD 02RO	1	0	2.50657987595	18.0	-104.0	19	-105	1
2.7	2015_May_05_1302	s	s	5	2	SIC	63	RC	2	0	02VD 02VO 09VC 02MD 02MO 02MC 02RD 02RO	1	0	1.05659914017	31.0	132.0	36	128	1
2.7	2015_May_05_1302	s	s	5	2	SIC	64	RC	0	2	02VD 02VO 02VC 02MD 02MO 02MC 09RD 02RO	1	0	0.770498991013	50.0	129.0	51	129	1
2.7	2015_May_05_1302	s	s	5	2	SIC	65	RC	0	2	02VD 02VO 02VC 02MD 02MO 02MC 09RD 02RO	1	0	1.98363494873	278.0	233.0	283	231	1
2.7	2015_May_05_1302	s	s	5	2	SIC	66	ABS	2	2	10VD 02VO 02VC 02MD 02MO 02MC 02RD 02RO	0	1	2.28281998634	None	None	None	None	1
2.7	2015_May_05_1302	s	s	5	2	SIC	67	RC	1	2	02VD 02VO 02VC 09MD 02MO 02MC 02RD 02RO	1	0	1.76501584053	-437.0	216.0	-443	215	1
2.7	2015_May_05_1302	s	s	5	2	SIC	68	ABS	2	1	02VD 10VO 02VC 02MD 02MO 02MC 02RD 02RO	0	1	3.21022605896	None	None	None	None	1
2.7	2015_May_05_1302	s	s	5	2	SIC	69	ABS	1	0	02VD 02VO 02VC 02MD 02MO 10MC 02RD 02RO	0	1	7.24997901917	None	None	None	None	1
2.7	2015_May_05_1302	s	s	5	2	SIC	70	ABS	0	2	02VD 02VO 02VC 02MD 02MO 02MC 10RD 02RO	0	1	3.4780960083	None	None	None	None	1
2.7	2015_May_05_1302	s	s	5	2	SIC	71	RC	0	1	02VD 02VO 02VC 02MD 02MO 02MC 02RD 09RO	1	0	1.76489114761	178.0	64.0	178	67	1
2.7	2015_May_05_1302	s	s	5	2	SIC	72	RC	2	0	02VD 02VO 09VC 02MD 02MO 02MC 02RD 02RO	1	0	2.12553787231	-307.0	-5.0	-303	-5	1
2.7	2015_May_05_1302	s	s	5	2	SIC	73	RC	1	1	02VD 02VO 02VC 02MD 09MO 02MC 02RD 02RO	1	0	1.39418792725	481.0	9.0	481	8	1
2.7	2015_May_05_1302	s	s	5	2	SIC	74	ABS	1	1	02VD 02VO 02VC 02MD 10MO 02MC 02RD 02RO	0	1	3.64814305305	None	None	None	None	1
2.7	2015_May_05_1302	s	s	5	2	SIC	75	RC	1	0	02VD 02VO 02VC 02MD 02MO 09MC 02RD 02RO	1	0	1.37409496307	-387.0	292.0	-386	287	1
2.7	2015_May_05_1302	s	s	5	2	SIC	76	ABS	1	2	02VD 02VO 02VC 10MD 02MO 02MC 02RD 02RO	0	1	2.5362341404	None	None	None	None	1
2.7	2015_May_05_1302	s	s	5	2	SIC	77	ABS	0	1	02VD 02VO 02VC 02MD 02MO 02MC 02RD 10RO	0	1	5.61384391785	None	None	None	None	1
2.7	2015_May_05_1302	s	s	5	2	SIC	78	RC	2	1	02VD 09VO 02VC 02MD 02MO 02MC 02RD 02RO	1	0	2.27116918564	0.0	-167.0	3	-175	1
2.7	2015_May_05_1302	s	s	5	2	SIC	79	RC	2	2	09VD 02VO 02VC 02MD 02MO 02MC 02RD 02RO	1	0	1.91274499893	-533.0	103.0	-532	96	1
2.7	2015_May_05_1302	s	s	5	2	SIC	80	ABS	2	0	02VD 02VO 10VC 02MD 02MO 02MC 02RD 02RO	0	1	2.4123468399	None	None	None	None	1
2.7	2015_May_05_1302	s	s	5	2	SIC	81	ABS	2	1	02VD 10VO 02VC 02MD 02MO 02MC 02RD 02RO	0	1	2.16111516953	None	None	None	None	1
2.7	2015_May_05_1302	s	s	5	2	SIC	82	ABS	1	2	02VD 02VO 02VC 10MD 02MO 02MC 02RD 02RO	0	1	2.7483048439	None	None	None	None	1
2.7	2015_May_05_1302	s	s	5	2	SIC	83	RC	1	0	02VD 02VO 02VC 02MD 02MO 09MC 02RD 02RO	1	0	2.18872284889	156.0	-145.0	150	-141	1
2.7	2015_May_05_1302	s	s	5	2	SIC	84	RC	1	2	02VD 02VO 02VC 09MD 02MO 02MC 02RD 02RO	1	0	3.23284196854	501.0	-189.0	506	-191	1
2.7	2015_May_05_1302	s	s	5	2	SIC	85	RC	0	1	02VD 02VO 02VC 02MD 02MO 02MC 02RD 09RO	0	1	3.48007297516	304.0	-279.0	None	None	0
2.7	2015_May_05_1302	s	s	5	2	SIC	86	RC	2	2	09VD 02VO 02VC 02MD 02MO 02MC 02RD 02RO	1	0	2.76133799553	201.0	293.0	191	291	1
2.7	2015_May_05_1302	s	s	5	2	SIC	87	RC	0	2	02VD 02VO 02VC 02MD 02MO 02MC 09RD 02RO	1	0	5.34988284111	-372.0	-244.0	-371	-251	1
2.7	2015_May_05_1302	s	s	5	2	SIC	88	ABS	1	1	02VD 02VO 02VC 02MD 10MO 02MC 02RD 02RO	0	1	3.78987002373	None	None	None	None	1
2.7	2015_May_05_1302	s	s	5	2	SIC	89	ABS	0	1	02VD 02VO 02VC 02MD 02MO 02MC 02RD 10RO	0	1	5.54912900925	None	None	None	None	1
2.7	2015_May_05_1302	s	s	5	2	SIC	90	ABS	0	2	02VD 02VO 02VC 02MD 02MO 02MC 10RD 02RO	0	1	2.34747815132	None	None	None	None	1
2.7	2015_May_05_1302	s	s	5	2	SIC	91	ABS	1	0	02VD 02VO 02VC 02MD 02MO 10MC 02RD 02RO	0	1	6.90532898903	None	None	None	None	1
2.7	2015_May_05_1302	s	s	5	2	SIC	92	RC	2	1	02VD 09VO 02VC 02MD 02MO 02MC 02RD 02RO	1	0	2.40057492256	488.0	-63.0	482	-57	1
2.7	2015_May_05_1302	s	s	5	2	SIC	93	ABS	2	2	10VD 02VO 02VC 02MD 02MO 02MC 02RD 02RO	0	1	3.34905099869	None	None	None	None	1
2.7	2015_May_05_1302	s	s	5	2	SIC	94	RC	2	0	02VD 02VO 09VC 02MD 02MO 02MC 02RD 02RO	1	0	4.21959996223	38.0	-226.0	39	-226	1
2.7	2015_May_05_1302	s	s	5	2	SIC	95	RC	1	1	02VD 02VO 02VC 02MD 09MO 02MC 02RD 02RO	1	0	1.36477303505	-323.0	6.0	-316	6	1
2.7	2015_May_05_1302	s	s	5	2	SIC	96	ABS	2	0	02VD 02VO 10VC 02MD 02MO 02MC 02RD 02RO	0	1	2.60051202774	None	None	None	None	1
2.7	2015_May_05_1302	s	s	5	2	SIC	97	RC	0	1	02VD 02VO 02VC 02MD 02MO 02MC 02RD 09RO	0	1	5.34372210503	-212.0	-116.0	None	None	0
2.7	2015_May_05_1302	s	s	5	2	SIC	98	ABS	2	1	02VD 10VO 02VC 02MD 02MO 02MC 02RD 02RO	0	1	2.32527518272	None	None	None	None	1
2.7	2015_May_05_1302	s	s	5	2	SIC	99	ABS	1	1	02VD 02VO 02VC 02MD 10MO 02MC 02RD 02RO	0	1	4.42518687248	None	None	None	None	1
2.7	2015_May_05_1302	s	s	5	2	SIC	100	RC	2	2	09VD 02VO 02VC 02MD 02MO 02MC 02RD 02RO	1	0	1.39749598503	208.0	-185.0	208	-192	1
2.7	2015_May_05_1302	s	s	5	2	SIC	101	ABS	2	0	02VD 02VO 10VC 02MD 02MO 02MC 02RD 02RO	0	1	2.45447802544	None	None	None	None	1
2.7	2015_May_05_1302	s	s	5	2	SIC	102	ABS	1	2	02VD 02VO 02VC 10MD 02MO 02MC 02RD 02RO	0	1	2.03140497208	None	None	None	None	1
2.7	2015_May_05_1302	s	s	5	2	SIC	103	RC	1	0	02VD 02VO 02VC 02MD 02MO 09MC 02RD 02RO	1	0	1.97228693962	484.0	-411.0	489	-419	1
2.7	2015_May_05_1302	s	s	5	2	SIC	104	ABS	2	2	10VD 02VO 02VC 02MD 02MO 02MC 02RD 02RO	0	1	1.89207100868	None	None	None	None	1
2.7	2015_May_05_1302	s	s	5	2	SIC	105	RC	0	2	02VD 02VO 02VC 02MD 02MO 02MC 09RD 02RO	1	0	1.53334784508	-118.0	-356.0	-123	-360	1
2.7	2015_May_05_1302	s	s	5	2	SIC	106	RC	1	2	02VD 02VO 02VC 09MD 02MO 02MC 02RD 02RO	1	0	2.45935082436	538.0	136.0	545	138	1
2.7	2015_May_05_1302	s	s	5	2	SIC	107	RC	2	0	02VD 02VO 09VC 02MD 02MO 02MC 02RD 02RO	1	0	1.91795396805	-278.0	199.0	-281	192	1
2.7	2015_May_05_1302	s	s	5	2	SIC	108	ABS	0	2	02VD 02VO 02VC 02MD 02MO 02MC 10RD 02RO	0	1	2.35352706909	None	None	None	None	1
2.7	2015_May_05_1302	s	s	5	2	SIC	109	RC	1	1	02VD 02VO 02VC 02MD 09MO 02MC 02RD 02RO	1	0	2.14144086838	-319.0	289.0	-318	290	1
2.7	2015_May_05_1302	s	s	5	2	SIC	110	ABS	1	0	02VD 02VO 02VC 02MD 02MO 10MC 02RD 02RO	0	1	3.35117101669	None	None	None	None	1
2.7	2015_May_05_1302	s	s	5	2	SIC	111	RC	2	1	02VD 09VO 02VC 02MD 02MO 02MC 02RD 02RO	0	1	2.58885192871	-427.0	65.0	None	None	0
2.7	2015_May_05_1302	s	s	5	2	SIC	112	ABS	0	1	02VD 02VO 02VC 02MD 02MO 02MC 02RD 10RO	0	1	5.34008097649	None	None	None	None	1
2.7	2015_May_05_1302	s	s	5	2	SIC	113	ABS	0	1	02VD 02VO 02VC 02MD 02MO 02MC 02RD 10RO	0	1	6.66799592972	None	None	None	None	1
2.7	2015_May_05_1302	s	s	5	2	SIC	114	RC	1	2	02VD 02VO 02VC 09MD 02MO 02MC 02RD 02RO	1	0	1.47868704796	34.0	-208.0	41	-213	1
2.7	2015_May_05_1302	s	s	5	2	SIC	115	ABS	0	2	02VD 02VO 02VC 02MD 02MO 02MC 10RD 02RO	0	1	2.64796304703	None	None	None	None	1
2.7	2015_May_05_1302	s	s	5	2	SIC	116	ABS	1	0	02VD 02VO 02VC 02MD 02MO 10MC 02RD 02RO	0	1	4.66052699089	None	None	None	None	1
2.7	2015_May_05_1302	s	s	5	2	SIC	117	RC	0	1	02VD 02VO 02VC 02MD 02MO 02MC 02RD 09RO	1	0	1.51564002037	-126.0	323.0	-119	319	1
2.7	2015_May_05_1302	s	s	5	2	SIC	118	RC	1	0	02VD 02VO 02VC 02MD 02MO 09MC 02RD 02RO	1	0	2.03310513496	367.0	192.0	369	193	1
2.7	2015_May_05_1302	s	s	5	2	SIC	119	RC	0	2	02VD 02VO 02VC 02MD 02MO 02MC 09RD 02RO	1	0	3.22000694275	117.0	-70.0	122	-67	1
2.7	2015_May_05_1302	s	s	5	2	SIC	120	ABS	1	2	02VD 02VO 02VC 10MD 02MO 02MC 02RD 02RO	0	1	2.64544892311	None	None	None	None	1
2.7	2015_May_05_1302	s	s	5	2	SIC	121	ABS	1	1	02VD 02VO 02VC 02MD 10MO 02MC 02RD 02RO	0	1	3.50710296631	None	None	None	None	1
2.7	2015_May_05_1302	s	s	5	2	SIC	122	ABS	2	0	02VD 02VO 10VC 02MD 02MO 02MC 02RD 02RO	0	1	2.66599798203	None	None	None	None	1
2.7	2015_May_05_1302	s	s	5	2	SIC	123	RC	2	1	02VD 09VO 02VC 02MD 02MO 02MC 02RD 02RO	1	0	2.4425008297	-296.0	129.0	-293	129	1
2.7	2015_May_05_1302	s	s	5	2	SIC	124	RC	2	2	09VD 02VO 02VC 02MD 02MO 02MC 02RD 02RO	1	0	2.15347003937	-378.0	-221.0	-372	-219	1
2.7	2015_May_05_1302	s	s	5	2	SIC	125	ABS	2	1	02VD 10VO 02VC 02MD 02MO 02MC 02RD 02RO	0	1	2.53018498421	None	None	None	None	1
2.7	2015_May_05_1302	s	s	5	2	SIC	126	RC	2	0	02VD 02VO 09VC 02MD 02MO 02MC 02RD 02RO	1	0	1.43539214134	522.0	231.0	525	234	1
2.7	2015_May_05_1302	s	s	5	2	SIC	127	ABS	2	2	10VD 02VO 02VC 02MD 02MO 02MC 02RD 02RO	0	1	2.94949698448	None	None	None	None	1
2.7	2015_May_05_1302	s	s	5	2	SIC	128	RC	1	1	02VD 02VO 02VC 02MD 09MO 02MC 02RD 02RO	1	0	1.74143695831	-457.0	-356.0	-463	-351	1
2.7	2015_May_05_1302	s	s	5	2	SIC	129	ABS	1	2	02VD 02VO 02VC 10MD 02MO 02MC 02RD 02RO	0	1	2.51478481293	None	None	None	None	1
2.7	2015_May_05_1302	s	s	5	2	SIC	130	RC	1	0	02VD 02VO 02VC 02MD 02MO 09MC 02RD 02RO	1	0	2.04261398315	136.0	-269.0	144	-265	1
2.7	2015_May_05_1302	s	s	5	2	SIC	131	ABS	0	1	02VD 02VO 02VC 02MD 02MO 02MC 02RD 10RO	0	1	4.74296498299	None	None	None	None	1
2.7	2015_May_05_1302	s	s	5	2	SIC	132	RC	2	0	02VD 02VO 09VC 02MD 02MO 02MC 02RD 02RO	1	0	1.89127516747	-152.0	-372.0	-155	-370	1
2.7	2015_May_05_1302	s	s	5	2	SIC	133	ABS	2	1	02VD 10VO 02VC 02MD 02MO 02MC 02RD 02RO	0	1	2.89267992973	None	None	None	None	1
2.7	2015_May_05_1302	s	s	5	2	SIC	134	RC	2	2	09VD 02VO 02VC 02MD 02MO 02MC 02RD 02RO	1	0	1.92964506149	265.0	-256.0	264	-255	1
2.7	2015_May_05_1302	s	s	5	2	SIC	135	RC	1	2	02VD 02VO 02VC 09MD 02MO 02MC 02RD 02RO	1	0	1.11762595177	-370.0	65.0	-369	58	1
2.7	2015_May_05_1302	s	s	5	2	SIC	136	RC	1	1	02VD 02VO 02VC 02MD 09MO 02MC 02RD 02RO	1	0	1.49427700043	-259.0	-140.0	-257	-139	1
2.7	2015_May_05_1302	s	s	5	2	SIC	137	ABS	1	0	02VD 02VO 02VC 02MD 02MO 10MC 02RD 02RO	0	1	3.03360486031	None	None	None	None	1
2.7	2015_May_05_1302	s	s	5	2	SIC	138	ABS	0	2	02VD 02VO 02VC 02MD 02MO 02MC 10RD 02RO	0	1	2.70666193962	None	None	None	None	1
2.7	2015_May_05_1302	s	s	5	2	SIC	139	RC	0	2	02VD 02VO 02VC 02MD 02MO 02MC 09RD 02RO	1	0	0.929275989532	-72.0	56.0	-67	53	1
2.7	2015_May_05_1302	s	s	5	2	SIC	140	ABS	1	1	02VD 02VO 02VC 02MD 10MO 02MC 02RD 02RO	0	1	3.21259498596	None	None	None	None	1
2.7	2015_May_05_1302	s	s	5	2	SIC	141	ABS	2	2	10VD 02VO 02VC 02MD 02MO 02MC 02RD 02RO	0	1	2.36231303215	None	None	None	None	1
2.7	2015_May_05_1302	s	s	5	2	SIC	142	RC	2	1	02VD 09VO 02VC 02MD 02MO 02MC 02RD 02RO	1	0	2.39778900146	42.0	348.0	35	344	1
2.7	2015_May_05_1302	s	s	5	2	SIC	143	ABS	2	0	02VD 02VO 10VC 02MD 02MO 02MC 02RD 02RO	0	1	2.33520197868	None	None	None	None	1
2.7	2015_May_05_1302	s	s	5	2	SIC	144	RC	0	1	02VD 02VO 02VC 02MD 02MO 02MC 02RD 09RO	1	0	6.31798601151	403.0	-294.0	401	-293	1
2.7	2015_May_05_1302	s	s	5	2	SIC	145	ABS	1	2	02VD 02VO 02VC 10MD 02MO 02MC 02RD 02RO	0	1	3.43632912636	None	None	None	None	1
2.7	2015_May_05_1302	s	s	5	2	SIC	146	RC	1	0	02VD 02VO 02VC 02MD 02MO 09MC 02RD 02RO	1	0	1.33914399147	-426.0	-64.0	-429	-66	1
2.7	2015_May_05_1302	s	s	5	2	SIC	147	ABS	1	0	02VD 02VO 02VC 02MD 02MO 10MC 02RD 02RO	0	1	5.28440189362	None	None	None	None	1
2.7	2015_May_05_1302	s	s	5	2	SIC	148	RC	1	2	02VD 02VO 02VC 09MD 02MO 02MC 02RD 02RO	1	0	1.21177196503	15.0	117.0	13	119	1
2.7	2015_May_05_1302	s	s	5	2	SIC	149	ABS	2	2	10VD 02VO 02VC 02MD 02MO 02MC 02RD 02RO	0	1	2.26564502716	None	None	None	None	1
2.7	2015_May_05_1302	s	s	5	2	SIC	150	ABS	2	0	02VD 02VO 10VC 02MD 02MO 02MC 02RD 02RO	0	1	2.34161615372	None	None	None	None	1
2.7	2015_May_05_1302	s	s	5	2	SIC	151	ABS	0	1	02VD 02VO 02VC 02MD 02MO 02MC 02RD 10RO	0	1	2.6806538105	None	None	None	None	1
2.7	2015_May_05_1302	s	s	5	2	SIC	152	ABS	1	1	02VD 02VO 02VC 02MD 10MO 02MC 02RD 02RO	0	1	3.2199010849	None	None	None	None	1
2.7	2015_May_05_1302	s	s	5	2	SIC	153	RC	2	0	02VD 02VO 09VC 02MD 02MO 02MC 02RD 02RO	1	0	1.67079901695	-447.0	-15.0	-454	-20	1
2.7	2015_May_05_1302	s	s	5	2	SIC	154	ABS	0	2	02VD 02VO 02VC 02MD 02MO 02MC 10RD 02RO	0	1	2.26613783836	None	None	None	None	1
2.7	2015_May_05_1302	s	s	5	2	SIC	155	RC	0	2	02VD 02VO 02VC 02MD 02MO 02MC 09RD 02RO	1	0	2.15904593468	377.0	269.0	376	275	1
2.7	2015_May_05_1302	s	s	5	2	SIC	156	RC	0	1	02VD 02VO 02VC 02MD 02MO 02MC 02RD 09RO	1	0	2.64488387108	267.0	94.0	274	97	1
2.7	2015_May_05_1302	s	s	5	2	SIC	157	RC	2	1	02VD 09VO 02VC 02MD 02MO 02MC 02RD 02RO	1	0	1.69414305687	-488.0	119.0	-494	117	1
2.7	2015_May_05_1302	s	s	5	2	SIC	158	RC	2	2	09VD 02VO 02VC 02MD 02MO 02MC 02RD 02RO	1	0	2.76545214653	-339.0	-402.0	-333	-399	1
2.7	2015_May_05_1302	s	s	5	2	SIC	159	RC	1	1	02VD 02VO 02VC 02MD 09MO 02MC 02RD 02RO	0	1	2.106372118	519.0	107.0	None	None	0
2.7	2015_May_05_1302	s	s	5	2	SIC	160	ABS	2	1	02VD 10VO 02VC 02MD 02MO 02MC 02RD 02RO	0	1	2.56542301178	None	None	None	None	1
2.7	2015_May_05_1302	s	s	5	2	SIC	161	RC	1	0	02VD 02VO 02VC 02MD 02MO 09MC 02RD 02RO	1	0	2.47127914429	387.0	-347.0	391	-352	1
2.7	2015_May_05_1302	s	s	5	2	SIC	162	ABS	2	2	10VD 02VO 02VC 02MD 02MO 02MC 02RD 02RO	0	1	2.2678771019	None	None	None	None	1
2.7	2015_May_05_1302	s	s	5	2	SIC	163	ABS	1	0	02VD 02VO 02VC 02MD 02MO 10MC 02RD 02RO	0	1	2.54856300354	None	None	None	None	1
2.7	2015_May_05_1302	s	s	5	2	SIC	164	ABS	1	2	02VD 02VO 02VC 10MD 02MO 02MC 02RD 02RO	0	1	1.99505901337	None	None	None	None	1
2.7	2015_May_05_1302	s	s	5	2	SIC	165	RC	0	2	02VD 02VO 02VC 02MD 02MO 02MC 09RD 02RO	1	0	2.06734514236	328.0	191.0	336	190	1
2.7	2015_May_05_1302	s	s	5	2	SIC	166	ABS	1	1	02VD 02VO 02VC 02MD 10MO 02MC 02RD 02RO	0	1	3.42448306084	None	None	None	None	1
2.7	2015_May_05_1302	s	s	5	2	SIC	167	RC	1	1	02VD 02VO 02VC 02MD 09MO 02MC 02RD 02RO	1	0	1.67872095108	-140.0	-98.0	-139	-96	1
2.7	2015_May_05_1302	s	s	5	2	SIC	168	ABS	0	1	02VD 02VO 02VC 02MD 02MO 02MC 02RD 10RO	0	1	4.58988595009	None	None	None	None	1
2.7	2015_May_05_1302	s	s	5	2	SIC	169	RC	2	0	02VD 02VO 09VC 02MD 02MO 02MC 02RD 02RO	1	0	4.75468587875	-318.0	93.0	-315	93	1
2.7	2015_May_05_1302	s	s	5	2	SIC	170	RC	1	2	02VD 02VO 02VC 09MD 02MO 02MC 02RD 02RO	1	0	1.05424499512	-102.0	121.0	-107	122	1
2.7	2015_May_05_1302	s	s	5	2	SIC	171	RC	2	2	09VD 02VO 02VC 02MD 02MO 02MC 02RD 02RO	1	0	1.97691893578	366.0	-111.0	365	-112	1
2.7	2015_May_05_1302	s	s	5	2	SIC	172	RC	0	1	02VD 02VO 02VC 02MD 02MO 02MC 02RD 09RO	1	0	2.31579995155	232.0	266.0	240	269	1
2.7	2015_May_05_1302	s	s	5	2	SIC	173	ABS	0	2	02VD 02VO 02VC 02MD 02MO 02MC 10RD 02RO	0	1	3.12547302246	None	None	None	None	1
2.7	2015_May_05_1302	s	s	5	2	SIC	174	ABS	2	0	02VD 02VO 10VC 02MD 02MO 02MC 02RD 02RO	0	1	2.60597610474	None	None	None	None	1
2.7	2015_May_05_1302	s	s	5	2	SIC	175	ABS	2	1	02VD 10VO 02VC 02MD 02MO 02MC 02RD 02RO	0	1	4.09550499916	None	None	None	None	1
2.7	2015_May_05_1302	s	s	5	2	SIC	176	RC	2	1	02VD 09VO 02VC 02MD 02MO 02MC 02RD 02RO	1	0	2.23304200172	-153.0	-236.0	-148	-234	1
2.7	2015_May_05_1302	s	s	5	2	SIC	177	RC	2	2	09VD 02VO 02VC 02MD 02MO 02MC 02RD 02RO	1	0	1.01546001434	55.0	88.0	56	85	1
2.7	2015_May_05_1302	s	s	5	2	SIC	178	ABS	2	1	02VD 10VO 02VC 02MD 02MO 02MC 02RD 02RO	0	1	2.52999401093	None	None	None	None	1
2.7	2015_May_05_1302	s	s	5	2	SIC	179	RC	1	0	02VD 02VO 02VC 02MD 02MO 09MC 02RD 02RO	1	0	2.4689438343	279.0	-326.0	285	-324	1
2.7	2015_May_05_1302	s	s	5	2	SIC	180	RC	0	1	02VD 02VO 02VC 02MD 02MO 02MC 02RD 09RO	1	0	2.31401014328	-526.0	-401.0	-523	-398	1
2.7	2015_May_05_1302	s	s	5	2	SIC	181	RC	1	2	02VD 02VO 02VC 09MD 02MO 02MC 02RD 02RO	1	0	0.976217985153	10.0	-11.0	11	-1	1
2.7	2015_May_05_1302	s	s	5	2	SIC	182	RC	2	0	02VD 02VO 09VC 02MD 02MO 02MC 02RD 02RO	1	0	0.796797037125	-123.0	355.0	-130	351	1
2.7	2015_May_05_1302	s	s	5	2	SIC	183	ABS	2	2	10VD 02VO 02VC 02MD 02MO 02MC 02RD 02RO	0	1	2.41231298447	None	None	None	None	1
2.7	2015_May_05_1302	s	s	5	2	SIC	184	RC	2	1	02VD 09VO 02VC 02MD 02MO 02MC 02RD 02RO	1	0	1.50601410866	-362.0	267.0	-361	260	1
2.7	2015_May_05_1302	s	s	5	2	SIC	185	ABS	0	1	02VD 02VO 02VC 02MD 02MO 02MC 02RD 10RO	0	1	3.83090186119	None	None	None	None	1
2.7	2015_May_05_1302	s	s	5	2	SIC	186	ABS	1	2	02VD 02VO 02VC 10MD 02MO 02MC 02RD 02RO	0	1	2.85673809052	None	None	None	None	1
2.7	2015_May_05_1302	s	s	5	2	SIC	187	ABS	0	2	02VD 02VO 02VC 02MD 02MO 02MC 10RD 02RO	0	1	2.71826314926	None	None	None	None	1
2.7	2015_May_05_1302	s	s	5	2	SIC	188	ABS	1	1	02VD 02VO 02VC 02MD 10MO 02MC 02RD 02RO	0	1	3.49206900597	None	None	None	None	1
2.7	2015_May_05_1302	s	s	5	2	SIC	189	ABS	2	0	02VD 02VO 10VC 02MD 02MO 02MC 02RD 02RO	0	1	3.02199482918	None	None	None	None	1
2.7	2015_May_05_1302	s	s	5	2	SIC	190	ABS	1	0	02VD 02VO 02VC 02MD 02MO 10MC 02RD 02RO	0	1	7.4220058918	None	None	None	None	1
2.7	2015_May_05_1302	s	s	5	2	SIC	191	RC	0	2	02VD 02VO 02VC 02MD 02MO 02MC 09RD 02RO	0	1	2.28962802887	299.0	-168.0	None	None	0
2.7	2015_May_05_1302	s	s	5	2	SIC	192	RC	1	1	02VD 02VO 02VC 02MD 09MO 02MC 02RD 02RO	1	0	3.72833800316	136.0	-337.0	139	-338	1
2.7	2015_May_05_1302	s	s	5	2	SIC	193	ABS	2	0	02VD 02VO 10VC 02MD 02MO 02MC 02RD 02RO	0	1	3.04506802559	None	None	None	None	1
2.7	2015_May_05_1302	s	s	5	2	SIC	194	ABS	2	1	02VD 10VO 02VC 02MD 02MO 02MC 02RD 02RO	0	1	3.35073304176	None	None	None	None	1
2.7	2015_May_05_1302	s	s	5	2	SIC	195	ABS	0	1	02VD 02VO 02VC 02MD 02MO 02MC 02RD 10RO	0	1	4.47884607315	None	None	None	None	1
2.7	2015_May_05_1302	s	s	5	2	SIC	196	RC	1	1	02VD 02VO 02VC 02MD 09MO 02MC 02RD 02RO	1	0	1.81197214127	-3.0	52.0	2	56	1
2.7	2015_May_05_1302	s	s	5	2	SIC	197	RC	2	2	09VD 02VO 02VC 02MD 02MO 02MC 02RD 02RO	1	0	4.69031691551	-241.0	-142.0	-238	-147	1
2.7	2015_May_05_1302	s	s	5	2	SIC	198	ABS	0	2	02VD 02VO 02VC 02MD 02MO 02MC 10RD 02RO	0	1	2.7338411808	None	None	None	None	1
2.7	2015_May_05_1302	s	s	5	2	SIC	199	ABS	1	1	02VD 02VO 02VC 02MD 10MO 02MC 02RD 02RO	0	1	2.85966610909	None	None	None	None	1
2.7	2015_May_05_1302	s	s	5	2	SIC	200	RC	0	2	02VD 02VO 02VC 02MD 02MO 02MC 09RD 02RO	1	0	3.17386698723	359.0	-295.0	366	-297	1
2.7	2015_May_05_1302	s	s	5	2	SIC	201	RC	1	0	02VD 02VO 02VC 02MD 02MO 09MC 02RD 02RO	1	0	1.35836791992	318.0	-185.0	318	-181	1
2.7	2015_May_05_1302	s	s	5	2	SIC	202	RC	2	0	02VD 02VO 09VC 02MD 02MO 02MC 02RD 02RO	1	0	3.26663303375	479.0	350.0	483	352	1
2.7	2015_May_05_1302	s	s	5	2	SIC	203	RC	2	1	02VD 09VO 02VC 02MD 02MO 02MC 02RD 02RO	1	0	2.70428705215	62.0	-384.0	53	-382	1
2.7	2015_May_05_1302	s	s	5	2	SIC	204	ABS	1	0	02VD 02VO 02VC 02MD 02MO 10MC 02RD 02RO	0	1	5.82078504562	None	None	None	None	1
2.7	2015_May_05_1302	s	s	5	2	SIC	205	RC	0	1	02VD 02VO 02VC 02MD 02MO 02MC 02RD 09RO	1	0	2.92812085152	266.0	-24.0	262	-25	1
2.7	2015_May_05_1302	s	s	5	2	SIC	206	ABS	1	2	02VD 02VO 02VC 10MD 02MO 02MC 02RD 02RO	0	1	2.43122911453	None	None	None	None	1
2.7	2015_May_05_1302	s	s	5	2	SIC	207	ABS	2	2	10VD 02VO 02VC 02MD 02MO 02MC 02RD 02RO	0	1	3.02435994148	None	None	None	None	1
2.7	2015_May_05_1302	s	s	5	2	SIC	208	RC	1	2	02VD 02VO 02VC 09MD 02MO 02MC 02RD 02RO	1	0	1.74128198624	459.0	152.0	454	150	1
2.7	2015_May_05_1302	s	s	5	2	SIC	209	RC	2	0	02VD 02VO 09VC 02MD 02MO 02MC 02RD 02RO	1	0	1.52588510513	198.0	371.0	201	367	1
2.7	2015_May_05_1302	s	s	5	2	SIC	210	RC	2	1	02VD 09VO 02VC 02MD 02MO 02MC 02RD 02RO	1	0	1.00890278816	123.0	57.0	114	57	1
2.7	2015_May_05_1302	s	s	5	2	SIC	211	RC	2	2	09VD 02VO 02VC 02MD 02MO 02MC 02RD 02RO	1	0	2.47965693474	507.0	-42.0	506	-38	1
2.7	2015_May_05_1302	s	s	5	2	SIC	212	RC	0	2	02VD 02VO 02VC 02MD 02MO 02MC 09RD 02RO	1	0	1.2587659359	-204.0	180.0	-208	176	1
2.7	2015_May_05_1302	s	s	5	2	SIC	213	ABS	0	2	02VD 02VO 02VC 02MD 02MO 02MC 10RD 02RO	0	1	3.20708703995	None	None	None	None	1
2.7	2015_May_05_1302	s	s	5	2	SIC	214	ABS	2	0	02VD 02VO 10VC 02MD 02MO 02MC 02RD 02RO	0	1	2.45708107948	None	None	None	None	1
2.7	2015_May_05_1302	s	s	5	2	SIC	215	RC	1	2	02VD 02VO 02VC 09MD 02MO 02MC 02RD 02RO	1	0	1.34943389893	306.0	22.0	306	21	1
2.7	2015_May_05_1302	s	s	5	2	SIC	216	ABS	2	2	10VD 02VO 02VC 02MD 02MO 02MC 02RD 02RO	0	1	2.22390794754	None	None	None	None	1
2.7	2015_May_05_1302	s	s	5	2	SIC	217	ABS	1	0	02VD 02VO 02VC 02MD 02MO 10MC 02RD 02RO	0	1	4.88104701042	None	None	None	None	1
2.7	2015_May_05_1302	s	s	5	2	SIC	218	RC	1	1	02VD 02VO 02VC 02MD 09MO 02MC 02RD 02RO	1	0	1.30092787743	-97.0	261.0	-93	257	1
2.7	2015_May_05_1302	s	s	5	2	SIC	219	RC	1	0	02VD 02VO 02VC 02MD 02MO 09MC 02RD 02RO	1	0	2.18448090553	-530.0	-191.0	-537	-196	1
2.7	2015_May_05_1302	s	s	5	2	SIC	220	ABS	1	2	02VD 02VO 02VC 10MD 02MO 02MC 02RD 02RO	0	1	3.2079000473	None	None	None	None	1
2.7	2015_May_05_1302	s	s	5	2	SIC	221	RC	0	1	02VD 02VO 02VC 02MD 02MO 02MC 02RD 09RO	1	0	2.82437705994	-311.0	4.0	-307	3	1
2.7	2015_May_05_1302	s	s	5	2	SIC	222	ABS	0	1	02VD 02VO 02VC 02MD 02MO 02MC 02RD 10RO	0	1	8.36825704575	None	None	None	None	1
2.7	2015_May_05_1302	s	s	5	2	SIC	223	ABS	2	1	02VD 10VO 02VC 02MD 02MO 02MC 02RD 02RO	0	1	2.60815691948	None	None	None	None	1
2.7	2015_May_05_1302	s	s	5	2	SIC	224	ABS	1	1	02VD 02VO 02VC 02MD 10MO 02MC 02RD 02RO	0	1	2.80702185631	None	None	None	None	1
2.7	2015_May_05_1302	s	s	5	2	SIC	225	RC	2	0	02VD 02VO 09VC 02MD 02MO 02MC 02RD 02RO	1	0	3.03607010841	249.0	-336.0	246	-339	1
2.7	2015_May_05_1302	s	s	5	2	SIC	226	ABS	1	0	02VD 02VO 02VC 02MD 02MO 10MC 02RD 02RO	0	1	3.16566896439	None	None	None	None	1
2.7	2015_May_05_1302	s	s	5	2	SIC	227	RC	2	2	09VD 02VO 02VC 02MD 02MO 02MC 02RD 02RO	1	0	2.16017794609	430.0	-165.0	436	-163	1
2.7	2015_May_05_1302	s	s	5	2	SIC	228	RC	0	2	02VD 02VO 02VC 02MD 02MO 02MC 09RD 02RO	1	0	2.10135388374	-414.0	-365.0	-415	-367	1
2.7	2015_May_05_1302	s	s	5	2	SIC	229	ABS	0	1	02VD 02VO 02VC 02MD 02MO 02MC 02RD 10RO	0	1	4.82549190521	None	None	None	None	1
2.7	2015_May_05_1302	s	s	5	2	SIC	230	ABS	1	1	02VD 02VO 02VC 02MD 10MO 02MC 02RD 02RO	0	1	2.57714009285	None	None	None	None	1
2.7	2015_May_05_1302	s	s	5	2	SIC	231	ABS	2	0	02VD 02VO 10VC 02MD 02MO 02MC 02RD 02RO	0	1	2.64543199539	None	None	None	None	1
2.7	2015_May_05_1302	s	s	5	2	SIC	232	ABS	0	2	02VD 02VO 02VC 02MD 02MO 02MC 10RD 02RO	0	1	2.32996797562	None	None	None	None	1
2.7	2015_May_05_1302	s	s	5	2	SIC	233	RC	1	0	02VD 02VO 02VC 02MD 02MO 09MC 02RD 02RO	1	0	3.11884999275	538.0	-146.0	533	-147	1
2.7	2015_May_05_1302	s	s	5	2	SIC	234	ABS	2	2	10VD 02VO 02VC 02MD 02MO 02MC 02RD 02RO	0	1	2.53646707535	None	None	None	None	1
2.7	2015_May_05_1302	s	s	5	2	SIC	235	RC	1	2	02VD 02VO 02VC 09MD 02MO 02MC 02RD 02RO	1	0	1.57667398453	155.0	-292.0	155	-301	1
2.7	2015_May_05_1302	s	s	5	2	SIC	236	ABS	2	1	02VD 10VO 02VC 02MD 02MO 02MC 02RD 02RO	0	1	3.69004583359	None	None	None	None	1
2.7	2015_May_05_1302	s	s	5	2	SIC	237	RC	1	1	02VD 02VO 02VC 02MD 09MO 02MC 02RD 02RO	1	0	1.80029201508	99.0	-367.0	100	-362	1
2.7	2015_May_05_1302	s	s	5	2	SIC	238	RC	2	1	02VD 09VO 02VC 02MD 02MO 02MC 02RD 02RO	1	0	1.44733500481	-251.0	395.0	-256	393	1
2.7	2015_May_05_1302	s	s	5	2	SIC	239	ABS	1	2	02VD 02VO 02VC 10MD 02MO 02MC 02RD 02RO	0	1	4.00746393204	None	None	None	None	1
2.7	2015_May_05_1302	s	s	5	2	SIC	240	RC	0	1	02VD 02VO 02VC 02MD 02MO 02MC 02RD 09RO	1	0	1.01175403595	-148.0	370.0	-147	375	1
2.7	2015_May_05_1302	s	s	5	2	SIC	241	ABS	1	0	02VD 02VO 02VC 02MD 02MO 10MC 02RD 02RO	0	1	2.89497900009	None	None	None	None	1
2.7	2015_May_05_1302	s	s	5	2	SIC	242	RC	1	0	02VD 02VO 02VC 02MD 02MO 09MC 02RD 02RO	1	0	2.63607597351	-137.0	-59.0	-138	-55	1
2.7	2015_May_05_1302	s	s	5	2	SIC	243	ABS	0	2	02VD 02VO 02VC 02MD 02MO 02MC 10RD 02RO	0	1	2.31304502487	None	None	None	None	1
2.7	2015_May_05_1302	s	s	5	2	SIC	244	RC	2	2	09VD 02VO 02VC 02MD 02MO 02MC 02RD 02RO	0	1	2.86936807632	467.0	-215.0	None	None	0
2.7	2015_May_05_1302	s	s	5	2	SIC	245	RC	2	1	02VD 09VO 02VC 02MD 02MO 02MC 02RD 02RO	1	0	1.7412519455	-81.0	311.0	-82	311	1
2.7	2015_May_05_1302	s	s	5	2	SIC	246	ABS	1	2	02VD 02VO 02VC 10MD 02MO 02MC 02RD 02RO	0	1	2.55388498306	None	None	None	None	1
2.7	2015_May_05_1302	s	s	5	2	SIC	247	ABS	0	1	02VD 02VO 02VC 02MD 02MO 02MC 02RD 10RO	0	1	4.38552689552	None	None	None	None	1
2.7	2015_May_05_1302	s	s	5	2	SIC	248	RC	2	0	02VD 02VO 09VC 02MD 02MO 02MC 02RD 02RO	1	0	2.90672492981	491.0	56.0	492	53	1
2.7	2015_May_05_1302	s	s	5	2	SIC	249	RC	0	2	02VD 02VO 02VC 02MD 02MO 02MC 09RD 02RO	1	0	2.62176179886	447.0	-230.0	446	-228	1
2.7	2015_May_05_1302	s	s	5	2	SIC	250	ABS	2	2	10VD 02VO 02VC 02MD 02MO 02MC 02RD 02RO	0	1	2.06535410881	None	None	None	None	1
2.7	2015_May_05_1302	s	s	5	2	SIC	251	RC	1	1	02VD 02VO 02VC 02MD 09MO 02MC 02RD 02RO	1	0	2.60693717003	-340.0	-86.0	-344	-89	1
2.7	2015_May_05_1302	s	s	5	2	SIC	252	ABS	2	1	02VD 10VO 02VC 02MD 02MO 02MC 02RD 02RO	0	1	2.15819406509	None	None	None	None	1
2.7	2015_May_05_1302	s	s	5	2	SIC	253	ABS	2	0	02VD 02VO 10VC 02MD 02MO 02MC 02RD 02RO	0	1	3.45561099052	None	None	None	None	1
2.7	2015_May_05_1302	s	s	5	2	SIC	254	ABS	1	1	02VD 02VO 02VC 02MD 10MO 02MC 02RD 02RO	0	1	4.2603468895	None	None	None	None	1
2.7	2015_May_05_1302	s	s	5	2	SIC	255	RC	1	2	02VD 02VO 02VC 09MD 02MO 02MC 02RD 02RO	1	0	2.37464404106	258.0	-404.0	259	-412	1
2.7	2015_May_05_1302	s	s	5	2	SIC	256	RC	0	1	02VD 02VO 02VC 02MD 02MO 02MC 02RD 09RO	1	0	2.47792983055	346.0	-4.0	344	-19	1
2.7	2015_May_05_1302	s	s	5	2	SIC	257	RC	1	2	02VD 02VO 02VC 09MD 02MO 02MC 02RD 02RO	1	0	3.74243307114	-224.0	141.0	-229	142	1
2.7	2015_May_05_1302	s	s	5	2	SIC	258	RC	0	2	02VD 02VO 02VC 02MD 02MO 02MC 09RD 02RO	1	0	1.57671785355	343.0	208.0	347	204	1
2.7	2015_May_05_1302	s	s	5	2	SIC	259	ABS	0	1	02VD 02VO 02VC 02MD 02MO 02MC 02RD 10RO	0	1	6.17565703392	None	None	None	None	1
2.7	2015_May_05_1302	s	s	5	2	SIC	260	RC	2	0	02VD 02VO 09VC 02MD 02MO 02MC 02RD 02RO	1	0	2.83634400368	290.0	285.0	295	283	1
2.7	2015_May_05_1302	s	s	5	2	SIC	261	ABS	2	2	10VD 02VO 02VC 02MD 02MO 02MC 02RD 02RO	0	1	2.73019599915	None	None	None	None	1
2.7	2015_May_05_1302	s	s	5	2	SIC	262	RC	1	0	02VD 02VO 02VC 02MD 02MO 09MC 02RD 02RO	1	0	4.19860601425	-62.0	-168.0	-60	-162	1
2.7	2015_May_05_1302	s	s	5	2	SIC	263	ABS	1	0	02VD 02VO 02VC 02MD 02MO 10MC 02RD 02RO	0	1	6.24497389793	None	None	None	None	1
2.7	2015_May_05_1302	s	s	5	2	SIC	264	RC	2	2	09VD 02VO 02VC 02MD 02MO 02MC 02RD 02RO	1	0	1.97191905975	-345.0	-137.0	-344	-131	1
2.7	2015_May_05_1302	s	s	5	2	SIC	265	RC	0	1	02VD 02VO 02VC 02MD 02MO 02MC 02RD 09RO	1	0	3.78950691223	-447.0	-243.0	-449	-244	1
2.7	2015_May_05_1302	s	s	5	2	SIC	266	RC	1	1	02VD 02VO 02VC 02MD 09MO 02MC 02RD 02RO	1	0	4.09224104881	-535.0	-259.0	-532	-262	1
2.7	2015_May_05_1302	s	s	5	2	SIC	267	ABS	2	1	02VD 10VO 02VC 02MD 02MO 02MC 02RD 02RO	0	1	3.4442949295	None	None	None	None	1
2.7	2015_May_05_1302	s	s	5	2	SIC	268	ABS	1	2	02VD 02VO 02VC 10MD 02MO 02MC 02RD 02RO	0	1	2.57396411896	None	None	None	None	1
2.7	2015_May_05_1302	s	s	5	2	SIC	269	ABS	0	2	02VD 02VO 02VC 02MD 02MO 02MC 10RD 02RO	0	1	4.18462300301	None	None	None	None	1
2.7	2015_May_05_1302	s	s	5	2	SIC	270	ABS	2	0	02VD 02VO 10VC 02MD 02MO 02MC 02RD 02RO	0	1	3.74922394753	None	None	None	None	1
2.7	2015_May_05_1302	s	s	5	2	SIC	271	ABS	1	1	02VD 02VO 02VC 02MD 10MO 02MC 02RD 02RO	0	1	4.40787696838	None	None	None	None	1
2.7	2015_May_05_1302	s	s	5	2	SIC	272	RC	2	1	02VD 09VO 02VC 02MD 02MO 02MC 02RD 02RO	0	1	2.52517819405	310.0	-179.0	None	None	0
2.7	2015_May_05_1302	s	s	5	2	SIC	273	ABS	0	1	02VD 02VO 02VC 02MD 02MO 02MC 02RD 10RO	0	1	4.87285399437	None	None	None	None	1
2.7	2015_May_05_1302	s	s	5	2	SIC	274	ABS	1	2	02VD 02VO 02VC 10MD 02MO 02MC 02RD 02RO	0	1	4.15066194534	None	None	None	None	1
2.7	2015_May_05_1302	s	s	5	2	SIC	275	ABS	1	1	02VD 02VO 02VC 02MD 10MO 02MC 02RD 02RO	0	1	5.20200014114	None	None	None	None	1
2.7	2015_May_05_1302	s	s	5	2	SIC	276	ABS	2	0	02VD 02VO 10VC 02MD 02MO 02MC 02RD 02RO	0	1	4.63742303848	None	None	None	None	1
2.7	2015_May_05_1302	s	s	5	2	SIC	277	ABS	2	1	02VD 10VO 02VC 02MD 02MO 02MC 02RD 02RO	0	1	4.3778860569	None	None	None	None	1
2.7	2015_May_05_1302	s	s	5	2	SIC	278	RC	2	2	09VD 02VO 02VC 02MD 02MO 02MC 02RD 02RO	1	0	2.41231203079	-9.0	394.0	-14	393	1
2.7	2015_May_05_1302	s	s	5	2	SIC	279	ABS	2	2	10VD 02VO 02VC 02MD 02MO 02MC 02RD 02RO	0	1	2.88046097755	None	None	None	None	1
2.7	2015_May_05_1302	s	s	5	2	SIC	280	ABS	1	0	02VD 02VO 02VC 02MD 02MO 10MC 02RD 02RO	0	1	5.02921819687	None	None	None	None	1
2.7	2015_May_05_1302	s	s	5	2	SIC	281	RC	0	1	02VD 02VO 02VC 02MD 02MO 02MC 02RD 09RO	1	0	3.30193209648	443.0	-213.0	451	-214	1
2.7	2015_May_05_1302	s	s	5	2	SIC	282	ABS	0	2	02VD 02VO 02VC 02MD 02MO 02MC 10RD 02RO	0	1	2.1469810009	None	None	None	None	1
2.7	2015_May_05_1302	s	s	5	2	SIC	283	RC	1	2	02VD 02VO 02VC 09MD 02MO 02MC 02RD 02RO	1	0	1.92172789574	438.0	103.0	439	101	1
2.7	2015_May_05_1302	s	s	5	2	SIC	284	RC	2	1	02VD 09VO 02VC 02MD 02MO 02MC 02RD 02RO	1	0	2.57718491554	116.0	311.0	111	313	1
2.7	2015_May_05_1302	s	s	5	2	SIC	285	RC	1	1	02VD 02VO 02VC 02MD 09MO 02MC 02RD 02RO	1	0	2.31582999229	253.0	17.0	247	21	1
2.7	2015_May_05_1302	s	s	5	2	SIC	286	RC	0	2	02VD 02VO 02VC 02MD 02MO 02MC 09RD 02RO	1	0	2.0421500206	19.0	-306.0	22	-297	1
2.7	2015_May_05_1302	s	s	5	2	SIC	287	RC	2	0	02VD 02VO 09VC 02MD 02MO 02MC 02RD 02RO	1	0	1.4589869976	197.0	-36.0	202	-33	1
2.7	2015_May_05_1302	s	s	5	2	SIC	288	RC	1	0	02VD 02VO 02VC 02MD 02MO 09MC 02RD 02RO	1	0	2.57513785362	468.0	3.0	460	6	1
2.7	2015_May_05_1302	s	s	5	2	SIC	289	ABS	1	0	02VD 02VO 02VC 02MD 02MO 10MC 02RD 02RO	0	1	3.94044208527	None	None	None	None	1
2.7	2015_May_05_1302	s	s	5	2	SIC	290	RC	0	2	02VD 02VO 02VC 02MD 02MO 02MC 09RD 02RO	1	0	2.08295178413	23.0	234.0	19	232	1
2.7	2015_May_05_1302	s	s	5	2	SIC	291	RC	2	0	02VD 02VO 09VC 02MD 02MO 02MC 02RD 02RO	1	0	2.25927400589	-361.0	-190.0	-364	-189	1
2.7	2015_May_05_1302	s	s	5	2	SIC	292	ABS	0	1	02VD 02VO 02VC 02MD 02MO 02MC 02RD 10RO	0	1	3.11858892441	None	None	None	None	1
2.7	2015_May_05_1302	s	s	5	2	SIC	293	RC	1	0	02VD 02VO 02VC 02MD 02MO 09MC 02RD 02RO	1	0	2.0540831089	103.0	-363.0	96	-360	1
2.7	2015_May_05_1302	s	s	5	2	SIC	294	ABS	1	1	02VD 02VO 02VC 02MD 10MO 02MC 02RD 02RO	0	1	2.46315908432	None	None	None	None	1
2.7	2015_May_05_1302	s	s	5	2	SIC	295	ABS	0	2	02VD 02VO 02VC 02MD 02MO 02MC 10RD 02RO	0	1	2.52523708344	None	None	None	None	1
2.7	2015_May_05_1302	s	s	5	2	SIC	296	ABS	2	1	02VD 10VO 02VC 02MD 02MO 02MC 02RD 02RO	0	1	2.18864703178	None	None	None	None	1
2.7	2015_May_05_1302	s	s	5	2	SIC	297	RC	0	1	02VD 02VO 02VC 02MD 02MO 02MC 02RD 09RO	1	0	2.94855690002	-338.0	-96.0	-329	-91	1
2.7	2015_May_05_1302	s	s	5	2	SIC	298	RC	1	1	02VD 02VO 02VC 02MD 09MO 02MC 02RD 02RO	1	0	1.57647895813	-398.0	-374.0	-395	-377	1
2.7	2015_May_05_1302	s	s	5	2	SIC	299	ABS	1	2	02VD 02VO 02VC 10MD 02MO 02MC 02RD 02RO	0	1	2.47841119766	None	None	None	None	1
2.7	2015_May_05_1302	s	s	5	2	SIC	300	RC	1	2	02VD 02VO 02VC 09MD 02MO 02MC 02RD 02RO	1	0	1.79549407959	-258.0	-184.0	-260	-184	1
2.7	2015_May_05_1302	s	s	5	2	SIC	301	RC	2	2	09VD 02VO 02VC 02MD 02MO 02MC 02RD 02RO	1	0	1.84260487556	-344.0	132.0	-342	137	1
2.7	2015_May_05_1302	s	s	5	2	SIC	302	ABS	2	0	02VD 02VO 10VC 02MD 02MO 02MC 02RD 02RO	0	1	3.03614592552	None	None	None	None	1
2.7	2015_May_05_1302	s	s	5	2	SIC	303	RC	2	1	02VD 09VO 02VC 02MD 02MO 02MC 02RD 02RO	1	0	1.95862913132	289.0	159.0	285	159	1
2.7	2015_May_05_1302	s	s	5	2	SIC	304	ABS	2	2	10VD 02VO 02VC 02MD 02MO 02MC 02RD 02RO	0	1	2.35343289375	None	None	None	None	1
2.7	2015_May_05_1302	s	s	5	2	SIC	305	RC	2	1	02VD 09VO 02VC 02MD 02MO 02MC 02RD 02RO	1	0	1.85418486595	-514.0	-155.0	-518	-158	1
2.7	2015_May_05_1302	s	s	5	2	SIC	306	RC	0	2	02VD 02VO 02VC 02MD 02MO 02MC 09RD 02RO	1	0	1.9532430172	404.0	-118.0	405	-120	1
2.7	2015_May_05_1302	s	s	5	2	SIC	307	RC	2	2	09VD 02VO 02VC 02MD 02MO 02MC 02RD 02RO	0	1	2.26868700981	440.0	330.0	None	None	0
2.7	2015_May_05_1302	s	s	5	2	SIC	308	RC	2	0	02VD 02VO 09VC 02MD 02MO 02MC 02RD 02RO	1	0	2.62419509888	282.0	375.0	278	380	1
2.7	2015_May_05_1302	s	s	5	2	SIC	309	ABS	1	0	02VD 02VO 02VC 02MD 02MO 10MC 02RD 02RO	0	1	3.67163705826	None	None	None	None	1
2.7	2015_May_05_1302	s	s	5	2	SIC	310	ABS	2	2	10VD 02VO 02VC 02MD 02MO 02MC 02RD 02RO	0	1	2.13684010506	None	None	None	None	1
2.7	2015_May_05_1302	s	s	5	2	SIC	311	ABS	1	2	02VD 02VO 02VC 10MD 02MO 02MC 02RD 02RO	0	1	2.29027581215	None	None	None	None	1
2.7	2015_May_05_1302	s	s	5	2	SIC	312	ABS	2	1	02VD 10VO 02VC 02MD 02MO 02MC 02RD 02RO	0	1	3.23147392273	None	None	None	None	1
2.7	2015_May_05_1302	s	s	5	2	SIC	313	RC	1	2	02VD 02VO 02VC 09MD 02MO 02MC 02RD 02RO	0	1	2.9160630703	-377.0	368.0	None	None	0
2.7	2015_May_05_1302	s	s	5	2	SIC	314	RC	0	1	02VD 02VO 02VC 02MD 02MO 02MC 02RD 09RO	1	0	2.91364002228	410.0	176.0	408	174	1
2.7	2015_May_05_1302	s	s	5	2	SIC	315	ABS	2	0	02VD 02VO 10VC 02MD 02MO 02MC 02RD 02RO	0	1	2.83240294456	None	None	None	None	1
2.7	2015_May_05_1302	s	s	5	2	SIC	316	RC	1	1	02VD 02VO 02VC 02MD 09MO 02MC 02RD 02RO	1	0	5.36345386505	-424.0	85.0	-432	83	1
2.7	2015_May_05_1302	s	s	5	2	SIC	317	RC	1	0	02VD 02VO 02VC 02MD 02MO 09MC 02RD 02RO	1	0	2.69211292267	-444.0	262.0	-443	264	1
2.7	2015_May_05_1302	s	s	5	2	SIC	318	ABS	0	2	02VD 02VO 02VC 02MD 02MO 02MC 10RD 02RO	0	1	3.8248269558	None	None	None	None	1
2.7	2015_May_05_1302	s	s	5	2	SIC	319	ABS	0	1	02VD 02VO 02VC 02MD 02MO 02MC 02RD 10RO	0	1	4.40820813179	None	None	None	None	1
2.7	2015_May_05_1302	s	s	5	2	SIC	320	ABS	1	1	02VD 02VO 02VC 02MD 10MO 02MC 02RD 02RO	0	1	3.68356800079	None	None	None	None	1
2.7	2015_May_05_1302	s	s	5	2	SIC	321	ABS	1	1	02VD 02VO 02VC 02MD 10MO 02MC 02RD 02RO	0	1	3.70465707779	None	None	None	None	1
2.7	2015_May_05_1302	s	s	5	2	SIC	322	RC	1	1	02VD 02VO 02VC 02MD 09MO 02MC 02RD 02RO	1	0	4.72618603706	-386.0	395.0	-390	390	1
2.7	2015_May_05_1302	s	s	5	2	SIC	323	ABS	2	1	02VD 10VO 02VC 02MD 02MO 02MC 02RD 02RO	0	1	3.10401177406	None	None	None	None	1
2.7	2015_May_05_1302	s	s	5	2	SIC	324	RC	2	0	02VD 02VO 09VC 02MD 02MO 02MC 02RD 02RO	1	0	3.31087899208	-492.0	-67.0	-493	-64	1
2.7	2015_May_05_1302	s	s	5	2	SIC	325	RC	2	2	09VD 02VO 02VC 02MD 02MO 02MC 02RD 02RO	1	0	1.75040006638	306.0	-72.0	314	-69	1
2.7	2015_May_05_1302	s	s	5	2	SIC	326	RC	0	2	02VD 02VO 02VC 02MD 02MO 02MC 09RD 02RO	1	0	1.12399601936	-527.0	-165.0	-525	-168	1
2.7	2015_May_05_1302	s	s	5	2	SIC	327	RC	1	2	02VD 02VO 02VC 09MD 02MO 02MC 02RD 02RO	1	0	2.50648188591	124.0	-5.0	129	-2	1
2.7	2015_May_05_1302	s	s	5	2	SIC	328	ABS	2	2	10VD 02VO 02VC 02MD 02MO 02MC 02RD 02RO	0	1	2.75039982796	None	None	None	None	1
2.7	2015_May_05_1302	s	s	5	2	SIC	329	ABS	1	0	02VD 02VO 02VC 02MD 02MO 10MC 02RD 02RO	0	1	3.66540813446	None	None	None	None	1
2.7	2015_May_05_1302	s	s	5	2	SIC	330	ABS	0	2	02VD 02VO 02VC 02MD 02MO 02MC 10RD 02RO	0	1	3.09508991241	None	None	None	None	1
2.7	2015_May_05_1302	s	s	5	2	SIC	331	ABS	1	2	02VD 02VO 02VC 10MD 02MO 02MC 02RD 02RO	0	1	2.30642485619	None	None	None	None	1
2.7	2015_May_05_1302	s	s	5	2	SIC	332	RC	0	1	02VD 02VO 02VC 02MD 02MO 02MC 02RD 09RO	0	1	4.85737609863	75.0	-139.0	None	None	0
2.7	2015_May_05_1302	s	s	5	2	SIC	333	ABS	2	0	02VD 02VO 10VC 02MD 02MO 02MC 02RD 02RO	0	1	2.45944619179	None	None	None	None	1
2.7	2015_May_05_1302	s	s	5	2	SIC	334	RC	2	1	02VD 09VO 02VC 02MD 02MO 02MC 02RD 02RO	1	0	1.79550409317	116.0	-329.0	120	-329	1
2.7	2015_May_05_1302	s	s	5	2	SIC	335	ABS	0	1	02VD 02VO 02VC 02MD 02MO 02MC 02RD 10RO	0	1	4.51468396187	None	None	None	None	1
2.7	2015_May_05_1302	s	s	5	2	SIC	336	RC	1	0	02VD 02VO 02VC 02MD 02MO 09MC 02RD 02RO	1	0	2.10608386993	262.0	386.0	260	378	1
2.7	2015_May_05_1302	s	s	5	2	SIC	337	RC	0	1	02VD 02VO 02VC 02MD 02MO 02MC 02RD 09RO	1	0	2.09076094627	194.0	-411.0	193	-413	1
2.7	2015_May_05_1302	s	s	5	2	SIC	338	RC	2	1	02VD 09VO 02VC 02MD 02MO 02MC 02RD 02RO	1	0	1.38583707809	151.0	384.0	146	391	1
2.7	2015_May_05_1302	s	s	5	2	SIC	339	ABS	2	1	02VD 10VO 02VC 02MD 02MO 02MC 02RD 02RO	0	1	2.41265201569	None	None	None	None	1
2.7	2015_May_05_1302	s	s	5	2	SIC	340	ABS	0	2	02VD 02VO 02VC 02MD 02MO 02MC 10RD 02RO	0	1	2.25398302078	None	None	None	None	1
2.7	2015_May_05_1302	s	s	5	2	SIC	341	RC	2	2	09VD 02VO 02VC 02MD 02MO 02MC 02RD 02RO	1	0	1.95004701614	232.0	-383.0	230	-384	1
2.7	2015_May_05_1302	s	s	5	2	SIC	342	ABS	0	1	02VD 02VO 02VC 02MD 02MO 02MC 02RD 10RO	0	1	4.23672389984	None	None	None	None	1
2.7	2015_May_05_1302	s	s	5	2	SIC	343	ABS	2	2	10VD 02VO 02VC 02MD 02MO 02MC 02RD 02RO	0	1	3.25980687141	None	None	None	None	1
2.7	2015_May_05_1302	s	s	5	2	SIC	344	RC	1	0	02VD 02VO 02VC 02MD 02MO 09MC 02RD 02RO	1	0	3.32534694672	-325.0	-394.0	-320	-393	1
2.7	2015_May_05_1302	s	s	5	2	SIC	345	RC	1	2	02VD 02VO 02VC 09MD 02MO 02MC 02RD 02RO	1	0	2.25703787804	-23.0	-133.0	-18	-129	1
2.7	2015_May_05_1302	s	s	5	2	SIC	346	RC	0	2	02VD 02VO 02VC 02MD 02MO 02MC 09RD 02RO	1	0	3.10687589645	91.0	-75.0	98	-72	1
2.7	2015_May_05_1302	s	s	5	2	SIC	347	ABS	1	0	02VD 02VO 02VC 02MD 02MO 10MC 02RD 02RO	0	1	3.39914917946	None	None	None	None	1
2.7	2015_May_05_1302	s	s	5	2	SIC	348	ABS	1	1	02VD 02VO 02VC 02MD 10MO 02MC 02RD 02RO	0	1	3.06600284576	None	None	None	None	1
2.7	2015_May_05_1302	s	s	5	2	SIC	349	ABS	1	2	02VD 02VO 02VC 10MD 02MO 02MC 02RD 02RO	0	1	2.67692184448	None	None	None	None	1
2.7	2015_May_05_1302	s	s	5	2	SIC	350	RC	2	0	02VD 02VO 09VC 02MD 02MO 02MC 02RD 02RO	1	0	1.12539815903	205.0	97.0	203	95	1
2.7	2015_May_05_1302	s	s	5	2	SIC	351	ABS	2	0	02VD 02VO 10VC 02MD 02MO 02MC 02RD 02RO	0	1	2.0190410614	None	None	None	None	1
2.7	2015_May_05_1302	s	s	5	2	SIC	352	RC	1	1	02VD 02VO 02VC 02MD 09MO 02MC 02RD 02RO	1	0	2.12384819984	246.0	-273.0	249	-268	1
2.7	2015_May_05_1302	s	s	5	2	SIC	353	RC	0	2	02VD 02VO 02VC 02MD 02MO 02MC 09RD 02RO	0	1	2.50641298294	-338.0	201.0	None	None	0
2.7	2015_May_05_1302	s	s	5	2	SIC	354	RC	1	0	02VD 02VO 02VC 02MD 02MO 09MC 02RD 02RO	1	0	2.56929206848	-373.0	-370.0	-369	-374	1
2.7	2015_May_05_1302	s	s	5	2	SIC	355	RC	2	2	09VD 02VO 02VC 02MD 02MO 02MC 02RD 02RO	1	0	1.30030298233	-462.0	-327.0	-457	-329	1
2.7	2015_May_05_1302	s	s	5	2	SIC	356	RC	2	1	02VD 09VO 02VC 02MD 02MO 02MC 02RD 02RO	1	0	3.04796385765	102.0	23.0	107	20	1
2.7	2015_May_05_1302	s	s	5	2	SIC	357	ABS	1	1	02VD 02VO 02VC 02MD 10MO 02MC 02RD 02RO	0	1	5.09320306778	None	None	None	None	1
2.7	2015_May_05_1302	s	s	5	2	SIC	358	ABS	0	1	02VD 02VO 02VC 02MD 02MO 02MC 02RD 10RO	0	1	5.50566005707	None	None	None	None	1
2.7	2015_May_05_1302	s	s	5	2	SIC	359	ABS	2	0	02VD 02VO 10VC 02MD 02MO 02MC 02RD 02RO	0	1	2.1180639267	None	None	None	None	1
2.7	2015_May_05_1302	s	s	5	2	SIC	360	ABS	1	2	02VD 02VO 02VC 10MD 02MO 02MC 02RD 02RO	0	1	3.15374994278	None	None	None	None	1
2.7	2015_May_05_1302	s	s	5	2	SIC	361	ABS	2	1	02VD 10VO 02VC 02MD 02MO 02MC 02RD 02RO	0	1	2.87141680717	None	None	None	None	1
2.7	2015_May_05_1302	s	s	5	2	SIC	362	ABS	0	2	02VD 02VO 02VC 02MD 02MO 02MC 10RD 02RO	0	1	2.56594204903	None	None	None	None	1
2.7	2015_May_05_1302	s	s	5	2	SIC	363	RC	1	1	02VD 02VO 02VC 02MD 09MO 02MC 02RD 02RO	1	0	1.98859786987	-338.0	246.0	-344	245	1
2.7	2015_May_05_1302	s	s	5	2	SIC	364	ABS	2	2	10VD 02VO 02VC 02MD 02MO 02MC 02RD 02RO	0	1	2.38881802559	None	None	None	None	1
2.7	2015_May_05_1302	s	s	5	2	SIC	365	ABS	1	0	02VD 02VO 02VC 02MD 02MO 10MC 02RD 02RO	0	1	3.62464594841	None	None	None	None	1
2.7	2015_May_05_1302	s	s	5	2	SIC	366	RC	0	1	02VD 02VO 02VC 02MD 02MO 02MC 02RD 09RO	1	0	2.37221097946	-23.0	265.0	-31	267	1
2.7	2015_May_05_1302	s	s	5	2	SIC	367	RC	2	0	02VD 02VO 09VC 02MD 02MO 02MC 02RD 02RO	1	0	3.36263895035	437.0	-312.0	444	-318	1
2.7	2015_May_05_1302	s	s	5	2	SIC	368	RC	1	2	02VD 02VO 02VC 09MD 02MO 02MC 02RD 02RO	1	0	1.44718289375	-525.0	151.0	-525	158	1
2.7	2015_May_05_1302	s	s	5	2	SIC	369	ABS	1	0	02VD 02VO 02VC 02MD 02MO 10MC 02RD 02RO	0	1	7.52964496613	None	None	None	None	1
2.7	2015_May_05_1302	s	s	5	2	SIC	370	RC	1	1	02VD 02VO 02VC 02MD 09MO 02MC 02RD 02RO	1	0	1.33652305603	23.0	53.0	21	50	1
2.7	2015_May_05_1302	s	s	5	2	SIC	371	RC	1	2	02VD 02VO 02VC 09MD 02MO 02MC 02RD 02RO	1	0	2.43148303032	477.0	-397.0	480	-400	1
2.7	2015_May_05_1302	s	s	5	2	SIC	372	ABS	2	0	02VD 02VO 10VC 02MD 02MO 02MC 02RD 02RO	0	1	2.51833415031	None	None	None	None	1
2.7	2015_May_05_1302	s	s	5	2	SIC	373	RC	1	0	02VD 02VO 02VC 02MD 02MO 09MC 02RD 02RO	1	0	2.71578502655	134.0	230.0	132	225	1
2.7	2015_May_05_1302	s	s	5	2	SIC	374	RC	2	1	02VD 09VO 02VC 02MD 02MO 02MC 02RD 02RO	1	0	2.61628508568	-353.0	340.0	-353	333	1
2.7	2015_May_05_1302	s	s	5	2	SIC	375	ABS	0	1	02VD 02VO 02VC 02MD 02MO 02MC 02RD 10RO	0	1	5.70807695389	None	None	None	None	1
2.7	2015_May_05_1302	s	s	5	2	SIC	376	RC	2	2	09VD 02VO 02VC 02MD 02MO 02MC 02RD 02RO	0	1	2.54996800423	-324.0	-119.0	None	None	0
2.7	2015_May_05_1302	s	s	5	2	SIC	377	ABS	0	2	02VD 02VO 02VC 02MD 02MO 02MC 10RD 02RO	0	1	2.6678879261	None	None	None	None	1
2.7	2015_May_05_1302	s	s	5	2	SIC	378	ABS	1	1	02VD 02VO 02VC 02MD 10MO 02MC 02RD 02RO	0	1	2.67506694794	None	None	None	None	1
2.7	2015_May_05_1302	s	s	5	2	SIC	379	RC	0	1	02VD 02VO 02VC 02MD 02MO 02MC 02RD 09RO	1	0	3.92728495598	471.0	388.0	469	389	1
2.7	2015_May_05_1302	s	s	5	2	SIC	380	ABS	2	1	02VD 10VO 02VC 02MD 02MO 02MC 02RD 02RO	0	1	2.65382313728	None	None	None	None	1
2.7	2015_May_05_1302	s	s	5	2	SIC	381	RC	0	2	02VD 02VO 02VC 02MD 02MO 02MC 09RD 02RO	1	0	1.85672807693	442.0	-351.0	449	-349	1
2.7	2015_May_05_1302	s	s	5	2	SIC	382	RC	2	0	02VD 02VO 09VC 02MD 02MO 02MC 02RD 02RO	1	0	1.54764413834	-539.0	-404.0	-544	-404	1
2.7	2015_May_05_1302	s	s	5	2	SIC	383	ABS	2	2	10VD 02VO 02VC 02MD 02MO 02MC 02RD 02RO	0	1	2.35107898712	None	None	None	None	1
2.7	2015_May_05_1302	s	s	5	2	SIC	384	ABS	1	2	02VD 02VO 02VC 10MD 02MO 02MC 02RD 02RO	0	1	1.92969989777	None	None	None	None	1
2.7	2015_May_05_1302	s	s	5	2	SIC	385	ABS	2	0	02VD 02VO 10VC 02MD 02MO 02MC 02RD 02RO	0	1	3.483314991	None	None	None	None	1
2.7	2015_May_05_1302	s	s	5	2	SIC	386	ABS	2	2	10VD 02VO 02VC 02MD 02MO 02MC 02RD 02RO	0	1	2.68953514099	None	None	None	None	1
2.7	2015_May_05_1302	s	s	5	2	SIC	387	RC	1	2	02VD 02VO 02VC 09MD 02MO 02MC 02RD 02RO	1	0	1.60015487671	-67.0	291.0	-71	293	1
2.7	2015_May_05_1302	s	s	5	2	SIC	388	RC	1	1	02VD 02VO 02VC 02MD 09MO 02MC 02RD 02RO	1	0	5.39847302437	-290.0	-227.0	-293	-229	1
2.7	2015_May_05_1302	s	s	5	2	SIC	389	RC	2	2	09VD 02VO 02VC 02MD 02MO 02MC 02RD 02RO	1	0	3.36081290245	524.0	211.0	520	215	1
2.7	2015_May_05_1302	s	s	5	2	SIC	390	ABS	0	1	02VD 02VO 02VC 02MD 02MO 02MC 02RD 10RO	0	1	3.67879891396	None	None	None	None	1
2.7	2015_May_05_1302	s	s	5	2	SIC	391	RC	2	1	02VD 09VO 02VC 02MD 02MO 02MC 02RD 02RO	1	0	1.86478996277	-152.0	325.0	-145	327	1
2.7	2015_May_05_1302	s	s	5	2	SIC	392	RC	1	0	02VD 02VO 02VC 02MD 02MO 09MC 02RD 02RO	1	0	2.5773870945	-252.0	-37.0	-249	-38	1
2.7	2015_May_05_1302	s	s	5	2	SIC	393	RC	0	1	02VD 02VO 02VC 02MD 02MO 02MC 02RD 09RO	1	0	3.2595911026	139.0	-346.0	141	-353	1
2.7	2015_May_05_1302	s	s	5	2	SIC	394	ABS	2	1	02VD 10VO 02VC 02MD 02MO 02MC 02RD 02RO	0	1	3.34985685349	None	None	None	None	1
2.7	2015_May_05_1302	s	s	5	2	SIC	395	ABS	1	2	02VD 02VO 02VC 10MD 02MO 02MC 02RD 02RO	0	1	2.72622013092	None	None	None	None	1
2.7	2015_May_05_1302	s	s	5	2	SIC	396	ABS	1	0	02VD 02VO 02VC 02MD 02MO 10MC 02RD 02RO	0	1	4.33083105087	None	None	None	None	1
2.7	2015_May_05_1302	s	s	5	2	SIC	397	ABS	0	2	02VD 02VO 02VC 02MD 02MO 02MC 10RD 02RO	0	1	5.21361398697	None	None	None	None	1
2.7	2015_May_05_1302	s	s	5	2	SIC	398	RC	2	0	02VD 02VO 09VC 02MD 02MO 02MC 02RD 02RO	1	0	1.28239202499	-309.0	399.0	-310	404	1
2.7	2015_May_05_1302	s	s	5	2	SIC	399	ABS	1	1	02VD 02VO 02VC 02MD 10MO 02MC 02RD 02RO	0	1	4.42135882378	None	None	None	None	1
2.7	2015_May_05_1302	s	s	5	2	SIC	400	RC	0	2	02VD 02VO 02VC 02MD 02MO 02MC 09RD 02RO	1	0	2.38878488541	216.0	-173.0	215	-176	1
2.7	2015_May_05_1302	s	s	5	2	SIC	401	ABS	0	2	02VD 02VO 02VC 02MD 02MO 02MC 10RD 02RO	0	1	3.67834997177	None	None	None	None	1
2.7	2015_May_05_1302	s	s	5	2	SIC	402	RC	1	0	02VD 02VO 02VC 02MD 02MO 09MC 02RD 02RO	1	0	1.50215482712	-355.0	261.0	-353	261	1
2.7	2015_May_05_1302	s	s	5	2	SIC	403	RC	2	0	02VD 02VO 09VC 02MD 02MO 02MC 02RD 02RO	1	0	2.28930687904	-510.0	-38.0	-512	-40	1
2.7	2015_May_05_1302	s	s	5	2	SIC	404	ABS	1	2	02VD 02VO 02VC 10MD 02MO 02MC 02RD 02RO	0	1	2.6454179287	None	None	None	None	1
2.7	2015_May_05_1302	s	s	5	2	SIC	405	ABS	0	1	02VD 02VO 02VC 02MD 02MO 02MC 02RD 10RO	0	1	6.60977005959	None	None	None	None	1
2.7	2015_May_05_1302	s	s	5	2	SIC	406	ABS	2	2	10VD 02VO 02VC 02MD 02MO 02MC 02RD 02RO	0	1	3.24805498123	None	None	None	None	1
2.7	2015_May_05_1302	s	s	5	2	SIC	407	RC	0	2	02VD 02VO 02VC 02MD 02MO 02MC 09RD 02RO	1	0	1.68952894211	390.0	38.0	396	39	1
2.7	2015_May_05_1302	s	s	5	2	SIC	408	ABS	2	1	02VD 10VO 02VC 02MD 02MO 02MC 02RD 02RO	0	1	2.0512239933	None	None	None	None	1
2.7	2015_May_05_1302	s	s	5	2	SIC	409	ABS	1	1	02VD 02VO 02VC 02MD 10MO 02MC 02RD 02RO	0	1	4.4257581234	None	None	None	None	1
2.7	2015_May_05_1302	s	s	5	2	SIC	410	RC	1	1	02VD 02VO 02VC 02MD 09MO 02MC 02RD 02RO	1	0	0.764474868774	-43.0	74.0	-48	74	1
2.7	2015_May_05_1302	s	s	5	2	SIC	411	RC	2	2	09VD 02VO 02VC 02MD 02MO 02MC 02RD 02RO	1	0	0.89368391037	-53.0	276.0	-55	277	1
2.7	2015_May_05_1302	s	s	5	2	SIC	412	RC	1	2	02VD 02VO 02VC 09MD 02MO 02MC 02RD 02RO	1	0	1.38028478622	-213.0	-63.0	-211	-60	1
2.7	2015_May_05_1302	s	s	5	2	SIC	413	RC	2	1	02VD 09VO 02VC 02MD 02MO 02MC 02RD 02RO	1	0	1.20938181877	-374.0	-87.0	-375	-88	1
2.7	2015_May_05_1302	s	s	5	2	SIC	414	RC	0	1	02VD 02VO 02VC 02MD 02MO 02MC 02RD 09RO	1	0	1.09177303314	-180.0	90.0	-178	93	1
2.7	2015_May_05_1302	s	s	5	2	SIC	415	ABS	2	0	02VD 02VO 10VC 02MD 02MO 02MC 02RD 02RO	0	1	2.37127995491	None	None	None	None	1
2.7	2015_May_05_1302	s	s	5	2	SIC	416	ABS	1	0	02VD 02VO 02VC 02MD 02MO 10MC 02RD 02RO	0	1	4.88417387009	None	None	None	None	1
2.7	2015_May_05_1302	s	s	5	2	SIC	417	ABS	0	1	02VD 02VO 02VC 02MD 02MO 02MC 02RD 10RO	0	1	3.90723896027	None	None	None	None	1
2.7	2015_May_05_1302	s	s	5	2	SIC	418	ABS	1	0	02VD 02VO 02VC 02MD 02MO 10MC 02RD 02RO	0	1	4.80207395554	None	None	None	None	1
2.7	2015_May_05_1302	s	s	5	2	SIC	419	RC	0	2	02VD 02VO 02VC 02MD 02MO 02MC 09RD 02RO	1	0	3.21281003952	253.0	2.0	260	8	1
2.7	2015_May_05_1302	s	s	5	2	SIC	420	RC	1	2	02VD 02VO 02VC 09MD 02MO 02MC 02RD 02RO	0	1	3.93073415756	467.0	-152.0	None	None	0
2.7	2015_May_05_1302	s	s	5	2	SIC	421	RC	2	1	02VD 09VO 02VC 02MD 02MO 02MC 02RD 02RO	1	0	2.98662090302	-134.0	-270.0	-141	-268	1
2.7	2015_May_05_1302	s	s	5	2	SIC	422	ABS	0	2	02VD 02VO 02VC 02MD 02MO 02MC 10RD 02RO	0	1	3.04793095589	None	None	None	None	1
2.7	2015_May_05_1302	s	s	5	2	SIC	423	ABS	2	0	02VD 02VO 10VC 02MD 02MO 02MC 02RD 02RO	0	1	4.50324892998	None	None	None	None	1
2.7	2015_May_05_1302	s	s	5	2	SIC	424	RC	2	0	02VD 02VO 09VC 02MD 02MO 02MC 02RD 02RO	0	1	2.37463903427	-405.0	-189.0	None	None	0
2.7	2015_May_05_1302	s	s	5	2	SIC	425	RC	1	1	02VD 02VO 02VC 02MD 09MO 02MC 02RD 02RO	1	0	2.83612298965	310.0	35.0	321	38	1
2.7	2015_May_05_1302	s	s	5	2	SIC	426	ABS	2	2	10VD 02VO 02VC 02MD 02MO 02MC 02RD 02RO	0	1	11.1087598801	None	None	None	None	1
2.7	2015_May_05_1302	s	s	5	2	SIC	427	ABS	1	2	02VD 02VO 02VC 10MD 02MO 02MC 02RD 02RO	0	1	3.11340308189	None	None	None	None	1
2.7	2015_May_05_1302	s	s	5	2	SIC	428	RC	1	0	02VD 02VO 02VC 02MD 02MO 09MC 02RD 02RO	1	0	2.54184412956	288.0	-372.0	289	-372	1
2.7	2015_May_05_1302	s	s	5	2	SIC	429	RC	0	1	02VD 02VO 02VC 02MD 02MO 02MC 02RD 09RO	1	0	2.8809299469	456.0	209.0	459	207	1
2.7	2015_May_05_1302	s	s	5	2	SIC	430	RC	2	2	09VD 02VO 02VC 02MD 02MO 02MC 02RD 02RO	1	0	2.13926482201	-181.0	-365.0	-176	-362	1
2.7	2015_May_05_1302	s	s	5	2	SIC	431	ABS	2	1	02VD 10VO 02VC 02MD 02MO 02MC 02RD 02RO	0	1	1.93594098091	None	None	None	None	1
2.7	2015_May_05_1302	s	s	5	2	SIC	432	ABS	1	1	02VD 02VO 02VC 02MD 10MO 02MC 02RD 02RO	0	1	3.52607083321	None	None	None	None	1
2.7	2015_May_05_1302	s	s	5	2	SIC	433	ABS	0	1	02VD 02VO 02VC 02MD 02MO 02MC 02RD 10RO	0	1	4.56643986702	None	None	None	None	1
2.7	2015_May_05_1302	s	s	5	2	SIC	434	RC	1	2	02VD 02VO 02VC 09MD 02MO 02MC 02RD 02RO	1	0	2.7505698204	299.0	334.0	294	342	1
2.7	2015_May_05_1302	s	s	5	2	SIC	435	ABS	2	2	10VD 02VO 02VC 02MD 02MO 02MC 02RD 02RO	0	1	2.7275660038	None	None	None	None	1
2.7	2015_May_05_1302	s	s	5	2	SIC	436	RC	2	0	02VD 02VO 09VC 02MD 02MO 02MC 02RD 02RO	1	0	0.85853600502	-102.0	261.0	-107	259	1
2.7	2015_May_05_1302	s	s	5	2	SIC	437	ABS	2	1	02VD 10VO 02VC 02MD 02MO 02MC 02RD 02RO	0	1	2.12360501289	None	None	None	None	1
2.7	2015_May_05_1302	s	s	5	2	SIC	438	RC	0	1	02VD 02VO 02VC 02MD 02MO 02MC 02RD 09RO	1	0	2.73016405106	-42.0	-391.0	-52	-383	1
2.7	2015_May_05_1302	s	s	5	2	SIC	439	ABS	1	1	02VD 02VO 02VC 02MD 10MO 02MC 02RD 02RO	0	1	3.25176215172	None	None	None	None	1
2.7	2015_May_05_1302	s	s	5	2	SIC	440	ABS	2	0	02VD 02VO 10VC 02MD 02MO 02MC 02RD 02RO	0	1	2.50414705276	None	None	None	None	1
2.7	2015_May_05_1302	s	s	5	2	SIC	441	ABS	1	2	02VD 02VO 02VC 10MD 02MO 02MC 02RD 02RO	0	1	2.33960700035	None	None	None	None	1
2.7	2015_May_05_1302	s	s	5	2	SIC	442	RC	1	1	02VD 02VO 02VC 02MD 09MO 02MC 02RD 02RO	1	0	3.10680580139	479.0	-182.0	483	-185	1
2.7	2015_May_05_1302	s	s	5	2	SIC	443	ABS	0	2	02VD 02VO 02VC 02MD 02MO 02MC 10RD 02RO	0	1	2.68057107925	None	None	None	None	1
2.7	2015_May_05_1302	s	s	5	2	SIC	444	RC	1	0	02VD 02VO 02VC 02MD 02MO 09MC 02RD 02RO	1	0	1.5506310463	432.0	12.0	439	16	1
2.7	2015_May_05_1302	s	s	5	2	SIC	445	RC	2	2	09VD 02VO 02VC 02MD 02MO 02MC 02RD 02RO	1	0	2.53884506226	345.0	400.0	341	400	1
2.7	2015_May_05_1302	s	s	5	2	SIC	446	RC	0	2	02VD 02VO 02VC 02MD 02MO 02MC 09RD 02RO	1	0	2.11300110817	534.0	90.0	541	91	1
2.7	2015_May_05_1302	s	s	5	2	SIC	447	RC	2	1	02VD 09VO 02VC 02MD 02MO 02MC 02RD 02RO	1	0	1.54144597054	-61.0	-197.0	-67	-197	1
2.7	2015_May_05_1302	s	s	5	2	SIC	448	ABS	1	0	02VD 02VO 02VC 02MD 02MO 10MC 02RD 02RO	0	1	6.59128403664	None	None	None	None	1
2.7	2015_May_05_1302	s	s	5	2	SIC	449	ABS	0	1	02VD 02VO 02VC 02MD 02MO 02MC 02RD 10RO	0	1	4.76651501656	None	None	None	None	1
2.7	2015_May_05_1302	s	s	5	2	SIC	450	RC	2	0	02VD 02VO 09VC 02MD 02MO 02MC 02RD 02RO	1	0	3.18928289413	-289.0	-388.0	-286	-386	1
2.7	2015_May_05_1302	s	s	5	2	SIC	451	ABS	2	0	02VD 02VO 10VC 02MD 02MO 02MC 02RD 02RO	0	1	2.44747614861	None	None	None	None	1
2.7	2015_May_05_1302	s	s	5	2	SIC	452	RC	2	2	09VD 02VO 02VC 02MD 02MO 02MC 02RD 02RO	1	0	1.6557970047	376.0	-71.0	376	-65	1
2.7	2015_May_05_1302	s	s	5	2	SIC	453	RC	1	0	02VD 02VO 02VC 02MD 02MO 09MC 02RD 02RO	1	0	1.95327687263	-316.0	-147.0	-312	-150	1
2.7	2015_May_05_1302	s	s	5	2	SIC	454	ABS	2	1	02VD 10VO 02VC 02MD 02MO 02MC 02RD 02RO	0	1	2.65427207947	None	None	None	None	1
2.7	2015_May_05_1302	s	s	5	2	SIC	455	RC	1	1	02VD 02VO 02VC 02MD 09MO 02MC 02RD 02RO	1	0	1.09193301201	-470.0	376.0	-478	375	1
2.7	2015_May_05_1302	s	s	5	2	SIC	456	RC	0	2	02VD 02VO 02VC 02MD 02MO 02MC 09RD 02RO	1	0	2.78634595871	18.0	-20.0	22	-19	1
2.7	2015_May_05_1302	s	s	5	2	SIC	457	RC	1	2	02VD 02VO 02VC 09MD 02MO 02MC 02RD 02RO	1	0	1.23336005211	377.0	393.0	379	393	1
2.7	2015_May_05_1302	s	s	5	2	SIC	458	ABS	0	2	02VD 02VO 02VC 02MD 02MO 02MC 10RD 02RO	0	1	2.18915605545	None	None	None	None	1
2.7	2015_May_05_1302	s	s	5	2	SIC	459	ABS	1	2	02VD 02VO 02VC 10MD 02MO 02MC 02RD 02RO	0	1	2.47122001648	None	None	None	None	1
2.7	2015_May_05_1302	s	s	5	2	SIC	460	ABS	1	0	02VD 02VO 02VC 02MD 02MO 10MC 02RD 02RO	0	1	3.3186981678	None	None	None	None	1
2.7	2015_May_05_1302	s	s	5	2	SIC	461	RC	2	1	02VD 09VO 02VC 02MD 02MO 02MC 02RD 02RO	1	0	2.20946502686	309.0	398.0	310	397	1
2.7	2015_May_05_1302	s	s	5	2	SIC	462	RC	0	1	02VD 02VO 02VC 02MD 02MO 02MC 02RD 09RO	1	0	3.47174191475	427.0	372.0	433	372	1
2.7	2015_May_05_1302	s	s	5	2	SIC	463	ABS	2	2	10VD 02VO 02VC 02MD 02MO 02MC 02RD 02RO	0	1	3.1302728653	None	None	None	None	1
2.7	2015_May_05_1302	s	s	5	2	SIC	464	ABS	1	1	02VD 02VO 02VC 02MD 10MO 02MC 02RD 02RO	0	1	4.29556703568	None	None	None	None	1
2.7	2015_May_05_1302	s	s	5	2	SIC	465	RC	2	0	02VD 02VO 09VC 02MD 02MO 02MC 02RD 02RO	0	1	11.6288080215	78.0	90.0	None	None	0
2.7	2015_May_05_1302	s	s	5	2	SIC	466	RC	2	1	02VD 09VO 02VC 02MD 02MO 02MC 02RD 02RO	0	1	4.46031904221	-383.0	-228.0	None	None	0
2.7	2015_May_05_1302	s	s	5	2	SIC	467	ABS	1	1	02VD 02VO 02VC 02MD 10MO 02MC 02RD 02RO	0	1	3.40134501457	None	None	None	None	1
2.7	2015_May_05_1302	s	s	5	2	SIC	468	RC	2	2	09VD 02VO 02VC 02MD 02MO 02MC 02RD 02RO	1	0	6.05504202843	389.0	-72.0	389	-74	1
2.7	2015_May_05_1302	s	s	5	2	SIC	469	ABS	1	0	02VD 02VO 02VC 02MD 02MO 10MC 02RD 02RO	0	1	4.97187590599	None	None	None	None	1
2.7	2015_May_05_1302	s	s	5	2	SIC	470	ABS	2	0	02VD 02VO 10VC 02MD 02MO 02MC 02RD 02RO	0	1	2.17259693146	None	None	None	None	1
2.7	2015_May_05_1302	s	s	5	2	SIC	471	ABS	2	2	10VD 02VO 02VC 02MD 02MO 02MC 02RD 02RO	0	1	2.38924407959	None	None	None	None	1
2.7	2015_May_05_1302	s	s	5	2	SIC	472	RC	1	2	02VD 02VO 02VC 09MD 02MO 02MC 02RD 02RO	1	0	1.52696800232	-96.0	-332.0	-92	-340	1
2.7	2015_May_05_1302	s	s	5	2	SIC	473	ABS	2	1	02VD 10VO 02VC 02MD 02MO 02MC 02RD 02RO	0	1	2.05908107758	None	None	None	None	1
2.7	2015_May_05_1302	s	s	5	2	SIC	474	RC	1	1	02VD 02VO 02VC 02MD 09MO 02MC 02RD 02RO	1	0	2.12707781792	515.0	-3.0	510	-4	1
2.7	2015_May_05_1302	s	s	5	2	SIC	475	RC	0	1	02VD 02VO 02VC 02MD 02MO 02MC 02RD 09RO	1	0	3.16566896439	-144.0	116.0	-147	115	1
2.7	2015_May_05_1302	s	s	5	2	SIC	476	ABS	1	2	02VD 02VO 02VC 10MD 02MO 02MC 02RD 02RO	0	1	2.32646298409	None	None	None	None	1
2.7	2015_May_05_1302	s	s	5	2	SIC	477	ABS	0	2	02VD 02VO 02VC 02MD 02MO 02MC 10RD 02RO	0	1	2.14152693748	None	None	None	None	1
2.7	2015_May_05_1302	s	s	5	2	SIC	478	RC	1	0	02VD 02VO 02VC 02MD 02MO 09MC 02RD 02RO	1	0	1.71779489517	-447.0	48.0	-449	45	1
2.7	2015_May_05_1302	s	s	5	2	SIC	479	ABS	0	1	02VD 02VO 02VC 02MD 02MO 02MC 02RD 10RO	0	1	3.08975720406	None	None	None	None	1
2.7	2015_May_05_1302	s	s	5	2	SIC	480	RC	0	2	02VD 02VO 02VC 02MD 02MO 02MC 09RD 02RO	1	0	1.35288190842	275.0	-392.0	276	-392	1
