Version	Date	Stimuli	Method	Subject	Session	Condition	Trial	Target	Channel1	Channel2	Distractors	LMouseButton	RMouseButton	RT	TargetX	TargetY	ResponseX	ResponseY	Correct
2.7	2015_May_04_1353	s	s	5	1	Capacity	1	RC	0	2	15RD 08RO	1	0	2.03575086594	124.0	311.0	125	304	1
2.7	2015_May_04_1353	s	s	5	1	Capacity	2	ABS	0	2	16RD 08RO	0	1	3.84506416321	None	None	None	None	1
2.7	2015_May_04_1353	s	s	5	1	Capacity	3	RC	0	1	08RD 15RO	1	0	2.45926499367	80.0	-247.0	76	-242	1
2.7	2015_May_04_1353	s	s	5	1	Capacity	4	ABS	0	1	08RD 16RO	0	1	4.38987588882	None	None	None	None	1
2.7	2015_May_04_1353	s	s	5	1	Capacity	5	ABS	0	2	16RD 08RO	0	1	4.67234992981	None	None	None	None	1
2.7	2015_May_04_1353	s	s	5	1	Capacity	6	ABS	0	1	08RD 16RO	0	1	6.28219485283	None	None	None	None	1
2.7	2015_May_04_1353	s	s	5	1	Capacity	7	RC	0	1	08RD 15RO	1	0	2.51823711395	-252.0	-74.0	-248	-74	1
2.7	2015_May_04_1353	s	s	5	1	Capacity	8	RC	0	2	15RD 08RO	1	0	3.76027107239	246.0	-400.0	247	-410	1
2.7	2015_May_04_1353	s	s	5	1	Capacity	9	RC	0	1	08RD 15RO	1	0	4.26930999756	-56.0	333.0	-57	335	1
2.7	2015_May_04_1353	s	s	5	1	Capacity	10	ABS	0	2	16RD 08RO	0	1	3.86915421486	None	None	None	None	1
2.7	2015_May_04_1353	s	s	5	1	Capacity	11	ABS	0	1	08RD 16RO	0	1	7.2004737854	None	None	None	None	1
2.7	2015_May_04_1353	s	s	5	1	Capacity	12	RC	0	2	15RD 08RO	1	0	2.55363106728	-506.0	10.0	-506	13	1
2.7	2015_May_04_1353	s	s	5	1	Capacity	13	RC	0	2	15RD 08RO	1	0	1.95048499107	-333.0	-395.0	-329	-396	1
2.7	2015_May_04_1353	s	s	5	1	Capacity	14	RC	0	1	08RD 15RO	1	0	3.61830091476	-163.0	410.0	-166	415	1
2.7	2015_May_04_1353	s	s	5	1	Capacity	15	ABS	0	1	08RD 16RO	0	1	6.44578886032	None	None	None	None	1
2.7	2015_May_04_1353	s	s	5	1	Capacity	16	ABS	0	2	16RD 08RO	0	1	5.57872080803	None	None	None	None	1
2.7	2015_May_04_1353	s	s	5	1	Capacity	17	RC	0	2	15RD 08RO	1	0	1.80679893494	-513.0	-380.0	-511	-384	1
2.7	2015_May_04_1353	s	s	5	1	Capacity	18	ABS	0	2	16RD 08RO	0	1	3.412774086	None	None	None	None	1
2.7	2015_May_04_1353	s	s	5	1	Capacity	19	RC	0	1	08RD 15RO	1	0	3.75092887878	254.0	127.0	252	113	1
2.7	2015_May_04_1353	s	s	5	1	Capacity	20	ABS	0	1	08RD 16RO	0	1	6.00244808197	None	None	None	None	1
2.7	2015_May_04_1353	s	s	5	1	Capacity	21	ABS	0	2	16RD 08RO	0	1	4.18715596199	None	None	None	None	1
2.7	2015_May_04_1353	s	s	5	1	Capacity	22	RC	0	2	15RD 08RO	1	0	2.55338382721	452.0	114.0	460	112	1
2.7	2015_May_04_1353	s	s	5	1	Capacity	23	ABS	0	1	08RD 16RO	0	1	9.1724460125	None	None	None	None	1
2.7	2015_May_04_1353	s	s	5	1	Capacity	24	RC	0	1	08RD 15RO	1	0	4.82263112068	60.0	40.0	68	42	1
2.7	2015_May_04_1353	s	s	5	1	Capacity	25	RC	0	1	08RD 15RO	1	0	4.031042099	234.0	-367.0	237	-370	1
2.7	2015_May_04_1353	s	s	5	1	Capacity	26	RC	0	2	15RD 08RO	1	0	1.22078609467	193.0	-86.0	187	-81	1
2.7	2015_May_04_1353	s	s	5	1	Capacity	27	ABS	0	1	08RD 16RO	0	1	4.69301486015	None	None	None	None	1
2.7	2015_May_04_1353	s	s	5	1	Capacity	28	ABS	0	2	16RD 08RO	0	1	4.64875221252	None	None	None	None	1
2.7	2015_May_04_1353	s	s	5	1	Capacity	29	ABS	0	2	16RD 08RO	0	1	4.83747696877	None	None	None	None	1
2.7	2015_May_04_1353	s	s	5	1	Capacity	30	RC	0	1	08RD 15RO	1	0	1.16825509071	-140.0	159.0	-148	157	1
2.7	2015_May_04_1353	s	s	5	1	Capacity	31	ABS	0	1	08RD 16RO	0	1	9.43128108978	None	None	None	None	1
2.7	2015_May_04_1353	s	s	5	1	Capacity	32	RC	0	2	15RD 08RO	1	0	1.65327310562	-509.0	-101.0	-505	-100	1
2.7	2015_May_04_1353	s	s	5	1	Capacity	33	RC	0	1	08RD 15RO	0	1	5.3400118351	307.0	-55.0	None	None	0
2.7	2015_May_04_1353	s	s	5	1	Capacity	34	ABS	0	1	08RD 16RO	0	1	7.50319910049	None	None	None	None	1
2.7	2015_May_04_1353	s	s	5	1	Capacity	35	ABS	0	2	16RD 08RO	0	1	4.92444396019	None	None	None	None	1
2.7	2015_May_04_1353	s	s	5	1	Capacity	36	RC	0	2	15RD 08RO	1	0	2.18855905533	-111.0	404.0	-108	403	1
2.7	2015_May_04_1353	s	s	5	1	Capacity	37	RC	0	2	15RD 08RO	1	0	1.87093496323	234.0	167.0	236	164	1
2.7	2015_May_04_1353	s	s	5	1	Capacity	38	ABS	0	2	16RD 08RO	0	1	3.3960609436	None	None	None	None	1
2.7	2015_May_04_1353	s	s	5	1	Capacity	39	ABS	0	1	08RD 16RO	0	1	5.20193481445	None	None	None	None	1
2.7	2015_May_04_1353	s	s	5	1	Capacity	40	RC	0	1	08RD 15RO	1	0	4.60175991058	-425.0	75.0	-424	74	1
2.7	2015_May_04_1353	s	s	5	1	Capacity	41	ABS	0	2	16RD 08RO	0	1	3.63380599022	None	None	None	None	1
2.7	2015_May_04_1353	s	s	5	1	Capacity	42	RC	0	1	08RD 15RO	1	0	2.66320705414	50.0	200.0	51	199	1
2.7	2015_May_04_1353	s	s	5	1	Capacity	43	RC	0	2	15RD 08RO	1	0	1.91801404953	-81.0	-232.0	-84	-236	1
2.7	2015_May_04_1353	s	s	5	1	Capacity	44	ABS	0	1	08RD 16RO	0	1	5.79053401947	None	None	None	None	1
2.7	2015_May_04_1353	s	s	5	1	Capacity	45	ABS	0	1	08RD 16RO	0	1	4.90767002106	None	None	None	None	1
2.7	2015_May_04_1353	s	s	5	1	Capacity	46	RC	0	2	15RD 08RO	1	0	1.69086694717	493.0	-60.0	494	-58	1
2.7	2015_May_04_1353	s	s	5	1	Capacity	47	RC	0	1	08RD 15RO	0	1	6.82256221771	96.0	-67.0	None	None	0
2.7	2015_May_04_1353	s	s	5	1	Capacity	48	ABS	0	2	16RD 08RO	0	1	4.80179309845	None	None	None	None	1
2.7	2015_May_04_1353	s	s	5	1	Capacity	49	RC	0	2	15RD 08RO	1	0	2.10160207748	450.0	-223.0	450	-221	1
2.7	2015_May_04_1353	s	s	5	1	Capacity	50	ABS	0	1	08RD 16RO	0	1	5.70532798767	None	None	None	None	1
2.7	2015_May_04_1353	s	s	5	1	Capacity	51	ABS	0	2	16RD 08RO	0	1	4.49106502533	None	None	None	None	1
2.7	2015_May_04_1353	s	s	5	1	Capacity	52	RC	0	1	08RD 15RO	1	0	1.47731685638	213.0	282.0	207	281	1
2.7	2015_May_04_1353	s	s	5	1	Capacity	53	ABS	0	2	16RD 08RO	0	1	4.44546699524	None	None	None	None	1
2.7	2015_May_04_1353	s	s	5	1	Capacity	54	RC	0	1	08RD 15RO	1	0	4.43103599548	500.0	353.0	499	347	1
2.7	2015_May_04_1353	s	s	5	1	Capacity	55	ABS	0	1	08RD 16RO	0	1	5.82020020485	None	None	None	None	1
2.7	2015_May_04_1353	s	s	5	1	Capacity	56	RC	0	2	15RD 08RO	1	0	2.92549705505	-187.0	64.0	-187	64	1
2.7	2015_May_04_1353	s	s	5	1	Capacity	57	RC	0	2	15RD 08RO	1	0	1.26552796364	54.0	232.0	54	231	1
2.7	2015_May_04_1353	s	s	5	1	Capacity	58	ABS	0	2	16RD 08RO	0	1	2.4211370945	None	None	None	None	1
2.7	2015_May_04_1353	s	s	5	1	Capacity	59	ABS	0	1	08RD 16RO	0	1	5.75033903122	None	None	None	None	1
2.7	2015_May_04_1353	s	s	5	1	Capacity	60	RC	0	1	08RD 15RO	1	0	3.73675394058	500.0	92.0	504	85	1
2.7	2015_May_04_1353	s	s	5	1	Capacity	61	RC	0	2	15RD 08RO	1	0	3.1774020195	277.0	101.0	275	100	1
2.7	2015_May_04_1353	s	s	5	1	Capacity	62	ABS	0	2	16RD 08RO	0	1	7.09701013565	None	None	None	None	1
2.7	2015_May_04_1353	s	s	5	1	Capacity	63	ABS	0	1	08RD 16RO	0	1	5.33145499229	None	None	None	None	1
2.7	2015_May_04_1353	s	s	5	1	Capacity	64	RC	0	1	08RD 15RO	1	0	3.75095796585	14.0	184.0	11	182	1
2.7	2015_May_04_1353	s	s	5	1	Capacity	1	ABS	2	0	16VC 08MC	0	1	8.14252495766	None	None	None	None	1
2.7	2015_May_04_1353	s	s	5	1	Capacity	2	ABS	1	0	08VC 16MC	0	1	7.47905802727	None	None	None	None	1
2.7	2015_May_04_1353	s	s	5	1	Capacity	3	RC	2	0	15VC 08MC	1	0	1.41219997406	-287.0	76.0	-284	70	1
2.7	2015_May_04_1353	s	s	5	1	Capacity	4	RC	1	0	08VC 15MC	1	0	2.92771697044	62.0	-70.0	61	-75	1
2.7	2015_May_04_1353	s	s	5	1	Capacity	5	ABS	2	0	16VC 08MC	0	1	4.87942886353	None	None	None	None	1
2.7	2015_May_04_1353	s	s	5	1	Capacity	6	RC	1	0	08VC 15MC	1	0	1.4923350811	-537.0	282.0	-536	281	1
2.7	2015_May_04_1353	s	s	5	1	Capacity	7	RC	2	0	15VC 08MC	1	0	1.11264491081	-198.0	399.0	-197	393	1
2.7	2015_May_04_1353	s	s	5	1	Capacity	8	ABS	1	0	08VC 16MC	0	1	5.22915697098	None	None	None	None	1
2.7	2015_May_04_1353	s	s	5	1	Capacity	9	RC	1	0	08VC 15MC	1	0	3.17489004135	471.0	5.0	474	1	1
2.7	2015_May_04_1353	s	s	5	1	Capacity	10	ABS	2	0	16VC 08MC	0	1	4.95483708382	None	None	None	None	1
2.7	2015_May_04_1353	s	s	5	1	Capacity	11	ABS	1	0	08VC 16MC	0	1	5.75513982773	None	None	None	None	1
2.7	2015_May_04_1353	s	s	5	1	Capacity	12	RC	2	0	15VC 08MC	1	0	1.05516505241	-276.0	164.0	-278	152	1
2.7	2015_May_04_1353	s	s	5	1	Capacity	13	RC	1	0	08VC 15MC	1	0	2.70100808144	165.0	-32.0	164	-33	1
2.7	2015_May_04_1353	s	s	5	1	Capacity	14	ABS	1	0	08VC 16MC	0	1	4.73116397858	None	None	None	None	1
2.7	2015_May_04_1353	s	s	5	1	Capacity	15	RC	2	0	15VC 08MC	1	0	0.999803066254	284.0	154.0	286	156	1
2.7	2015_May_04_1353	s	s	5	1	Capacity	16	ABS	2	0	16VC 08MC	0	1	5.16704201698	None	None	None	None	1
2.7	2015_May_04_1353	s	s	5	1	Capacity	17	RC	2	0	15VC 08MC	1	0	1.05883383751	-1.0	325.0	0	324	1
2.7	2015_May_04_1353	s	s	5	1	Capacity	18	RC	1	0	08VC 15MC	1	0	2.47811698914	398.0	-65.0	398	-64	1
2.7	2015_May_04_1353	s	s	5	1	Capacity	19	ABS	1	0	08VC 16MC	0	1	5.40884017944	None	None	None	None	1
2.7	2015_May_04_1353	s	s	5	1	Capacity	20	ABS	2	0	16VC 08MC	0	1	4.93767499924	None	None	None	None	1
2.7	2015_May_04_1353	s	s	5	1	Capacity	21	ABS	1	0	08VC 16MC	0	1	4.20134401321	None	None	None	None	1
2.7	2015_May_04_1353	s	s	5	1	Capacity	22	RC	1	0	08VC 15MC	1	0	2.42001509666	213.0	-367.0	206	-369	1
2.7	2015_May_04_1353	s	s	5	1	Capacity	23	ABS	2	0	16VC 08MC	0	1	3.91629600525	None	None	None	None	1
2.7	2015_May_04_1353	s	s	5	1	Capacity	24	RC	2	0	15VC 08MC	1	0	1.72393107414	-493.0	76.0	-491	73	1
2.7	2015_May_04_1353	s	s	5	1	Capacity	25	ABS	1	0	08VC 16MC	0	1	6.30389380455	None	None	None	None	1
2.7	2015_May_04_1353	s	s	5	1	Capacity	26	ABS	2	0	16VC 08MC	0	1	3.51386189461	None	None	None	None	1
2.7	2015_May_04_1353	s	s	5	1	Capacity	27	RC	1	0	08VC 15MC	1	0	1.1880800724	173.0	162.0	179	161	1
2.7	2015_May_04_1353	s	s	5	1	Capacity	28	RC	2	0	15VC 08MC	1	0	2.66844701767	59.0	-359.0	62	-356	1
2.7	2015_May_04_1353	s	s	5	1	Capacity	29	ABS	1	0	08VC 16MC	0	1	3.91432094574	None	None	None	None	1
2.7	2015_May_04_1353	s	s	5	1	Capacity	30	RC	2	0	15VC 08MC	1	0	1.61197090149	158.0	356.0	160	355	1
2.7	2015_May_04_1353	s	s	5	1	Capacity	31	RC	1	0	08VC 15MC	1	0	1.51789307594	-495.0	36.0	-503	35	1
2.7	2015_May_04_1353	s	s	5	1	Capacity	32	ABS	2	0	16VC 08MC	0	1	3.18587589264	None	None	None	None	1
2.7	2015_May_04_1353	s	s	5	1	Capacity	33	ABS	1	0	08VC 16MC	0	1	7.3769288063	None	None	None	None	1
2.7	2015_May_04_1353	s	s	5	1	Capacity	34	ABS	2	0	16VC 08MC	0	1	4.94958400726	None	None	None	None	1
2.7	2015_May_04_1353	s	s	5	1	Capacity	35	RC	1	0	08VC 15MC	1	0	3.93084001541	-241.0	-251.0	-236	-251	1
2.7	2015_May_04_1353	s	s	5	1	Capacity	36	RC	2	0	15VC 08MC	1	0	1.28235387802	-67.0	-235.0	-66	-236	1
2.7	2015_May_04_1353	s	s	5	1	Capacity	37	ABS	1	0	08VC 16MC	0	1	4.43215799332	None	None	None	None	1
2.7	2015_May_04_1353	s	s	5	1	Capacity	38	ABS	2	0	16VC 08MC	0	1	4.9372959137	None	None	None	None	1
2.7	2015_May_04_1353	s	s	5	1	Capacity	39	RC	2	0	15VC 08MC	1	0	2.36279296875	72.0	-77.0	69	-78	1
2.7	2015_May_04_1353	s	s	5	1	Capacity	40	RC	1	0	08VC 15MC	1	0	2.21213889122	266.0	-320.0	275	-317	1
2.7	2015_May_04_1353	s	s	5	1	Capacity	41	RC	1	0	08VC 15MC	1	0	2.03565478325	386.0	339.0	387	337	1
2.7	2015_May_04_1353	s	s	5	1	Capacity	42	ABS	1	0	08VC 16MC	0	1	5.09598708153	None	None	None	None	1
2.7	2015_May_04_1353	s	s	5	1	Capacity	43	RC	2	0	15VC 08MC	1	0	0.988081932068	-252.0	-60.0	-254	-57	1
2.7	2015_May_04_1353	s	s	5	1	Capacity	44	ABS	2	0	16VC 08MC	0	1	4.35203289986	None	None	None	None	1
2.7	2015_May_04_1353	s	s	5	1	Capacity	45	RC	1	0	08VC 15MC	1	0	1.17648983002	261.0	251.0	259	253	1
2.7	2015_May_04_1353	s	s	5	1	Capacity	46	RC	2	0	15VC 08MC	1	0	2.46548295021	441.0	274.0	442	271	1
2.7	2015_May_04_1353	s	s	5	1	Capacity	47	ABS	1	0	08VC 16MC	0	1	2.60073685646	None	None	None	None	1
2.7	2015_May_04_1353	s	s	5	1	Capacity	48	ABS	2	0	16VC 08MC	0	1	3.11283588409	None	None	None	None	1
2.7	2015_May_04_1353	s	s	5	1	Capacity	49	ABS	2	0	16VC 08MC	0	1	4.0873708725	None	None	None	None	1
2.7	2015_May_04_1353	s	s	5	1	Capacity	50	ABS	1	0	08VC 16MC	0	1	5.34760499001	None	None	None	None	1
2.7	2015_May_04_1353	s	s	5	1	Capacity	51	RC	2	0	15VC 08MC	1	0	3.55081987381	24.0	269.0	32	264	1
2.7	2015_May_04_1353	s	s	5	1	Capacity	52	RC	1	0	08VC 15MC	1	0	3.38937091827	-399.0	-310.0	-399	-314	1
2.7	2015_May_04_1353	s	s	5	1	Capacity	53	ABS	2	0	16VC 08MC	0	1	4.11300206184	None	None	None	None	1
2.7	2015_May_04_1353	s	s	5	1	Capacity	54	RC	1	0	08VC 15MC	1	0	1.8355691433	-419.0	39.0	-419	39	1
2.7	2015_May_04_1353	s	s	5	1	Capacity	55	RC	2	0	15VC 08MC	1	0	1.15290808678	178.0	38.0	172	35	1
2.7	2015_May_04_1353	s	s	5	1	Capacity	56	ABS	1	0	08VC 16MC	0	1	2.65955114365	None	None	None	None	1
2.7	2015_May_04_1353	s	s	5	1	Capacity	57	RC	1	0	08VC 15MC	1	0	2.94000601768	-458.0	-173.0	-459	-179	1
2.7	2015_May_04_1353	s	s	5	1	Capacity	58	ABS	1	0	08VC 16MC	0	1	4.63137483597	None	None	None	None	1
2.7	2015_May_04_1353	s	s	5	1	Capacity	59	ABS	2	0	16VC 08MC	0	1	3.51869106293	None	None	None	None	1
2.7	2015_May_04_1353	s	s	5	1	Capacity	60	RC	2	0	15VC 08MC	1	0	1.07907319069	-34.0	-180.0	-33	-180	1
2.7	2015_May_04_1353	s	s	5	1	Capacity	61	RC	1	0	08VC 15MC	1	0	1.60946297646	220.0	-291.0	220	-285	1
2.7	2015_May_04_1353	s	s	5	1	Capacity	62	RC	2	0	15VC 08MC	1	0	2.42407298088	138.0	-342.0	130	-342	1
2.7	2015_May_04_1353	s	s	5	1	Capacity	63	ABS	1	0	08VC 16MC	0	1	3.94914221764	None	None	None	None	1
2.7	2015_May_04_1353	s	s	5	1	Capacity	64	ABS	2	0	16VC 08MC	0	1	8.70361113548	None	None	None	None	1
2.7	2015_May_04_1353	s	s	5	1	SIC	1	RC	2	1	02VD 09VO 02VC 02MD 02MO 02MC 02RD 02RO	1	0	2.70641517639	-255.0	255.0	-252	255	1
2.7	2015_May_04_1353	s	s	5	1	SIC	2	RC	0	2	02VD 02VO 02VC 02MD 02MO 02MC 09RD 02RO	1	0	2.71329188347	333.0	-106.0	337	-116	1
2.7	2015_May_04_1353	s	s	5	1	SIC	3	RC	2	0	02VD 02VO 09VC 02MD 02MO 02MC 02RD 02RO	1	0	1.21551394463	13.0	-253.0	14	-253	1
2.7	2015_May_04_1353	s	s	5	1	SIC	4	ABS	2	0	02VD 02VO 10VC 02MD 02MO 02MC 02RD 02RO	0	1	3.66633105278	None	None	None	None	1
2.7	2015_May_04_1353	s	s	5	1	SIC	5	RC	2	2	09VD 02VO 02VC 02MD 02MO 02MC 02RD 02RO	1	0	2.52999591827	73.0	-330.0	71	-333	1
2.7	2015_May_04_1353	s	s	5	1	SIC	6	ABS	0	1	02VD 02VO 02VC 02MD 02MO 02MC 02RD 10RO	0	1	4.68410420418	None	None	None	None	1
2.7	2015_May_04_1353	s	s	5	1	SIC	7	RC	1	1	02VD 02VO 02VC 02MD 09MO 02MC 02RD 02RO	1	0	2.0326859951	-180.0	-19.0	-185	-25	1
2.7	2015_May_04_1353	s	s	5	1	SIC	8	RC	1	0	02VD 02VO 02VC 02MD 02MO 09MC 02RD 02RO	1	0	2.46638202667	-339.0	-307.0	-336	-309	1
2.7	2015_May_04_1353	s	s	5	1	SIC	9	ABS	2	1	02VD 10VO 02VC 02MD 02MO 02MC 02RD 02RO	0	1	3.75157308578	None	None	None	None	1
2.7	2015_May_04_1353	s	s	5	1	SIC	10	RC	0	1	02VD 02VO 02VC 02MD 02MO 02MC 02RD 09RO	1	0	4.02486085892	214.0	-83.0	212	-78	1
2.7	2015_May_04_1353	s	s	5	1	SIC	11	ABS	1	0	02VD 02VO 02VC 02MD 02MO 10MC 02RD 02RO	0	1	11.5815758705	None	None	None	None	1
2.7	2015_May_04_1353	s	s	5	1	SIC	12	ABS	0	2	02VD 02VO 02VC 02MD 02MO 02MC 10RD 02RO	0	1	8.22221493721	None	None	None	None	1
2.7	2015_May_04_1353	s	s	5	1	SIC	13	RC	1	2	02VD 02VO 02VC 09MD 02MO 02MC 02RD 02RO	1	0	2.59851312637	-15.0	-352.0	-7	-354	1
2.7	2015_May_04_1353	s	s	5	1	SIC	14	ABS	2	2	10VD 02VO 02VC 02MD 02MO 02MC 02RD 02RO	0	1	7.5770111084	None	None	None	None	1
2.7	2015_May_04_1353	s	s	5	1	SIC	15	ABS	1	1	02VD 02VO 02VC 02MD 10MO 02MC 02RD 02RO	0	1	6.24410200119	None	None	None	None	1
2.7	2015_May_04_1353	s	s	5	1	SIC	16	ABS	1	2	02VD 02VO 02VC 10MD 02MO 02MC 02RD 02RO	0	1	8.93085598946	None	None	None	None	1
2.7	2015_May_04_1353	s	s	5	1	SIC	17	ABS	2	2	10VD 02VO 02VC 02MD 02MO 02MC 02RD 02RO	0	1	3.13025593758	None	None	None	None	1
2.7	2015_May_04_1353	s	s	5	1	SIC	18	ABS	1	0	02VD 02VO 02VC 02MD 02MO 10MC 02RD 02RO	0	1	4.02024292946	None	None	None	None	1
2.7	2015_May_04_1353	s	s	5	1	SIC	19	RC	2	2	09VD 02VO 02VC 02MD 02MO 02MC 02RD 02RO	1	0	3.09507703781	486.0	255.0	491	254	1
2.7	2015_May_04_1353	s	s	5	1	SIC	20	RC	0	2	02VD 02VO 02VC 02MD 02MO 02MC 09RD 02RO	1	0	1.99585700035	-494.0	-117.0	-500	-122	1
2.7	2015_May_04_1353	s	s	5	1	SIC	21	ABS	1	1	02VD 02VO 02VC 02MD 10MO 02MC 02RD 02RO	0	1	3.38973593712	None	None	None	None	1
2.7	2015_May_04_1353	s	s	5	1	SIC	22	ABS	2	0	02VD 02VO 10VC 02MD 02MO 02MC 02RD 02RO	0	1	2.58879995346	None	None	None	None	1
2.7	2015_May_04_1353	s	s	5	1	SIC	23	ABS	2	1	02VD 10VO 02VC 02MD 02MO 02MC 02RD 02RO	0	1	3.08322381973	None	None	None	None	1
2.7	2015_May_04_1353	s	s	5	1	SIC	24	ABS	0	2	02VD 02VO 02VC 02MD 02MO 02MC 10RD 02RO	0	1	2.43355298042	None	None	None	None	1
2.7	2015_May_04_1353	s	s	5	1	SIC	25	ABS	1	2	02VD 02VO 02VC 10MD 02MO 02MC 02RD 02RO	0	1	3.16064500809	None	None	None	None	1
2.7	2015_May_04_1353	s	s	5	1	SIC	26	RC	1	2	02VD 02VO 02VC 09MD 02MO 02MC 02RD 02RO	1	0	1.41170811653	92.0	344.0	96	336	1
2.7	2015_May_04_1353	s	s	5	1	SIC	27	ABS	0	1	02VD 02VO 02VC 02MD 02MO 02MC 02RD 10RO	0	1	5.03714418411	None	None	None	None	1
2.7	2015_May_04_1353	s	s	5	1	SIC	28	RC	2	1	02VD 09VO 02VC 02MD 02MO 02MC 02RD 02RO	1	0	1.1997179985	-5.0	346.0	-6	340	1
2.7	2015_May_04_1353	s	s	5	1	SIC	29	RC	2	0	02VD 02VO 09VC 02MD 02MO 02MC 02RD 02RO	1	0	1.23064899445	-460.0	175.0	-457	174	1
2.7	2015_May_04_1353	s	s	5	1	SIC	30	RC	1	0	02VD 02VO 02VC 02MD 02MO 09MC 02RD 02RO	1	0	2.87820196152	355.0	315.0	357	314	1
2.7	2015_May_04_1353	s	s	5	1	SIC	31	RC	1	1	02VD 02VO 02VC 02MD 09MO 02MC 02RD 02RO	1	0	2.76284980774	322.0	-254.0	324	-251	1
2.7	2015_May_04_1353	s	s	5	1	SIC	32	RC	0	1	02VD 02VO 02VC 02MD 02MO 02MC 02RD 09RO	1	0	1.91799283028	-322.0	-355.0	-325	-357	1
2.7	2015_May_04_1353	s	s	5	1	SIC	33	RC	1	1	02VD 02VO 02VC 02MD 09MO 02MC 02RD 02RO	1	0	1.60811305046	144.0	247.0	146	238	1
2.7	2015_May_04_1353	s	s	5	1	SIC	34	RC	2	1	02VD 09VO 02VC 02MD 02MO 02MC 02RD 02RO	1	0	1.12931489944	-260.0	392.0	-261	389	1
2.7	2015_May_04_1353	s	s	5	1	SIC	35	RC	2	2	09VD 02VO 02VC 02MD 02MO 02MC 02RD 02RO	1	0	7.54430103302	-37.0	394.0	-36	403	1
2.7	2015_May_04_1353	s	s	5	1	SIC	36	ABS	1	1	02VD 02VO 02VC 02MD 10MO 02MC 02RD 02RO	0	1	3.10682606697	None	None	None	None	1
2.7	2015_May_04_1353	s	s	5	1	SIC	37	ABS	2	0	02VD 02VO 10VC 02MD 02MO 02MC 02RD 02RO	0	1	2.12664890289	None	None	None	None	1
2.7	2015_May_04_1353	s	s	5	1	SIC	38	ABS	0	1	02VD 02VO 02VC 02MD 02MO 02MC 02RD 10RO	0	1	4.66045498848	None	None	None	None	1
2.7	2015_May_04_1353	s	s	5	1	SIC	39	ABS	1	0	02VD 02VO 02VC 02MD 02MO 10MC 02RD 02RO	0	1	2.68048191071	None	None	None	None	1
2.7	2015_May_04_1353	s	s	5	1	SIC	40	ABS	2	2	10VD 02VO 02VC 02MD 02MO 02MC 02RD 02RO	0	1	2.73918795586	None	None	None	None	1
2.7	2015_May_04_1353	s	s	5	1	SIC	41	RC	2	0	02VD 02VO 09VC 02MD 02MO 02MC 02RD 02RO	1	0	1.74742412567	525.0	-410.0	532	-412	1
2.7	2015_May_04_1353	s	s	5	1	SIC	42	ABS	0	2	02VD 02VO 02VC 02MD 02MO 02MC 10RD 02RO	0	1	3.05519199371	None	None	None	None	1
2.7	2015_May_04_1353	s	s	5	1	SIC	43	ABS	2	1	02VD 10VO 02VC 02MD 02MO 02MC 02RD 02RO	0	1	3.17482209206	None	None	None	None	1
2.7	2015_May_04_1353	s	s	5	1	SIC	44	RC	0	1	02VD 02VO 02VC 02MD 02MO 02MC 02RD 09RO	1	0	4.75117492676	-118.0	88.0	-119	86	1
2.7	2015_May_04_1353	s	s	5	1	SIC	45	ABS	1	2	02VD 02VO 02VC 10MD 02MO 02MC 02RD 02RO	0	1	2.96548199654	None	None	None	None	1
2.7	2015_May_04_1353	s	s	5	1	SIC	46	RC	1	0	02VD 02VO 02VC 02MD 02MO 09MC 02RD 02RO	1	0	1.27935099602	-309.0	341.0	-312	343	1
2.7	2015_May_04_1353	s	s	5	1	SIC	47	RC	1	2	02VD 02VO 02VC 09MD 02MO 02MC 02RD 02RO	1	0	3.11510181427	347.0	408.0	351	412	1
2.7	2015_May_04_1353	s	s	5	1	SIC	48	RC	0	2	02VD 02VO 02VC 02MD 02MO 02MC 09RD 02RO	1	0	1.80690598488	-132.0	-142.0	-130	-152	1
2.7	2015_May_04_1353	s	s	5	1	SIC	49	ABS	1	1	02VD 02VO 02VC 02MD 10MO 02MC 02RD 02RO	0	1	3.44260406494	None	None	None	None	1
2.7	2015_May_04_1353	s	s	5	1	SIC	50	ABS	1	2	02VD 02VO 02VC 10MD 02MO 02MC 02RD 02RO	0	1	3.11865997314	None	None	None	None	1
2.7	2015_May_04_1353	s	s	5	1	SIC	51	RC	0	2	02VD 02VO 02VC 02MD 02MO 02MC 09RD 02RO	1	0	2.64772701263	-223.0	-323.0	-228	-326	1
2.7	2015_May_04_1353	s	s	5	1	SIC	52	ABS	2	0	02VD 02VO 10VC 02MD 02MO 02MC 02RD 02RO	0	1	2.53384613991	None	None	None	None	1
2.7	2015_May_04_1353	s	s	5	1	SIC	53	ABS	0	1	02VD 02VO 02VC 02MD 02MO 02MC 02RD 10RO	0	1	5.19021987915	None	None	None	None	1
2.7	2015_May_04_1353	s	s	5	1	SIC	54	ABS	1	0	02VD 02VO 02VC 02MD 02MO 10MC 02RD 02RO	0	1	3.56583809853	None	None	None	None	1
2.7	2015_May_04_1353	s	s	5	1	SIC	55	RC	1	2	02VD 02VO 02VC 09MD 02MO 02MC 02RD 02RO	0	1	1.97671413422	-233.0	4.0	None	None	0
2.7	2015_May_04_1353	s	s	5	1	SIC	56	RC	2	2	09VD 02VO 02VC 02MD 02MO 02MC 02RD 02RO	1	0	3.6835000515	81.0	353.0	81	351	1
2.7	2015_May_04_1353	s	s	5	1	SIC	57	RC	1	0	02VD 02VO 02VC 02MD 02MO 09MC 02RD 02RO	1	0	2.10666584969	384.0	-233.0	388	-233	1
2.7	2015_May_04_1353	s	s	5	1	SIC	58	RC	0	1	02VD 02VO 02VC 02MD 02MO 02MC 02RD 09RO	0	1	3.63690304756	-378.0	201.0	None	None	0
2.7	2015_May_04_1353	s	s	5	1	SIC	59	ABS	0	2	02VD 02VO 02VC 02MD 02MO 02MC 10RD 02RO	0	1	2.3840842247	None	None	None	None	1
2.7	2015_May_04_1353	s	s	5	1	SIC	60	RC	2	0	02VD 02VO 09VC 02MD 02MO 02MC 02RD 02RO	1	0	2.23092007637	43.0	-338.0	48	-334	1
2.7	2015_May_04_1353	s	s	5	1	SIC	61	ABS	2	2	10VD 02VO 02VC 02MD 02MO 02MC 02RD 02RO	0	1	2.78335881233	None	None	None	None	1
2.7	2015_May_04_1353	s	s	5	1	SIC	62	ABS	2	1	02VD 10VO 02VC 02MD 02MO 02MC 02RD 02RO	0	1	2.8596200943	None	None	None	None	1
2.7	2015_May_04_1353	s	s	5	1	SIC	63	RC	1	1	02VD 02VO 02VC 02MD 09MO 02MC 02RD 02RO	1	0	1.82368206978	154.0	48.0	155	44	1
2.7	2015_May_04_1353	s	s	5	1	SIC	64	RC	2	1	02VD 09VO 02VC 02MD 02MO 02MC 02RD 02RO	1	0	3.91327190399	-319.0	133.0	-319	125	1
2.7	2015_May_04_1353	s	s	5	1	SIC	65	ABS	1	1	02VD 02VO 02VC 02MD 10MO 02MC 02RD 02RO	0	1	3.2778711319	None	None	None	None	1
2.7	2015_May_04_1353	s	s	5	1	SIC	66	RC	1	0	02VD 02VO 02VC 02MD 02MO 09MC 02RD 02RO	1	0	2.29453516006	-83.0	-76.0	-84	-71	1
2.7	2015_May_04_1353	s	s	5	1	SIC	67	ABS	0	2	02VD 02VO 02VC 02MD 02MO 02MC 10RD 02RO	0	1	3.01266908646	None	None	None	None	1
2.7	2015_May_04_1353	s	s	5	1	SIC	68	RC	2	2	09VD 02VO 02VC 02MD 02MO 02MC 02RD 02RO	1	0	1.52688717842	-335.0	252.0	-331	252	1
2.7	2015_May_04_1353	s	s	5	1	SIC	69	ABS	2	0	02VD 02VO 10VC 02MD 02MO 02MC 02RD 02RO	0	1	3.61280989647	None	None	None	None	1
2.7	2015_May_04_1353	s	s	5	1	SIC	70	RC	2	1	02VD 09VO 02VC 02MD 02MO 02MC 02RD 02RO	1	0	2.18930697441	-64.0	-86.0	-64	-90	1
2.7	2015_May_04_1353	s	s	5	1	SIC	71	RC	0	1	02VD 02VO 02VC 02MD 02MO 02MC 02RD 09RO	1	0	2.53677988052	403.0	-135.0	409	-131	1
2.7	2015_May_04_1353	s	s	5	1	SIC	72	RC	2	0	02VD 02VO 09VC 02MD 02MO 02MC 02RD 02RO	1	0	3.18916296959	393.0	-114.0	392	-112	1
2.7	2015_May_04_1353	s	s	5	1	SIC	73	RC	0	2	02VD 02VO 02VC 02MD 02MO 02MC 09RD 02RO	1	0	2.19480705261	-344.0	-78.0	-346	-85	1
2.7	2015_May_04_1353	s	s	5	1	SIC	74	ABS	2	1	02VD 10VO 02VC 02MD 02MO 02MC 02RD 02RO	0	1	2.983522892	None	None	None	None	1
2.7	2015_May_04_1353	s	s	5	1	SIC	75	ABS	0	1	02VD 02VO 02VC 02MD 02MO 02MC 02RD 10RO	0	1	3.95164608955	None	None	None	None	1
2.7	2015_May_04_1353	s	s	5	1	SIC	76	ABS	1	0	02VD 02VO 02VC 02MD 02MO 10MC 02RD 02RO	0	1	4.91522097588	None	None	None	None	1
2.7	2015_May_04_1353	s	s	5	1	SIC	77	ABS	2	2	10VD 02VO 02VC 02MD 02MO 02MC 02RD 02RO	0	1	1.92706799507	None	None	None	None	1
2.7	2015_May_04_1353	s	s	5	1	SIC	78	RC	1	2	02VD 02VO 02VC 09MD 02MO 02MC 02RD 02RO	1	0	1.53520607948	165.0	64.0	163	68	1
2.7	2015_May_04_1353	s	s	5	1	SIC	79	ABS	1	2	02VD 02VO 02VC 10MD 02MO 02MC 02RD 02RO	0	1	2.74850320816	None	None	None	None	1
2.7	2015_May_04_1353	s	s	5	1	SIC	80	RC	1	1	02VD 02VO 02VC 02MD 09MO 02MC 02RD 02RO	1	0	5.81022787094	221.0	375.0	227	382	1
2.7	2015_May_04_1353	s	s	5	1	SIC	81	RC	1	0	02VD 02VO 02VC 02MD 02MO 09MC 02RD 02RO	1	0	2.50419807434	-491.0	280.0	-491	281	1
2.7	2015_May_04_1353	s	s	5	1	SIC	82	ABS	1	2	02VD 02VO 02VC 10MD 02MO 02MC 02RD 02RO	0	1	3.24801898003	None	None	None	None	1
2.7	2015_May_04_1353	s	s	5	1	SIC	83	RC	2	0	02VD 02VO 09VC 02MD 02MO 02MC 02RD 02RO	1	0	1.46851396561	401.0	-224.0	404	-227	1
2.7	2015_May_04_1353	s	s	5	1	SIC	84	RC	0	2	02VD 02VO 02VC 02MD 02MO 02MC 09RD 02RO	1	0	1.76492810249	-16.0	257.0	-20	255	1
2.7	2015_May_04_1353	s	s	5	1	SIC	85	ABS	1	0	02VD 02VO 02VC 02MD 02MO 10MC 02RD 02RO	0	1	3.68926906586	None	None	None	None	1
2.7	2015_May_04_1353	s	s	5	1	SIC	86	RC	0	1	02VD 02VO 02VC 02MD 02MO 02MC 02RD 09RO	1	0	3.61295008659	346.0	-103.0	349	-100	1
2.7	2015_May_04_1353	s	s	5	1	SIC	87	ABS	0	2	02VD 02VO 02VC 02MD 02MO 02MC 10RD 02RO	0	1	3.40725803375	None	None	None	None	1
2.7	2015_May_04_1353	s	s	5	1	SIC	88	RC	1	2	02VD 02VO 02VC 09MD 02MO 02MC 02RD 02RO	0	1	3.71322989464	-421.0	-407.0	None	None	0
2.7	2015_May_04_1353	s	s	5	1	SIC	89	RC	2	2	09VD 02VO 02VC 02MD 02MO 02MC 02RD 02RO	1	0	3.31856703758	73.0	327.0	68	328	1
2.7	2015_May_04_1353	s	s	5	1	SIC	90	RC	1	1	02VD 02VO 02VC 02MD 09MO 02MC 02RD 02RO	1	0	2.81940603256	250.0	354.0	249	352	1
2.7	2015_May_04_1353	s	s	5	1	SIC	91	ABS	0	1	02VD 02VO 02VC 02MD 02MO 02MC 02RD 10RO	0	1	8.91685700417	None	None	None	None	1
2.7	2015_May_04_1353	s	s	5	1	SIC	92	ABS	2	0	02VD 02VO 10VC 02MD 02MO 02MC 02RD 02RO	0	1	4.20761299133	None	None	None	None	1
2.7	2015_May_04_1353	s	s	5	1	SIC	93	RC	2	1	02VD 09VO 02VC 02MD 02MO 02MC 02RD 02RO	1	0	1.81191802025	26.0	-341.0	24	-344	1
2.7	2015_May_04_1353	s	s	5	1	SIC	94	ABS	2	1	02VD 10VO 02VC 02MD 02MO 02MC 02RD 02RO	0	1	2.57461905479	None	None	None	None	1
2.7	2015_May_04_1353	s	s	5	1	SIC	95	ABS	1	1	02VD 02VO 02VC 02MD 10MO 02MC 02RD 02RO	0	1	3.10680890083	None	None	None	None	1
2.7	2015_May_04_1353	s	s	5	1	SIC	96	ABS	2	2	10VD 02VO 02VC 02MD 02MO 02MC 02RD 02RO	0	1	2.57736611366	None	None	None	None	1
2.7	2015_May_04_1353	s	s	5	1	SIC	97	RC	1	2	02VD 02VO 02VC 09MD 02MO 02MC 02RD 02RO	1	0	1.1857779026	-107.0	57.0	-114	52	1
2.7	2015_May_04_1353	s	s	5	1	SIC	98	ABS	2	0	02VD 02VO 10VC 02MD 02MO 02MC 02RD 02RO	0	1	2.33802604675	None	None	None	None	1
2.7	2015_May_04_1353	s	s	5	1	SIC	99	RC	0	2	02VD 02VO 02VC 02MD 02MO 02MC 09RD 02RO	1	0	1.44717407227	30.0	391.0	27	396	1
2.7	2015_May_04_1353	s	s	5	1	SIC	100	RC	2	0	02VD 02VO 09VC 02MD 02MO 02MC 02RD 02RO	1	0	2.8191819191	524.0	296.0	526	298	1
2.7	2015_May_04_1353	s	s	5	1	SIC	101	ABS	2	2	10VD 02VO 02VC 02MD 02MO 02MC 02RD 02RO	0	1	2.6240811348	None	None	None	None	1
2.7	2015_May_04_1353	s	s	5	1	SIC	102	ABS	0	1	02VD 02VO 02VC 02MD 02MO 02MC 02RD 10RO	0	1	3.40802598	None	None	None	None	1
2.7	2015_May_04_1353	s	s	5	1	SIC	103	RC	1	1	02VD 02VO 02VC 02MD 09MO 02MC 02RD 02RO	1	0	2.16518497467	251.0	-141.0	253	-147	1
2.7	2015_May_04_1353	s	s	5	1	SIC	104	ABS	1	1	02VD 02VO 02VC 02MD 10MO 02MC 02RD 02RO	0	1	2.67820382118	None	None	None	None	1
2.7	2015_May_04_1353	s	s	5	1	SIC	105	ABS	1	2	02VD 02VO 02VC 10MD 02MO 02MC 02RD 02RO	0	1	3.72505784035	None	None	None	None	1
2.7	2015_May_04_1353	s	s	5	1	SIC	106	RC	0	1	02VD 02VO 02VC 02MD 02MO 02MC 02RD 09RO	1	0	3.07973003387	533.0	377.0	534	375	1
2.7	2015_May_04_1353	s	s	5	1	SIC	107	ABS	2	1	02VD 10VO 02VC 02MD 02MO 02MC 02RD 02RO	0	1	2.17732310295	None	None	None	None	1
2.7	2015_May_04_1353	s	s	5	1	SIC	108	RC	2	1	02VD 09VO 02VC 02MD 02MO 02MC 02RD 02RO	1	0	1.88870596886	-529.0	-22.0	-528	-24	1
2.7	2015_May_04_1353	s	s	5	1	SIC	109	ABS	1	0	02VD 02VO 02VC 02MD 02MO 10MC 02RD 02RO	0	1	3.91892385483	None	None	None	None	1
2.7	2015_May_04_1353	s	s	5	1	SIC	110	ABS	0	2	02VD 02VO 02VC 02MD 02MO 02MC 10RD 02RO	0	1	3.32811498642	None	None	None	None	1
2.7	2015_May_04_1353	s	s	5	1	SIC	111	RC	1	0	02VD 02VO 02VC 02MD 02MO 09MC 02RD 02RO	1	0	1.47066092491	535.0	270.0	536	265	1
2.7	2015_May_04_1353	s	s	5	1	SIC	112	RC	2	2	09VD 02VO 02VC 02MD 02MO 02MC 02RD 02RO	1	0	2.59539604187	390.0	355.0	392	355	1
2.7	2015_May_04_1353	s	s	5	1	SIC	113	RC	2	0	02VD 02VO 09VC 02MD 02MO 02MC 02RD 02RO	1	0	2.83993792534	17.0	-163.0	21	-165	1
2.7	2015_May_04_1353	s	s	5	1	SIC	114	ABS	2	0	02VD 02VO 10VC 02MD 02MO 02MC 02RD 02RO	0	1	4.92927217484	None	None	None	None	1
2.7	2015_May_04_1353	s	s	5	1	SIC	115	RC	0	1	02VD 02VO 02VC 02MD 02MO 02MC 02RD 09RO	1	0	3.55184817314	310.0	153.0	315	157	1
2.7	2015_May_04_1353	s	s	5	1	SIC	116	ABS	2	2	10VD 02VO 02VC 02MD 02MO 02MC 02RD 02RO	0	1	3.60112094879	None	None	None	None	1
2.7	2015_May_04_1353	s	s	5	1	SIC	117	RC	1	1	02VD 02VO 02VC 02MD 09MO 02MC 02RD 02RO	0	1	2.67743802071	-273.0	-98.0	None	None	0
2.7	2015_May_04_1353	s	s	5	1	SIC	118	RC	2	1	02VD 09VO 02VC 02MD 02MO 02MC 02RD 02RO	1	0	1.87078094482	-50.0	8.0	-49	8	1
2.7	2015_May_04_1353	s	s	5	1	SIC	119	ABS	1	2	02VD 02VO 02VC 10MD 02MO 02MC 02RD 02RO	0	1	2.16980290413	None	None	None	None	1
2.7	2015_May_04_1353	s	s	5	1	SIC	120	RC	2	2	09VD 02VO 02VC 02MD 02MO 02MC 02RD 02RO	1	0	1.45638203621	-175.0	220.0	-167	221	1
2.7	2015_May_04_1353	s	s	5	1	SIC	121	RC	0	2	02VD 02VO 02VC 02MD 02MO 02MC 09RD 02RO	1	0	2.35372805595	464.0	149.0	463	137	1
2.7	2015_May_04_1353	s	s	5	1	SIC	122	ABS	0	2	02VD 02VO 02VC 02MD 02MO 02MC 10RD 02RO	0	1	3.05394816399	None	None	None	None	1
2.7	2015_May_04_1353	s	s	5	1	SIC	123	ABS	2	1	02VD 10VO 02VC 02MD 02MO 02MC 02RD 02RO	0	1	2.24743890762	None	None	None	None	1
2.7	2015_May_04_1353	s	s	5	1	SIC	124	ABS	1	0	02VD 02VO 02VC 02MD 02MO 10MC 02RD 02RO	0	1	3.12816810608	None	None	None	None	1
2.7	2015_May_04_1353	s	s	5	1	SIC	125	ABS	1	1	02VD 02VO 02VC 02MD 10MO 02MC 02RD 02RO	0	1	3.1016099453	None	None	None	None	1
2.7	2015_May_04_1353	s	s	5	1	SIC	126	RC	1	0	02VD 02VO 02VC 02MD 02MO 09MC 02RD 02RO	1	0	3.92639398575	140.0	203.0	139	203	1
2.7	2015_May_04_1353	s	s	5	1	SIC	127	ABS	0	1	02VD 02VO 02VC 02MD 02MO 02MC 02RD 10RO	0	1	5.70812702179	None	None	None	None	1
2.7	2015_May_04_1353	s	s	5	1	SIC	128	RC	1	2	02VD 02VO 02VC 09MD 02MO 02MC 02RD 02RO	1	0	1.02977108955	37.0	310.0	31	312	1
2.7	2015_May_04_1353	s	s	5	1	SIC	129	RC	1	2	02VD 02VO 02VC 09MD 02MO 02MC 02RD 02RO	1	0	1.12540316582	280.0	298.0	285	296	1
2.7	2015_May_04_1353	s	s	5	1	SIC	130	RC	0	1	02VD 02VO 02VC 02MD 02MO 02MC 02RD 09RO	1	0	1.93638896942	-483.0	-236.0	-476	-238	1
2.7	2015_May_04_1353	s	s	5	1	SIC	131	RC	2	0	02VD 02VO 09VC 02MD 02MO 02MC 02RD 02RO	1	0	2.08894395828	331.0	-359.0	327	-361	1
2.7	2015_May_04_1353	s	s	5	1	SIC	132	ABS	2	0	02VD 02VO 10VC 02MD 02MO 02MC 02RD 02RO	0	1	2.87136507034	None	None	None	None	1
2.7	2015_May_04_1353	s	s	5	1	SIC	133	ABS	1	2	02VD 02VO 02VC 10MD 02MO 02MC 02RD 02RO	0	1	3.21965003014	None	None	None	None	1
2.7	2015_May_04_1353	s	s	5	1	SIC	134	RC	1	0	02VD 02VO 02VC 02MD 02MO 09MC 02RD 02RO	1	0	1.03517317772	-20.0	201.0	-19	201	1
2.7	2015_May_04_1353	s	s	5	1	SIC	135	RC	2	1	02VD 09VO 02VC 02MD 02MO 02MC 02RD 02RO	1	0	1.18805599213	-254.0	266.0	-253	268	1
2.7	2015_May_04_1353	s	s	5	1	SIC	136	RC	1	1	02VD 02VO 02VC 02MD 09MO 02MC 02RD 02RO	1	0	1.63279891014	-165.0	-394.0	-169	-401	1
2.7	2015_May_04_1353	s	s	5	1	SIC	137	ABS	1	0	02VD 02VO 02VC 02MD 02MO 10MC 02RD 02RO	0	1	3.62463903427	None	None	None	None	1
2.7	2015_May_04_1353	s	s	5	1	SIC	138	RC	0	2	02VD 02VO 02VC 02MD 02MO 02MC 09RD 02RO	1	0	1.5647418499	-39.0	314.0	-36	314	1
2.7	2015_May_04_1353	s	s	5	1	SIC	139	ABS	1	1	02VD 02VO 02VC 02MD 10MO 02MC 02RD 02RO	0	1	2.89129209518	None	None	None	None	1
2.7	2015_May_04_1353	s	s	5	1	SIC	140	ABS	0	1	02VD 02VO 02VC 02MD 02MO 02MC 02RD 10RO	0	1	4.91367983818	None	None	None	None	1
2.7	2015_May_04_1353	s	s	5	1	SIC	141	ABS	2	1	02VD 10VO 02VC 02MD 02MO 02MC 02RD 02RO	0	1	2.23589682579	None	None	None	None	1
2.7	2015_May_04_1353	s	s	5	1	SIC	142	ABS	2	2	10VD 02VO 02VC 02MD 02MO 02MC 02RD 02RO	0	1	2.41886019707	None	None	None	None	1
2.7	2015_May_04_1353	s	s	5	1	SIC	143	ABS	0	2	02VD 02VO 02VC 02MD 02MO 02MC 10RD 02RO	0	1	2.37323093414	None	None	None	None	1
2.7	2015_May_04_1353	s	s	5	1	SIC	144	RC	2	2	09VD 02VO 02VC 02MD 02MO 02MC 02RD 02RO	0	1	3.08329796791	-331.0	281.0	None	None	0
2.7	2015_May_04_1353	s	s	5	1	SIC	145	ABS	2	2	10VD 02VO 02VC 02MD 02MO 02MC 02RD 02RO	0	1	2.36528706551	None	None	None	None	1
2.7	2015_May_04_1353	s	s	5	1	SIC	146	ABS	0	1	02VD 02VO 02VC 02MD 02MO 02MC 02RD 10RO	0	1	4.09247303009	None	None	None	None	1
2.7	2015_May_04_1353	s	s	5	1	SIC	147	ABS	0	2	02VD 02VO 02VC 02MD 02MO 02MC 10RD 02RO	0	1	2.63087391853	None	None	None	None	1
2.7	2015_May_04_1353	s	s	5	1	SIC	148	RC	0	2	02VD 02VO 02VC 02MD 02MO 02MC 09RD 02RO	1	0	1.44711899757	-84.0	368.0	-80	371	1
2.7	2015_May_04_1353	s	s	5	1	SIC	149	ABS	1	1	02VD 02VO 02VC 02MD 10MO 02MC 02RD 02RO	0	1	2.3535759449	None	None	None	None	1
2.7	2015_May_04_1353	s	s	5	1	SIC	150	RC	2	2	09VD 02VO 02VC 02MD 02MO 02MC 02RD 02RO	1	0	1.52707600594	-193.0	-371.0	-194	-377	1
2.7	2015_May_04_1353	s	s	5	1	SIC	151	RC	2	1	02VD 09VO 02VC 02MD 02MO 02MC 02RD 02RO	1	0	2.03160691261	-524.0	-337.0	-523	-338	1
2.7	2015_May_04_1353	s	s	5	1	SIC	152	RC	2	0	02VD 02VO 09VC 02MD 02MO 02MC 02RD 02RO	1	0	2.32431817055	-480.0	-276.0	-471	-269	1
2.7	2015_May_04_1353	s	s	5	1	SIC	153	ABS	1	0	02VD 02VO 02VC 02MD 02MO 10MC 02RD 02RO	0	1	2.94918107986	None	None	None	None	1
2.7	2015_May_04_1353	s	s	5	1	SIC	154	RC	1	2	02VD 02VO 02VC 09MD 02MO 02MC 02RD 02RO	1	0	1.38537502289	-312.0	75.0	-311	74	1
2.7	2015_May_04_1353	s	s	5	1	SIC	155	ABS	1	2	02VD 02VO 02VC 10MD 02MO 02MC 02RD 02RO	0	1	2.20047497749	None	None	None	None	1
2.7	2015_May_04_1353	s	s	5	1	SIC	156	RC	1	1	02VD 02VO 02VC 02MD 09MO 02MC 02RD 02RO	1	0	3.04193401337	189.0	-354.0	192	-357	1
2.7	2015_May_04_1353	s	s	5	1	SIC	157	ABS	2	1	02VD 10VO 02VC 02MD 02MO 02MC 02RD 02RO	0	1	2.50652194023	None	None	None	None	1
2.7	2015_May_04_1353	s	s	5	1	SIC	158	RC	0	1	02VD 02VO 02VC 02MD 02MO 02MC 02RD 09RO	1	0	1.95700287819	-390.0	295.0	-397	293	1
2.7	2015_May_04_1353	s	s	5	1	SIC	159	ABS	2	0	02VD 02VO 10VC 02MD 02MO 02MC 02RD 02RO	0	1	2.0779709816	None	None	None	None	1
2.7	2015_May_04_1353	s	s	5	1	SIC	160	RC	1	0	02VD 02VO 02VC 02MD 02MO 09MC 02RD 02RO	1	0	1.39703512192	21.0	-267.0	13	-263	1
2.7	2015_May_04_1353	s	s	5	1	SIC	161	RC	2	0	02VD 02VO 09VC 02MD 02MO 02MC 02RD 02RO	1	0	1.68240380287	-71.0	219.0	-75	217	1
2.7	2015_May_04_1353	s	s	5	1	SIC	162	ABS	2	0	02VD 02VO 10VC 02MD 02MO 02MC 02RD 02RO	0	1	3.1483938694	None	None	None	None	1
2.7	2015_May_04_1353	s	s	5	1	SIC	163	ABS	0	2	02VD 02VO 02VC 02MD 02MO 02MC 10RD 02RO	0	1	4.13115501404	None	None	None	None	1
2.7	2015_May_04_1353	s	s	5	1	SIC	164	ABS	0	1	02VD 02VO 02VC 02MD 02MO 02MC 02RD 10RO	0	1	4.97835493088	None	None	None	None	1
2.7	2015_May_04_1353	s	s	5	1	SIC	165	RC	2	2	09VD 02VO 02VC 02MD 02MO 02MC 02RD 02RO	1	0	1.90348696709	100.0	301.0	103	306	1
2.7	2015_May_04_1353	s	s	5	1	SIC	166	RC	1	1	02VD 02VO 02VC 02MD 09MO 02MC 02RD 02RO	1	0	3.96194696426	-458.0	-128.0	-457	-134	1
2.7	2015_May_04_1353	s	s	5	1	SIC	167	RC	2	1	02VD 09VO 02VC 02MD 02MO 02MC 02RD 02RO	1	0	1.71129989624	-300.0	404.0	-296	399	1
2.7	2015_May_04_1353	s	s	5	1	SIC	168	ABS	2	1	02VD 10VO 02VC 02MD 02MO 02MC 02RD 02RO	0	1	3.40776515007	None	None	None	None	1
2.7	2015_May_04_1353	s	s	5	1	SIC	169	ABS	1	2	02VD 02VO 02VC 10MD 02MO 02MC 02RD 02RO	0	1	2.91852998734	None	None	None	None	1
2.7	2015_May_04_1353	s	s	5	1	SIC	170	RC	1	2	02VD 02VO 02VC 09MD 02MO 02MC 02RD 02RO	1	0	1.58836817741	-204.0	111.0	-203	114	1
2.7	2015_May_04_1353	s	s	5	1	SIC	171	ABS	1	1	02VD 02VO 02VC 02MD 10MO 02MC 02RD 02RO	0	1	2.18600893021	None	None	None	None	1
2.7	2015_May_04_1353	s	s	5	1	SIC	172	ABS	2	2	10VD 02VO 02VC 02MD 02MO 02MC 02RD 02RO	0	1	1.61901402473	None	None	None	None	1
2.7	2015_May_04_1353	s	s	5	1	SIC	173	RC	1	0	02VD 02VO 02VC 02MD 02MO 09MC 02RD 02RO	1	0	1.81196403503	171.0	220.0	176	219	1
2.7	2015_May_04_1353	s	s	5	1	SIC	174	RC	0	2	02VD 02VO 02VC 02MD 02MO 02MC 09RD 02RO	1	0	3.16280007362	-396.0	-327.0	-389	-326	1
2.7	2015_May_04_1353	s	s	5	1	SIC	175	ABS	1	0	02VD 02VO 02VC 02MD 02MO 10MC 02RD 02RO	0	1	3.39669585228	None	None	None	None	1
2.7	2015_May_04_1353	s	s	5	1	SIC	176	RC	0	1	02VD 02VO 02VC 02MD 02MO 02MC 02RD 09RO	1	0	4.35448598862	223.0	-158.0	224	-158	1
2.7	2015_May_04_1353	s	s	5	1	SIC	177	RC	2	1	02VD 09VO 02VC 02MD 02MO 02MC 02RD 02RO	1	0	1.31324076653	513.0	351.0	510	351	1
2.7	2015_May_04_1353	s	s	5	1	SIC	178	RC	1	0	02VD 02VO 02VC 02MD 02MO 09MC 02RD 02RO	1	0	1.63549685478	219.0	403.0	215	404	1
2.7	2015_May_04_1353	s	s	5	1	SIC	179	ABS	2	2	10VD 02VO 02VC 02MD 02MO 02MC 02RD 02RO	0	1	2.96064996719	None	None	None	None	1
2.7	2015_May_04_1353	s	s	5	1	SIC	180	ABS	0	1	02VD 02VO 02VC 02MD 02MO 02MC 02RD 10RO	0	1	4.72598981857	None	None	None	None	1
2.7	2015_May_04_1353	s	s	5	1	SIC	181	ABS	0	2	02VD 02VO 02VC 02MD 02MO 02MC 10RD 02RO	0	1	3.18920993805	None	None	None	None	1
2.7	2015_May_04_1353	s	s	5	1	SIC	182	ABS	2	0	02VD 02VO 10VC 02MD 02MO 02MC 02RD 02RO	0	1	2.81961488724	None	None	None	None	1
2.7	2015_May_04_1353	s	s	5	1	SIC	183	RC	1	1	02VD 02VO 02VC 02MD 09MO 02MC 02RD 02RO	1	0	2.5243461132	523.0	-154.0	525	-162	1
2.7	2015_May_04_1353	s	s	5	1	SIC	184	ABS	1	1	02VD 02VO 02VC 02MD 10MO 02MC 02RD 02RO	0	1	3.9272840023	None	None	None	None	1
2.7	2015_May_04_1353	s	s	5	1	SIC	185	RC	1	2	02VD 02VO 02VC 09MD 02MO 02MC 02RD 02RO	1	0	3.14888477325	3.0	-101.0	0	-109	1
2.7	2015_May_04_1353	s	s	5	1	SIC	186	ABS	2	1	02VD 10VO 02VC 02MD 02MO 02MC 02RD 02RO	0	1	5.5056180954	None	None	None	None	1
2.7	2015_May_04_1353	s	s	5	1	SIC	187	ABS	1	0	02VD 02VO 02VC 02MD 02MO 10MC 02RD 02RO	0	1	4.50121212006	None	None	None	None	1
2.7	2015_May_04_1353	s	s	5	1	SIC	188	RC	0	1	02VD 02VO 02VC 02MD 02MO 02MC 02RD 09RO	1	0	3.08328294754	-102.0	324.0	-103	328	1
2.7	2015_May_04_1353	s	s	5	1	SIC	189	ABS	1	2	02VD 02VO 02VC 10MD 02MO 02MC 02RD 02RO	0	1	4.17577981949	None	None	None	None	1
2.7	2015_May_04_1353	s	s	5	1	SIC	190	RC	2	0	02VD 02VO 09VC 02MD 02MO 02MC 02RD 02RO	1	0	2.11549901962	-242.0	-285.0	-240	-285	1
2.7	2015_May_04_1353	s	s	5	1	SIC	191	RC	2	2	09VD 02VO 02VC 02MD 02MO 02MC 02RD 02RO	0	1	3.28932785988	-116.0	-174.0	None	None	0
2.7	2015_May_04_1353	s	s	5	1	SIC	192	RC	0	2	02VD 02VO 02VC 02MD 02MO 02MC 09RD 02RO	1	0	2.89010500908	-422.0	-331.0	-416	-330	1
2.7	2015_May_04_1353	s	s	5	1	SIC	193	RC	0	1	02VD 02VO 02VC 02MD 02MO 02MC 02RD 09RO	1	0	2.80924701691	329.0	16.0	335	22	1
2.7	2015_May_04_1353	s	s	5	1	SIC	194	ABS	1	1	02VD 02VO 02VC 02MD 10MO 02MC 02RD 02RO	0	1	3.58941507339	None	None	None	None	1
2.7	2015_May_04_1353	s	s	5	1	SIC	195	ABS	0	2	02VD 02VO 02VC 02MD 02MO 02MC 10RD 02RO	0	1	2.63331198692	None	None	None	None	1
2.7	2015_May_04_1353	s	s	5	1	SIC	196	RC	2	1	02VD 09VO 02VC 02MD 02MO 02MC 02RD 02RO	1	0	1.21783185005	139.0	33.0	141	35	1
2.7	2015_May_04_1353	s	s	5	1	SIC	197	RC	2	2	09VD 02VO 02VC 02MD 02MO 02MC 02RD 02RO	1	0	1.66429710388	-364.0	-57.0	-359	-60	1
2.7	2015_May_04_1353	s	s	5	1	SIC	198	ABS	0	1	02VD 02VO 02VC 02MD 02MO 02MC 02RD 10RO	0	1	3.820510149	None	None	None	None	1
2.7	2015_May_04_1353	s	s	5	1	SIC	199	ABS	1	0	02VD 02VO 02VC 02MD 02MO 10MC 02RD 02RO	0	1	3.67910504341	None	None	None	None	1
2.7	2015_May_04_1353	s	s	5	1	SIC	200	ABS	2	1	02VD 10VO 02VC 02MD 02MO 02MC 02RD 02RO	0	1	4.08111906052	None	None	None	None	1
2.7	2015_May_04_1353	s	s	5	1	SIC	201	RC	1	2	02VD 02VO 02VC 09MD 02MO 02MC 02RD 02RO	1	0	1.43515300751	109.0	211.0	112	200	1
2.7	2015_May_04_1353	s	s	5	1	SIC	202	RC	1	1	02VD 02VO 02VC 02MD 09MO 02MC 02RD 02RO	1	0	3.89549088478	498.0	213.0	507	216	1
2.7	2015_May_04_1353	s	s	5	1	SIC	203	ABS	2	2	10VD 02VO 02VC 02MD 02MO 02MC 02RD 02RO	0	1	2.18602490425	None	None	None	None	1
2.7	2015_May_04_1353	s	s	5	1	SIC	204	RC	1	0	02VD 02VO 02VC 02MD 02MO 09MC 02RD 02RO	1	0	3.46872901917	-239.0	400.0	-242	399	1
2.7	2015_May_04_1353	s	s	5	1	SIC	205	RC	2	0	02VD 02VO 09VC 02MD 02MO 02MC 02RD 02RO	1	0	1.69196891785	224.0	-31.0	228	-25	1
2.7	2015_May_04_1353	s	s	5	1	SIC	206	RC	0	2	02VD 02VO 02VC 02MD 02MO 02MC 09RD 02RO	0	1	3.30176997185	235.0	209.0	None	None	0
2.7	2015_May_04_1353	s	s	5	1	SIC	207	ABS	1	2	02VD 02VO 02VC 10MD 02MO 02MC 02RD 02RO	0	1	5.45783400536	None	None	None	None	1
2.7	2015_May_04_1353	s	s	5	1	SIC	208	ABS	2	0	02VD 02VO 10VC 02MD 02MO 02MC 02RD 02RO	0	1	3.88389110565	None	None	None	None	1
2.7	2015_May_04_1353	s	s	5	1	SIC	209	RC	2	2	09VD 02VO 02VC 02MD 02MO 02MC 02RD 02RO	1	0	1.83219504356	76.0	-127.0	76	-119	1
2.7	2015_May_04_1353	s	s	5	1	SIC	210	ABS	1	1	02VD 02VO 02VC 02MD 10MO 02MC 02RD 02RO	0	1	3.9189119339	None	None	None	None	1
2.7	2015_May_04_1353	s	s	5	1	SIC	211	RC	1	2	02VD 02VO 02VC 09MD 02MO 02MC 02RD 02RO	1	0	0.877335071564	88.0	153.0	84	149	1
2.7	2015_May_04_1353	s	s	5	1	SIC	212	RC	0	2	02VD 02VO 02VC 02MD 02MO 02MC 09RD 02RO	1	0	3.96606492996	16.0	-76.0	20	-72	1
2.7	2015_May_04_1353	s	s	5	1	SIC	213	RC	1	1	02VD 02VO 02VC 02MD 09MO 02MC 02RD 02RO	1	0	1.75320005417	342.0	-253.0	339	-244	1
2.7	2015_May_04_1353	s	s	5	1	SIC	214	ABS	0	2	02VD 02VO 02VC 02MD 02MO 02MC 10RD 02RO	0	1	2.42036604881	None	None	None	None	1
2.7	2015_May_04_1353	s	s	5	1	SIC	215	ABS	1	0	02VD 02VO 02VC 02MD 02MO 10MC 02RD 02RO	0	1	4.15150499344	None	None	None	None	1
2.7	2015_May_04_1353	s	s	5	1	SIC	216	ABS	0	1	02VD 02VO 02VC 02MD 02MO 02MC 02RD 10RO	0	1	5.82593297958	None	None	None	None	1
2.7	2015_May_04_1353	s	s	5	1	SIC	217	RC	0	1	02VD 02VO 02VC 02MD 02MO 02MC 02RD 09RO	1	0	3.51500916481	95.0	-197.0	94	-198	1
2.7	2015_May_04_1353	s	s	5	1	SIC	218	RC	1	0	02VD 02VO 02VC 02MD 02MO 09MC 02RD 02RO	1	0	2.1595621109	270.0	286.0	270	284	1
2.7	2015_May_04_1353	s	s	5	1	SIC	219	ABS	1	2	02VD 02VO 02VC 10MD 02MO 02MC 02RD 02RO	0	1	2.87974500656	None	None	None	None	1
2.7	2015_May_04_1353	s	s	5	1	SIC	220	RC	2	1	02VD 09VO 02VC 02MD 02MO 02MC 02RD 02RO	1	0	1.4305369854	-115.0	312.0	-113	315	1
2.7	2015_May_04_1353	s	s	5	1	SIC	221	ABS	2	0	02VD 02VO 10VC 02MD 02MO 02MC 02RD 02RO	1	0	2.36508917809	None	None	190	-18	0
2.7	2015_May_04_1353	s	s	5	1	SIC	222	RC	2	0	02VD 02VO 09VC 02MD 02MO 02MC 02RD 02RO	1	0	2.64524316788	-240.0	44.0	-233	39	1
2.7	2015_May_04_1353	s	s	5	1	SIC	223	ABS	2	1	02VD 10VO 02VC 02MD 02MO 02MC 02RD 02RO	0	1	3.34225606918	None	None	None	None	1
2.7	2015_May_04_1353	s	s	5	1	SIC	224	ABS	2	2	10VD 02VO 02VC 02MD 02MO 02MC 02RD 02RO	0	1	3.22058987617	None	None	None	None	1
2.7	2015_May_04_1353	s	s	5	1	SIC	225	RC	0	2	02VD 02VO 02VC 02MD 02MO 02MC 09RD 02RO	1	0	2.6924200058	-517.0	320.0	-518	316	1
2.7	2015_May_04_1353	s	s	5	1	SIC	226	RC	2	1	02VD 09VO 02VC 02MD 02MO 02MC 02RD 02RO	1	0	2.82428812981	406.0	307.0	408	305	1
2.7	2015_May_04_1353	s	s	5	1	SIC	227	ABS	1	0	02VD 02VO 02VC 02MD 02MO 10MC 02RD 02RO	0	1	4.2014939785	None	None	None	None	1
2.7	2015_May_04_1353	s	s	5	1	SIC	228	ABS	1	1	02VD 02VO 02VC 02MD 10MO 02MC 02RD 02RO	0	1	3.15392518044	None	None	None	None	1
2.7	2015_May_04_1353	s	s	5	1	SIC	229	RC	1	1	02VD 02VO 02VC 02MD 09MO 02MC 02RD 02RO	1	0	2.30027794838	347.0	163.0	358	163	1
2.7	2015_May_04_1353	s	s	5	1	SIC	230	ABS	2	1	02VD 10VO 02VC 02MD 02MO 02MC 02RD 02RO	0	1	2.77713799477	None	None	None	None	1
2.7	2015_May_04_1353	s	s	5	1	SIC	231	ABS	0	1	02VD 02VO 02VC 02MD 02MO 02MC 02RD 10RO	0	1	6.68011784554	None	None	None	None	1
2.7	2015_May_04_1353	s	s	5	1	SIC	232	RC	2	0	02VD 02VO 09VC 02MD 02MO 02MC 02RD 02RO	1	0	2.04426789284	420.0	-378.0	422	-377	1
2.7	2015_May_04_1353	s	s	5	1	SIC	233	ABS	1	2	02VD 02VO 02VC 10MD 02MO 02MC 02RD 02RO	0	1	3.17463302612	None	None	None	None	1
2.7	2015_May_04_1353	s	s	5	1	SIC	234	RC	2	2	09VD 02VO 02VC 02MD 02MO 02MC 02RD 02RO	1	0	1.59710693359	-418.0	-75.0	-418	-70	1
2.7	2015_May_04_1353	s	s	5	1	SIC	235	ABS	2	2	10VD 02VO 02VC 02MD 02MO 02MC 02RD 02RO	0	1	2.97733998299	None	None	None	None	1
2.7	2015_May_04_1353	s	s	5	1	SIC	236	RC	0	1	02VD 02VO 02VC 02MD 02MO 02MC 02RD 09RO	1	0	4.06939482689	525.0	-149.0	529	-145	1
2.7	2015_May_04_1353	s	s	5	1	SIC	237	RC	1	2	02VD 02VO 02VC 09MD 02MO 02MC 02RD 02RO	1	0	4.03670191765	-44.0	-154.0	-41	-150	1
2.7	2015_May_04_1353	s	s	5	1	SIC	238	ABS	0	2	02VD 02VO 02VC 02MD 02MO 02MC 10RD 02RO	0	1	4.22494292259	None	None	None	None	1
2.7	2015_May_04_1353	s	s	5	1	SIC	239	RC	1	0	02VD 02VO 02VC 02MD 02MO 09MC 02RD 02RO	1	0	2.59756493568	97.0	-225.0	101	-223	1
2.7	2015_May_04_1353	s	s	5	1	SIC	240	ABS	2	0	02VD 02VO 10VC 02MD 02MO 02MC 02RD 02RO	0	1	4.31918787956	None	None	None	None	1
2.7	2015_May_04_1353	s	s	5	1	SIC	241	RC	0	2	02VD 02VO 02VC 02MD 02MO 02MC 09RD 02RO	1	0	3.17312598228	378.0	89.0	376	91	1
2.7	2015_May_04_1353	s	s	5	1	SIC	242	ABS	1	2	02VD 02VO 02VC 10MD 02MO 02MC 02RD 02RO	0	1	2.89211201668	None	None	None	None	1
2.7	2015_May_04_1353	s	s	5	1	SIC	243	ABS	1	1	02VD 02VO 02VC 02MD 10MO 02MC 02RD 02RO	0	1	3.4951851368	None	None	None	None	1
2.7	2015_May_04_1353	s	s	5	1	SIC	244	ABS	2	1	02VD 10VO 02VC 02MD 02MO 02MC 02RD 02RO	0	1	2.8792719841	None	None	None	None	1
2.7	2015_May_04_1353	s	s	5	1	SIC	245	RC	0	1	02VD 02VO 02VC 02MD 02MO 02MC 02RD 09RO	1	0	1.27776288986	173.0	-105.0	177	-108	1
2.7	2015_May_04_1353	s	s	5	1	SIC	246	RC	1	2	02VD 02VO 02VC 09MD 02MO 02MC 02RD 02RO	1	0	1.52669095993	103.0	-289.0	101	-283	1
2.7	2015_May_04_1353	s	s	5	1	SIC	247	ABS	1	0	02VD 02VO 02VC 02MD 02MO 10MC 02RD 02RO	0	1	4.27802991867	None	None	None	None	1
2.7	2015_May_04_1353	s	s	5	1	SIC	248	RC	2	0	02VD 02VO 09VC 02MD 02MO 02MC 02RD 02RO	1	0	0.958878993988	248.0	-160.0	246	-161	1
2.7	2015_May_04_1353	s	s	5	1	SIC	249	RC	1	1	02VD 02VO 02VC 02MD 09MO 02MC 02RD 02RO	1	0	2.35352492332	-302.0	-359.0	-303	-359	1
2.7	2015_May_04_1353	s	s	5	1	SIC	250	ABS	0	2	02VD 02VO 02VC 02MD 02MO 02MC 10RD 02RO	0	1	3.02167606354	None	None	None	None	1
2.7	2015_May_04_1353	s	s	5	1	SIC	251	ABS	2	0	02VD 02VO 10VC 02MD 02MO 02MC 02RD 02RO	0	1	2.22420907021	None	None	None	None	1
2.7	2015_May_04_1353	s	s	5	1	SIC	252	RC	2	1	02VD 09VO 02VC 02MD 02MO 02MC 02RD 02RO	1	0	2.36527395248	419.0	-301.0	419	-297	1
2.7	2015_May_04_1353	s	s	5	1	SIC	253	RC	2	2	09VD 02VO 02VC 02MD 02MO 02MC 02RD 02RO	1	0	2.81921386719	182.0	-63.0	179	-68	1
2.7	2015_May_04_1353	s	s	5	1	SIC	254	ABS	0	1	02VD 02VO 02VC 02MD 02MO 02MC 02RD 10RO	0	1	3.72798490524	None	None	None	None	1
2.7	2015_May_04_1353	s	s	5	1	SIC	255	RC	1	0	02VD 02VO 02VC 02MD 02MO 09MC 02RD 02RO	1	0	2.73927283287	485.0	72.0	488	78	1
2.7	2015_May_04_1353	s	s	5	1	SIC	256	ABS	2	2	10VD 02VO 02VC 02MD 02MO 02MC 02RD 02RO	0	1	2.26856899261	None	None	None	None	1
2.7	2015_May_04_1353	s	s	5	1	SIC	257	ABS	1	2	02VD 02VO 02VC 10MD 02MO 02MC 02RD 02RO	0	1	2.99594688416	None	None	None	None	1
2.7	2015_May_04_1353	s	s	5	1	SIC	258	ABS	2	1	02VD 10VO 02VC 02MD 02MO 02MC 02RD 02RO	0	1	3.90724802017	None	None	None	None	1
2.7	2015_May_04_1353	s	s	5	1	SIC	259	RC	0	1	02VD 02VO 02VC 02MD 02MO 02MC 02RD 09RO	1	0	4.0339949131	39.0	-227.0	42	-227	1
2.7	2015_May_04_1353	s	s	5	1	SIC	260	ABS	0	2	02VD 02VO 02VC 02MD 02MO 02MC 10RD 02RO	0	1	3.84834289551	None	None	None	None	1
2.7	2015_May_04_1353	s	s	5	1	SIC	261	RC	2	0	02VD 02VO 09VC 02MD 02MO 02MC 02RD 02RO	1	0	1.85463881493	281.0	297.0	282	295	1
2.7	2015_May_04_1353	s	s	5	1	SIC	262	RC	2	2	09VD 02VO 02VC 02MD 02MO 02MC 02RD 02RO	1	0	1.95009493828	525.0	268.0	523	274	1
2.7	2015_May_04_1353	s	s	5	1	SIC	263	ABS	0	1	02VD 02VO 02VC 02MD 02MO 02MC 02RD 10RO	0	1	4.67223477364	None	None	None	None	1
2.7	2015_May_04_1353	s	s	5	1	SIC	264	RC	0	2	02VD 02VO 02VC 02MD 02MO 02MC 09RD 02RO	1	0	1.47758698463	41.0	-411.0	35	-409	1
2.7	2015_May_04_1353	s	s	5	1	SIC	265	ABS	1	0	02VD 02VO 02VC 02MD 02MO 10MC 02RD 02RO	0	1	4.37535715103	None	None	None	None	1
2.7	2015_May_04_1353	s	s	5	1	SIC	266	ABS	2	2	10VD 02VO 02VC 02MD 02MO 02MC 02RD 02RO	0	1	4.12818408012	None	None	None	None	1
2.7	2015_May_04_1353	s	s	5	1	SIC	267	RC	2	1	02VD 09VO 02VC 02MD 02MO 02MC 02RD 02RO	1	0	2.82116603851	-197.0	-208.0	-198	-207	1
2.7	2015_May_04_1353	s	s	5	1	SIC	268	ABS	1	1	02VD 02VO 02VC 02MD 10MO 02MC 02RD 02RO	0	1	3.16058206558	None	None	None	None	1
2.7	2015_May_04_1353	s	s	5	1	SIC	269	RC	1	1	02VD 02VO 02VC 02MD 09MO 02MC 02RD 02RO	1	0	1.89440703392	-513.0	73.0	-513	80	1
2.7	2015_May_04_1353	s	s	5	1	SIC	270	RC	1	2	02VD 02VO 02VC 09MD 02MO 02MC 02RD 02RO	1	0	1.33790016174	-31.0	171.0	-27	168	1
2.7	2015_May_04_1353	s	s	5	1	SIC	271	RC	1	0	02VD 02VO 02VC 02MD 02MO 09MC 02RD 02RO	1	0	3.15024399757	-370.0	-314.0	-364	-312	1
2.7	2015_May_04_1353	s	s	5	1	SIC	272	ABS	2	0	02VD 02VO 10VC 02MD 02MO 02MC 02RD 02RO	0	1	3.20936012268	None	None	None	None	1
2.7	2015_May_04_1353	s	s	5	1	SIC	273	ABS	1	0	02VD 02VO 02VC 02MD 02MO 10MC 02RD 02RO	0	1	4.70455002785	None	None	None	None	1
2.7	2015_May_04_1353	s	s	5	1	SIC	274	ABS	0	1	02VD 02VO 02VC 02MD 02MO 02MC 02RD 10RO	0	1	4.58422708511	None	None	None	None	1
2.7	2015_May_04_1353	s	s	5	1	SIC	275	RC	1	2	02VD 02VO 02VC 09MD 02MO 02MC 02RD 02RO	1	0	2.53912305832	-81.0	-93.0	-75	-94	1
2.7	2015_May_04_1353	s	s	5	1	SIC	276	RC	1	1	02VD 02VO 02VC 02MD 09MO 02MC 02RD 02RO	1	0	1.47761011124	177.0	236.0	181	240	1
2.7	2015_May_04_1353	s	s	5	1	SIC	277	RC	1	0	02VD 02VO 02VC 02MD 02MO 09MC 02RD 02RO	1	0	2.90665006638	79.0	-342.0	84	-339	1
2.7	2015_May_04_1353	s	s	5	1	SIC	278	RC	2	0	02VD 02VO 09VC 02MD 02MO 02MC 02RD 02RO	1	0	2.30373001099	410.0	344.0	405	350	1
2.7	2015_May_04_1353	s	s	5	1	SIC	279	ABS	2	2	10VD 02VO 02VC 02MD 02MO 02MC 02RD 02RO	0	1	2.93474912643	None	None	None	None	1
2.7	2015_May_04_1353	s	s	5	1	SIC	280	ABS	1	2	02VD 02VO 02VC 10MD 02MO 02MC 02RD 02RO	0	1	2.55359482765	None	None	None	None	1
2.7	2015_May_04_1353	s	s	5	1	SIC	281	ABS	2	1	02VD 10VO 02VC 02MD 02MO 02MC 02RD 02RO	0	1	3.10679101944	None	None	None	None	1
2.7	2015_May_04_1353	s	s	5	1	SIC	282	RC	2	2	09VD 02VO 02VC 02MD 02MO 02MC 02RD 02RO	1	0	2.65951919556	-322.0	-81.0	-318	-84	1
2.7	2015_May_04_1353	s	s	5	1	SIC	283	RC	0	2	02VD 02VO 02VC 02MD 02MO 02MC 09RD 02RO	1	0	2.26735687256	478.0	-268.0	472	-271	1
2.7	2015_May_04_1353	s	s	5	1	SIC	284	ABS	0	2	02VD 02VO 02VC 02MD 02MO 02MC 10RD 02RO	0	1	4.43241405487	None	None	None	None	1
2.7	2015_May_04_1353	s	s	5	1	SIC	285	ABS	1	1	02VD 02VO 02VC 02MD 10MO 02MC 02RD 02RO	0	1	4.42525792122	None	None	None	None	1
2.7	2015_May_04_1353	s	s	5	1	SIC	286	RC	2	1	02VD 09VO 02VC 02MD 02MO 02MC 02RD 02RO	1	0	1.81895709038	-270.0	-181.0	-268	-180	1
2.7	2015_May_04_1353	s	s	5	1	SIC	287	RC	0	1	02VD 02VO 02VC 02MD 02MO 02MC 02RD 09RO	1	0	1.98210406303	-290.0	-175.0	-289	-176	1
2.7	2015_May_04_1353	s	s	5	1	SIC	288	ABS	2	0	02VD 02VO 10VC 02MD 02MO 02MC 02RD 02RO	0	1	2.64261507988	None	None	None	None	1
2.7	2015_May_04_1353	s	s	5	1	SIC	289	ABS	0	2	02VD 02VO 02VC 02MD 02MO 02MC 10RD 02RO	0	1	3.67828512192	None	None	None	None	1
2.7	2015_May_04_1353	s	s	5	1	SIC	290	RC	0	1	02VD 02VO 02VC 02MD 02MO 02MC 02RD 09RO	1	0	2.76169204712	239.0	-305.0	240	-301	1
2.7	2015_May_04_1353	s	s	5	1	SIC	291	ABS	2	1	02VD 10VO 02VC 02MD 02MO 02MC 02RD 02RO	1	0	3.47173118591	None	None	-15	37	0
2.7	2015_May_04_1353	s	s	5	1	SIC	292	ABS	1	2	02VD 02VO 02VC 10MD 02MO 02MC 02RD 02RO	0	1	3.31371092796	None	None	None	None	1
2.7	2015_May_04_1353	s	s	5	1	SIC	293	RC	1	1	02VD 02VO 02VC 02MD 09MO 02MC 02RD 02RO	1	0	2.43045902252	500.0	-337.0	501	-340	1
2.7	2015_May_04_1353	s	s	5	1	SIC	294	ABS	2	0	02VD 02VO 10VC 02MD 02MO 02MC 02RD 02RO	0	1	2.26590108871	None	None	None	None	1
2.7	2015_May_04_1353	s	s	5	1	SIC	295	ABS	2	2	10VD 02VO 02VC 02MD 02MO 02MC 02RD 02RO	0	1	2.78913211823	None	None	None	None	1
2.7	2015_May_04_1353	s	s	5	1	SIC	296	RC	2	1	02VD 09VO 02VC 02MD 02MO 02MC 02RD 02RO	1	0	1.64721393585	-128.0	-251.0	-130	-254	1
2.7	2015_May_04_1353	s	s	5	1	SIC	297	RC	0	2	02VD 02VO 02VC 02MD 02MO 02MC 09RD 02RO	1	0	1.87082695961	-524.0	306.0	-523	306	1
2.7	2015_May_04_1353	s	s	5	1	SIC	298	RC	1	0	02VD 02VO 02VC 02MD 02MO 09MC 02RD 02RO	1	0	3.26902198792	352.0	-238.0	352	-235	1
2.7	2015_May_04_1353	s	s	5	1	SIC	299	RC	2	2	09VD 02VO 02VC 02MD 02MO 02MC 02RD 02RO	1	0	2.3417031765	-192.0	369.0	-191	372	1
2.7	2015_May_04_1353	s	s	5	1	SIC	300	RC	2	0	02VD 02VO 09VC 02MD 02MO 02MC 02RD 02RO	1	0	1.08220100403	101.0	295.0	107	298	1
2.7	2015_May_04_1353	s	s	5	1	SIC	301	ABS	0	1	02VD 02VO 02VC 02MD 02MO 02MC 02RD 10RO	0	1	4.25759077072	None	None	None	None	1
2.7	2015_May_04_1353	s	s	5	1	SIC	302	ABS	1	1	02VD 02VO 02VC 02MD 10MO 02MC 02RD 02RO	0	1	3.524933815	None	None	None	None	1
2.7	2015_May_04_1353	s	s	5	1	SIC	303	ABS	1	0	02VD 02VO 02VC 02MD 02MO 10MC 02RD 02RO	0	1	3.53694581985	None	None	None	None	1
2.7	2015_May_04_1353	s	s	5	1	SIC	304	RC	1	2	02VD 02VO 02VC 09MD 02MO 02MC 02RD 02RO	1	0	0.982515096664	-111.0	186.0	-111	190	1
2.7	2015_May_04_1353	s	s	5	1	SIC	305	RC	1	0	02VD 02VO 02VC 02MD 02MO 09MC 02RD 02RO	1	0	1.58588600159	-449.0	168.0	-445	171	1
2.7	2015_May_04_1353	s	s	5	1	SIC	306	ABS	0	1	02VD 02VO 02VC 02MD 02MO 02MC 02RD 10RO	0	1	4.0794198513	None	None	None	None	1
2.7	2015_May_04_1353	s	s	5	1	SIC	307	ABS	1	1	02VD 02VO 02VC 02MD 10MO 02MC 02RD 02RO	0	1	4.33774709702	None	None	None	None	1
2.7	2015_May_04_1353	s	s	5	1	SIC	308	ABS	1	2	02VD 02VO 02VC 10MD 02MO 02MC 02RD 02RO	0	1	2.48305416107	None	None	None	None	1
2.7	2015_May_04_1353	s	s	5	1	SIC	309	RC	0	2	02VD 02VO 02VC 02MD 02MO 02MC 09RD 02RO	1	0	2.34170603752	-412.0	-269.0	-412	-279	1
2.7	2015_May_04_1353	s	s	5	1	SIC	310	RC	1	1	02VD 02VO 02VC 02MD 09MO 02MC 02RD 02RO	1	0	2.16101193428	-224.0	393.0	-222	395	1
2.7	2015_May_04_1353	s	s	5	1	SIC	311	RC	1	2	02VD 02VO 02VC 09MD 02MO 02MC 02RD 02RO	1	0	1.92973208427	-495.0	-15.0	-500	-15	1
2.7	2015_May_04_1353	s	s	5	1	SIC	312	ABS	2	1	02VD 10VO 02VC 02MD 02MO 02MC 02RD 02RO	0	1	3.82479000092	None	None	None	None	1
2.7	2015_May_04_1353	s	s	5	1	SIC	313	ABS	1	0	02VD 02VO 02VC 02MD 02MO 10MC 02RD 02RO	0	1	3.11628222466	None	None	None	None	1
2.7	2015_May_04_1353	s	s	5	1	SIC	314	ABS	2	0	02VD 02VO 10VC 02MD 02MO 02MC 02RD 02RO	0	1	2.86766409874	None	None	None	None	1
2.7	2015_May_04_1353	s	s	5	1	SIC	315	ABS	0	2	02VD 02VO 02VC 02MD 02MO 02MC 10RD 02RO	0	1	3.60729289055	None	None	None	None	1
2.7	2015_May_04_1353	s	s	5	1	SIC	316	ABS	2	2	10VD 02VO 02VC 02MD 02MO 02MC 02RD 02RO	0	1	3.00131988525	None	None	None	None	1
2.7	2015_May_04_1353	s	s	5	1	SIC	317	RC	2	0	02VD 02VO 09VC 02MD 02MO 02MC 02RD 02RO	1	0	4.51925587654	76.0	320.0	78	322	1
2.7	2015_May_04_1353	s	s	5	1	SIC	318	RC	2	2	09VD 02VO 02VC 02MD 02MO 02MC 02RD 02RO	1	0	1.95946383476	22.0	18.0	20	19	1
2.7	2015_May_04_1353	s	s	5	1	SIC	319	RC	2	1	02VD 09VO 02VC 02MD 02MO 02MC 02RD 02RO	1	0	6.43839001656	-510.0	175.0	-511	173	1
2.7	2015_May_04_1353	s	s	5	1	SIC	320	RC	0	1	02VD 02VO 02VC 02MD 02MO 02MC 02RD 09RO	1	0	4.2248339653	-529.0	-374.0	-533	-385	1
2.7	2015_May_04_1353	s	s	5	1	SIC	321	ABS	1	2	02VD 02VO 02VC 10MD 02MO 02MC 02RD 02RO	0	1	4.64569783211	None	None	None	None	1
2.7	2015_May_04_1353	s	s	5	1	SIC	322	ABS	1	1	02VD 02VO 02VC 02MD 10MO 02MC 02RD 02RO	0	1	4.83372616768	None	None	None	None	1
2.7	2015_May_04_1353	s	s	5	1	SIC	323	ABS	2	0	02VD 02VO 10VC 02MD 02MO 02MC 02RD 02RO	0	1	3.55414485931	None	None	None	None	1
2.7	2015_May_04_1353	s	s	5	1	SIC	324	RC	1	1	02VD 02VO 02VC 02MD 09MO 02MC 02RD 02RO	1	0	2.97784209251	178.0	-402.0	171	-402	1
2.7	2015_May_04_1353	s	s	5	1	SIC	325	ABS	1	0	02VD 02VO 02VC 02MD 02MO 10MC 02RD 02RO	0	1	3.24802207947	None	None	None	None	1
2.7	2015_May_04_1353	s	s	5	1	SIC	326	RC	2	0	02VD 02VO 09VC 02MD 02MO 02MC 02RD 02RO	1	0	1.55295610428	-118.0	-50.0	-119	-50	1
2.7	2015_May_04_1353	s	s	5	1	SIC	327	RC	1	2	02VD 02VO 02VC 09MD 02MO 02MC 02RD 02RO	1	0	1.1528711319	-232.0	32.0	-229	36	1
2.7	2015_May_04_1353	s	s	5	1	SIC	328	ABS	2	2	10VD 02VO 02VC 02MD 02MO 02MC 02RD 02RO	0	1	2.34169387817	None	None	None	None	1
2.7	2015_May_04_1353	s	s	5	1	SIC	329	ABS	0	2	02VD 02VO 02VC 02MD 02MO 02MC 10RD 02RO	0	1	4.20793795586	None	None	None	None	1
2.7	2015_May_04_1353	s	s	5	1	SIC	330	ABS	0	1	02VD 02VO 02VC 02MD 02MO 02MC 02RD 10RO	0	1	3.77490091324	None	None	None	None	1
2.7	2015_May_04_1353	s	s	5	1	SIC	331	RC	0	1	02VD 02VO 02VC 02MD 02MO 02MC 02RD 09RO	1	0	2.85946917534	148.0	-371.0	153	-364	1
2.7	2015_May_04_1353	s	s	5	1	SIC	332	RC	0	2	02VD 02VO 02VC 02MD 02MO 02MC 09RD 02RO	1	0	2.14973497391	-325.0	379.0	-320	381	1
2.7	2015_May_04_1353	s	s	5	1	SIC	333	RC	2	1	02VD 09VO 02VC 02MD 02MO 02MC 02RD 02RO	1	0	1.80075502396	-508.0	181.0	-513	177	1
2.7	2015_May_04_1353	s	s	5	1	SIC	334	ABS	2	1	02VD 10VO 02VC 02MD 02MO 02MC 02RD 02RO	0	1	3.12559890747	None	None	None	None	1
2.7	2015_May_04_1353	s	s	5	1	SIC	335	RC	1	0	02VD 02VO 02VC 02MD 02MO 09MC 02RD 02RO	1	0	2.46545696259	-77.0	347.0	-82	350	1
2.7	2015_May_04_1353	s	s	5	1	SIC	336	RC	2	2	09VD 02VO 02VC 02MD 02MO 02MC 02RD 02RO	1	0	1.57665395737	247.0	133.0	254	136	1
2.7	2015_May_04_1353	s	s	5	1	SIC	337	RC	0	1	02VD 02VO 02VC 02MD 02MO 02MC 02RD 09RO	1	0	1.28220891953	-81.0	125.0	-85	115	1
2.7	2015_May_04_1353	s	s	5	1	SIC	338	ABS	1	1	02VD 02VO 02VC 02MD 10MO 02MC 02RD 02RO	0	1	4.54290795326	None	None	None	None	1
2.7	2015_May_04_1353	s	s	5	1	SIC	339	RC	1	0	02VD 02VO 02VC 02MD 02MO 09MC 02RD 02RO	1	0	3.39833903313	-5.0	-116.0	-1	-115	1
2.7	2015_May_04_1353	s	s	5	1	SIC	340	ABS	0	1	02VD 02VO 02VC 02MD 02MO 02MC 02RD 10RO	0	1	5.42563390732	None	None	None	None	1
2.7	2015_May_04_1353	s	s	5	1	SIC	341	RC	1	1	02VD 02VO 02VC 02MD 09MO 02MC 02RD 02RO	1	0	2.02405500412	-367.0	136.0	-372	127	1
2.7	2015_May_04_1353	s	s	5	1	SIC	342	ABS	1	0	02VD 02VO 02VC 02MD 02MO 10MC 02RD 02RO	0	1	3.47163295746	None	None	None	None	1
2.7	2015_May_04_1353	s	s	5	1	SIC	343	RC	2	1	02VD 09VO 02VC 02MD 02MO 02MC 02RD 02RO	1	0	2.51531004906	-194.0	122.0	-188	125	1
2.7	2015_May_04_1353	s	s	5	1	SIC	344	ABS	2	0	02VD 02VO 10VC 02MD 02MO 02MC 02RD 02RO	0	1	3.00088906288	None	None	None	None	1
2.7	2015_May_04_1353	s	s	5	1	SIC	345	RC	2	2	09VD 02VO 02VC 02MD 02MO 02MC 02RD 02RO	1	0	2.33502006531	496.0	183.0	505	179	1
2.7	2015_May_04_1353	s	s	5	1	SIC	346	RC	0	2	02VD 02VO 02VC 02MD 02MO 02MC 09RD 02RO	1	0	1.29075288773	174.0	329.0	173	328	1
2.7	2015_May_04_1353	s	s	5	1	SIC	347	RC	2	0	02VD 02VO 09VC 02MD 02MO 02MC 02RD 02RO	1	0	0.988106012344	225.0	117.0	218	116	1
2.7	2015_May_04_1353	s	s	5	1	SIC	348	ABS	1	2	02VD 02VO 02VC 10MD 02MO 02MC 02RD 02RO	0	1	2.20907306671	None	None	None	None	1
2.7	2015_May_04_1353	s	s	5	1	SIC	349	ABS	0	2	02VD 02VO 02VC 02MD 02MO 02MC 10RD 02RO	0	1	3.35447096825	None	None	None	None	1
2.7	2015_May_04_1353	s	s	5	1	SIC	350	ABS	2	1	02VD 10VO 02VC 02MD 02MO 02MC 02RD 02RO	0	1	2.53003406525	None	None	None	None	1
2.7	2015_May_04_1353	s	s	5	1	SIC	351	ABS	2	2	10VD 02VO 02VC 02MD 02MO 02MC 02RD 02RO	0	1	3.35397195816	None	None	None	None	1
2.7	2015_May_04_1353	s	s	5	1	SIC	352	RC	1	2	02VD 02VO 02VC 09MD 02MO 02MC 02RD 02RO	1	0	2.22177410126	-174.0	207.0	-173	211	1
2.7	2015_May_04_1353	s	s	5	1	SIC	353	RC	2	2	09VD 02VO 02VC 02MD 02MO 02MC 02RD 02RO	1	0	1.91796803474	389.0	189.0	391	190	1
2.7	2015_May_04_1353	s	s	5	1	SIC	354	RC	1	2	02VD 02VO 02VC 09MD 02MO 02MC 02RD 02RO	1	0	1.92452597618	-481.0	102.0	-481	103	1
2.7	2015_May_04_1353	s	s	5	1	SIC	355	RC	0	1	02VD 02VO 02VC 02MD 02MO 02MC 02RD 09RO	1	0	1.07946801186	-113.0	308.0	-110	307	1
2.7	2015_May_04_1353	s	s	5	1	SIC	356	RC	1	1	02VD 02VO 02VC 02MD 09MO 02MC 02RD 02RO	0	1	2.52767086029	-37.0	78.0	None	None	0
2.7	2015_May_04_1353	s	s	5	1	SIC	357	RC	1	0	02VD 02VO 02VC 02MD 02MO 09MC 02RD 02RO	1	0	2.75330495834	502.0	33.0	493	34	1
2.7	2015_May_04_1353	s	s	5	1	SIC	358	RC	2	1	02VD 09VO 02VC 02MD 02MO 02MC 02RD 02RO	1	0	2.81992793083	-390.0	-326.0	-389	-329	1
2.7	2015_May_04_1353	s	s	5	1	SIC	359	ABS	1	1	02VD 02VO 02VC 02MD 10MO 02MC 02RD 02RO	0	1	3.62231588364	None	None	None	None	1
2.7	2015_May_04_1353	s	s	5	1	SIC	360	ABS	0	2	02VD 02VO 02VC 02MD 02MO 02MC 10RD 02RO	0	1	2.78489995003	None	None	None	None	1
2.7	2015_May_04_1353	s	s	5	1	SIC	361	ABS	0	1	02VD 02VO 02VC 02MD 02MO 02MC 02RD 10RO	0	1	4.51918196678	None	None	None	None	1
2.7	2015_May_04_1353	s	s	5	1	SIC	362	ABS	2	1	02VD 10VO 02VC 02MD 02MO 02MC 02RD 02RO	0	1	2.78901791573	None	None	None	None	1
2.7	2015_May_04_1353	s	s	5	1	SIC	363	RC	2	0	02VD 02VO 09VC 02MD 02MO 02MC 02RD 02RO	1	0	2.23135900497	-164.0	-241.0	-165	-249	1
2.7	2015_May_04_1353	s	s	5	1	SIC	364	ABS	2	2	10VD 02VO 02VC 02MD 02MO 02MC 02RD 02RO	0	1	1.60921382904	None	None	None	None	1
2.7	2015_May_04_1353	s	s	5	1	SIC	365	ABS	1	0	02VD 02VO 02VC 02MD 02MO 10MC 02RD 02RO	0	1	2.94196891785	None	None	None	None	1
2.7	2015_May_04_1353	s	s	5	1	SIC	366	ABS	2	0	02VD 02VO 10VC 02MD 02MO 02MC 02RD 02RO	0	1	2.80716109276	None	None	None	None	1
2.7	2015_May_04_1353	s	s	5	1	SIC	367	RC	0	2	02VD 02VO 02VC 02MD 02MO 02MC 09RD 02RO	1	0	2.84787297249	-42.0	-393.0	-36	-397	1
2.7	2015_May_04_1353	s	s	5	1	SIC	368	ABS	1	2	02VD 02VO 02VC 10MD 02MO 02MC 02RD 02RO	0	1	3.00077104568	None	None	None	None	1
2.7	2015_May_04_1353	s	s	5	1	SIC	369	RC	0	1	02VD 02VO 02VC 02MD 02MO 02MC 02RD 09RO	1	0	3.15390515327	346.0	40.0	343	46	1
2.7	2015_May_04_1353	s	s	5	1	SIC	370	RC	1	1	02VD 02VO 02VC 02MD 09MO 02MC 02RD 02RO	1	0	1.85889101028	-20.0	-206.0	-13	-210	1
2.7	2015_May_04_1353	s	s	5	1	SIC	371	RC	2	2	09VD 02VO 02VC 02MD 02MO 02MC 02RD 02RO	1	0	1.85501003265	476.0	161.0	478	165	1
2.7	2015_May_04_1353	s	s	5	1	SIC	372	RC	2	1	02VD 09VO 02VC 02MD 02MO 02MC 02RD 02RO	1	0	1.5884540081	487.0	-316.0	494	-315	1
2.7	2015_May_04_1353	s	s	5	1	SIC	373	RC	1	2	02VD 02VO 02VC 09MD 02MO 02MC 02RD 02RO	1	0	2.08288002014	308.0	334.0	310	341	1
2.7	2015_May_04_1353	s	s	5	1	SIC	374	RC	0	2	02VD 02VO 02VC 02MD 02MO 02MC 09RD 02RO	1	0	1.70608997345	-191.0	357.0	-186	355	1
2.7	2015_May_04_1353	s	s	5	1	SIC	375	RC	1	0	02VD 02VO 02VC 02MD 02MO 09MC 02RD 02RO	1	0	2.71846294403	294.0	-376.0	301	-377	1
2.7	2015_May_04_1353	s	s	5	1	SIC	376	ABS	1	0	02VD 02VO 02VC 02MD 02MO 10MC 02RD 02RO	0	1	4.01954603195	None	None	None	None	1
2.7	2015_May_04_1353	s	s	5	1	SIC	377	ABS	1	2	02VD 02VO 02VC 10MD 02MO 02MC 02RD 02RO	0	1	2.7065551281	None	None	None	None	1
2.7	2015_May_04_1353	s	s	5	1	SIC	378	ABS	0	1	02VD 02VO 02VC 02MD 02MO 02MC 02RD 10RO	0	1	3.20929312706	None	None	None	None	1
2.7	2015_May_04_1353	s	s	5	1	SIC	379	ABS	0	2	02VD 02VO 02VC 02MD 02MO 02MC 10RD 02RO	0	1	3.22448086739	None	None	None	None	1
2.7	2015_May_04_1353	s	s	5	1	SIC	380	ABS	1	1	02VD 02VO 02VC 02MD 10MO 02MC 02RD 02RO	0	1	3.23362493515	None	None	None	None	1
2.7	2015_May_04_1353	s	s	5	1	SIC	381	ABS	2	2	10VD 02VO 02VC 02MD 02MO 02MC 02RD 02RO	0	1	1.91188001633	None	None	None	None	1
2.7	2015_May_04_1353	s	s	5	1	SIC	382	ABS	2	1	02VD 10VO 02VC 02MD 02MO 02MC 02RD 02RO	0	1	2.15330219269	None	None	None	None	1
2.7	2015_May_04_1353	s	s	5	1	SIC	383	ABS	2	0	02VD 02VO 10VC 02MD 02MO 02MC 02RD 02RO	0	1	2.48842096329	None	None	None	None	1
2.7	2015_May_04_1353	s	s	5	1	SIC	384	RC	2	0	02VD 02VO 09VC 02MD 02MO 02MC 02RD 02RO	1	0	1.71437692642	273.0	-32.0	285	-27	1
2.7	2015_May_04_1353	s	s	5	1	SIC	385	ABS	2	0	02VD 02VO 10VC 02MD 02MO 02MC 02RD 02RO	0	1	3.85297393799	None	None	None	None	1
2.7	2015_May_04_1353	s	s	5	1	SIC	386	RC	2	0	02VD 02VO 09VC 02MD 02MO 02MC 02RD 02RO	1	0	2.26320290565	-382.0	302.0	-381	299	1
2.7	2015_May_04_1353	s	s	5	1	SIC	387	ABS	1	2	02VD 02VO 02VC 10MD 02MO 02MC 02RD 02RO	0	1	1.88263297081	None	None	None	None	1
2.7	2015_May_04_1353	s	s	5	1	SIC	388	ABS	0	2	02VD 02VO 02VC 02MD 02MO 02MC 10RD 02RO	0	1	1.85909509659	None	None	None	None	1
2.7	2015_May_04_1353	s	s	5	1	SIC	389	ABS	2	2	10VD 02VO 02VC 02MD 02MO 02MC 02RD 02RO	0	1	1.83555293083	None	None	None	None	1
2.7	2015_May_04_1353	s	s	5	1	SIC	390	ABS	0	1	02VD 02VO 02VC 02MD 02MO 02MC 02RD 10RO	0	1	3.70196986198	None	None	None	None	1
2.7	2015_May_04_1353	s	s	5	1	SIC	391	ABS	1	0	02VD 02VO 02VC 02MD 02MO 10MC 02RD 02RO	0	1	6.621270895	None	None	None	None	1
2.7	2015_May_04_1353	s	s	5	1	SIC	392	ABS	1	1	02VD 02VO 02VC 02MD 10MO 02MC 02RD 02RO	0	1	3.69529390335	None	None	None	None	1
2.7	2015_May_04_1353	s	s	5	1	SIC	393	RC	2	1	02VD 09VO 02VC 02MD 02MO 02MC 02RD 02RO	1	0	2.45654392242	-53.0	-341.0	-47	-337	1
2.7	2015_May_04_1353	s	s	5	1	SIC	394	RC	1	2	02VD 02VO 02VC 09MD 02MO 02MC 02RD 02RO	1	0	2.86676383018	216.0	-281.0	214	-290	1
2.7	2015_May_04_1353	s	s	5	1	SIC	395	RC	1	1	02VD 02VO 02VC 02MD 09MO 02MC 02RD 02RO	1	0	1.41177487373	101.0	-20.0	100	-24	1
2.7	2015_May_04_1353	s	s	5	1	SIC	396	ABS	2	1	02VD 10VO 02VC 02MD 02MO 02MC 02RD 02RO	0	1	3.36987996101	None	None	None	None	1
2.7	2015_May_04_1353	s	s	5	1	SIC	397	RC	0	1	02VD 02VO 02VC 02MD 02MO 02MC 02RD 09RO	1	0	2.39796090126	4.0	-116.0	2	-114	1
2.7	2015_May_04_1353	s	s	5	1	SIC	398	RC	2	2	09VD 02VO 02VC 02MD 02MO 02MC 02RD 02RO	1	0	2.31560301781	-435.0	68.0	-427	64	1
2.7	2015_May_04_1353	s	s	5	1	SIC	399	RC	1	0	02VD 02VO 02VC 02MD 02MO 09MC 02RD 02RO	1	0	3.8220140934	279.0	-156.0	277	-162	1
2.7	2015_May_04_1353	s	s	5	1	SIC	400	RC	0	2	02VD 02VO 02VC 02MD 02MO 02MC 09RD 02RO	1	0	1.49407100677	-64.0	-287.0	-59	-290	1
2.7	2015_May_04_1353	s	s	5	1	SIC	401	ABS	1	1	02VD 02VO 02VC 02MD 10MO 02MC 02RD 02RO	0	1	5.60872006416	None	None	None	None	1
2.7	2015_May_04_1353	s	s	5	1	SIC	402	RC	1	0	02VD 02VO 02VC 02MD 02MO 09MC 02RD 02RO	1	0	1.25620317459	201.0	222.0	198	218	1
2.7	2015_May_04_1353	s	s	5	1	SIC	403	RC	0	2	02VD 02VO 02VC 02MD 02MO 02MC 09RD 02RO	1	0	1.80761313438	31.0	173.0	37	174	1
2.7	2015_May_04_1353	s	s	5	1	SIC	404	RC	0	1	02VD 02VO 02VC 02MD 02MO 02MC 02RD 09RO	1	0	2.03295493126	28.0	-378.0	38	-372	1
2.7	2015_May_04_1353	s	s	5	1	SIC	405	RC	2	0	02VD 02VO 09VC 02MD 02MO 02MC 02RD 02RO	1	0	2.30160880089	-386.0	384.0	-376	383	1
2.7	2015_May_04_1353	s	s	5	1	SIC	406	ABS	1	2	02VD 02VO 02VC 10MD 02MO 02MC 02RD 02RO	0	1	3.58506798744	None	None	None	None	1
2.7	2015_May_04_1353	s	s	5	1	SIC	407	RC	2	1	02VD 09VO 02VC 02MD 02MO 02MC 02RD 02RO	1	0	1.56223487854	-540.0	55.0	-540	58	1
2.7	2015_May_04_1353	s	s	5	1	SIC	408	ABS	2	1	02VD 10VO 02VC 02MD 02MO 02MC 02RD 02RO	0	1	2.88318490982	None	None	None	None	1
2.7	2015_May_04_1353	s	s	5	1	SIC	409	ABS	1	0	02VD 02VO 02VC 02MD 02MO 10MC 02RD 02RO	0	1	7.09389710426	None	None	None	None	1
2.7	2015_May_04_1353	s	s	5	1	SIC	410	ABS	2	0	02VD 02VO 10VC 02MD 02MO 02MC 02RD 02RO	0	1	2.72735404968	None	None	None	None	1
2.7	2015_May_04_1353	s	s	5	1	SIC	411	RC	1	2	02VD 02VO 02VC 09MD 02MO 02MC 02RD 02RO	1	0	2.42430996895	-344.0	55.0	-338	52	1
2.7	2015_May_04_1353	s	s	5	1	SIC	412	RC	1	1	02VD 02VO 02VC 02MD 09MO 02MC 02RD 02RO	1	0	2.18607592583	520.0	86.0	524	89	1
2.7	2015_May_04_1353	s	s	5	1	SIC	413	RC	2	2	09VD 02VO 02VC 02MD 02MO 02MC 02RD 02RO	1	0	1.33571600914	230.0	371.0	231	370	1
2.7	2015_May_04_1353	s	s	5	1	SIC	414	ABS	2	2	10VD 02VO 02VC 02MD 02MO 02MC 02RD 02RO	0	1	3.34966111183	None	None	None	None	1
2.7	2015_May_04_1353	s	s	5	1	SIC	415	ABS	0	1	02VD 02VO 02VC 02MD 02MO 02MC 02RD 10RO	0	1	3.79863595963	None	None	None	None	1
2.7	2015_May_04_1353	s	s	5	1	SIC	416	ABS	0	2	02VD 02VO 02VC 02MD 02MO 02MC 10RD 02RO	0	1	2.796022892	None	None	None	None	1
2.7	2015_May_04_1353	s	s	5	1	SIC	417	RC	1	2	02VD 02VO 02VC 09MD 02MO 02MC 02RD 02RO	1	0	2.96558117867	45.0	-305.0	45	-311	1
2.7	2015_May_04_1353	s	s	5	1	SIC	418	RC	2	1	02VD 09VO 02VC 02MD 02MO 02MC 02RD 02RO	1	0	2.48001098633	-427.0	-219.0	-431	-230	1
2.7	2015_May_04_1353	s	s	5	1	SIC	419	ABS	1	0	02VD 02VO 02VC 02MD 02MO 10MC 02RD 02RO	0	1	3.86634087563	None	None	None	None	1
2.7	2015_May_04_1353	s	s	5	1	SIC	420	ABS	0	2	02VD 02VO 02VC 02MD 02MO 02MC 10RD 02RO	0	1	2.14822220802	None	None	None	None	1
2.7	2015_May_04_1353	s	s	5	1	SIC	421	ABS	2	1	02VD 10VO 02VC 02MD 02MO 02MC 02RD 02RO	0	1	2.08280301094	None	None	None	None	1
2.7	2015_May_04_1353	s	s	5	1	SIC	422	RC	1	1	02VD 02VO 02VC 02MD 09MO 02MC 02RD 02RO	1	0	1.49119210243	-522.0	-62.0	-514	-66	1
2.7	2015_May_04_1353	s	s	5	1	SIC	423	RC	1	0	02VD 02VO 02VC 02MD 02MO 09MC 02RD 02RO	1	0	1.9852449894	-108.0	-259.0	-100	-254	1
2.7	2015_May_04_1353	s	s	5	1	SIC	424	RC	2	2	09VD 02VO 02VC 02MD 02MO 02MC 02RD 02RO	1	0	2.20036292076	-174.0	55.0	-169	55	1
2.7	2015_May_04_1353	s	s	5	1	SIC	425	ABS	1	2	02VD 02VO 02VC 10MD 02MO 02MC 02RD 02RO	0	1	2.55359101295	None	None	None	None	1
2.7	2015_May_04_1353	s	s	5	1	SIC	426	ABS	2	0	02VD 02VO 10VC 02MD 02MO 02MC 02RD 02RO	0	1	2.11537694931	None	None	None	None	1
2.7	2015_May_04_1353	s	s	5	1	SIC	427	ABS	2	2	10VD 02VO 02VC 02MD 02MO 02MC 02RD 02RO	0	1	2.66617107391	None	None	None	None	1
2.7	2015_May_04_1353	s	s	5	1	SIC	428	RC	0	2	02VD 02VO 02VC 02MD 02MO 02MC 09RD 02RO	1	0	2.09902906418	156.0	-278.0	157	-279	1
2.7	2015_May_04_1353	s	s	5	1	SIC	429	RC	0	1	02VD 02VO 02VC 02MD 02MO 02MC 02RD 09RO	1	0	2.82019305229	16.0	-165.0	21	-160	1
2.7	2015_May_04_1353	s	s	5	1	SIC	430	ABS	1	1	02VD 02VO 02VC 02MD 10MO 02MC 02RD 02RO	0	1	4.49571490288	None	None	None	None	1
2.7	2015_May_04_1353	s	s	5	1	SIC	431	ABS	0	1	02VD 02VO 02VC 02MD 02MO 02MC 02RD 10RO	0	1	3.92822599411	None	None	None	None	1
2.7	2015_May_04_1353	s	s	5	1	SIC	432	RC	2	0	02VD 02VO 09VC 02MD 02MO 02MC 02RD 02RO	1	0	1.25881195068	34.0	70.0	44	69	1
2.7	2015_May_04_1353	s	s	5	1	SIC	433	ABS	1	1	02VD 02VO 02VC 02MD 10MO 02MC 02RD 02RO	0	1	3.39599895477	None	None	None	None	1
2.7	2015_May_04_1353	s	s	5	1	SIC	434	ABS	1	0	02VD 02VO 02VC 02MD 02MO 10MC 02RD 02RO	0	1	3.58936882019	None	None	None	None	1
2.7	2015_May_04_1353	s	s	5	1	SIC	435	RC	0	2	02VD 02VO 02VC 02MD 02MO 02MC 09RD 02RO	1	0	1.96206688881	-526.0	-30.0	-530	-30	1
2.7	2015_May_04_1353	s	s	5	1	SIC	436	ABS	0	2	02VD 02VO 02VC 02MD 02MO 02MC 10RD 02RO	0	1	2.38883805275	None	None	None	None	1
2.7	2015_May_04_1353	s	s	5	1	SIC	437	ABS	0	1	02VD 02VO 02VC 02MD 02MO 02MC 02RD 10RO	0	1	2.24296092987	None	None	None	None	1
2.7	2015_May_04_1353	s	s	5	1	SIC	438	ABS	2	2	10VD 02VO 02VC 02MD 02MO 02MC 02RD 02RO	0	1	1.82105898857	None	None	None	None	1
2.7	2015_May_04_1353	s	s	5	1	SIC	439	ABS	2	1	02VD 10VO 02VC 02MD 02MO 02MC 02RD 02RO	0	1	2.56571602821	None	None	None	None	1
2.7	2015_May_04_1353	s	s	5	1	SIC	440	RC	1	1	02VD 02VO 02VC 02MD 09MO 02MC 02RD 02RO	1	0	1.40984106064	-279.0	70.0	-269	77	1
2.7	2015_May_04_1353	s	s	5	1	SIC	441	RC	1	0	02VD 02VO 02VC 02MD 02MO 09MC 02RD 02RO	1	0	1.02059102058	255.0	-208.0	256	-214	1
2.7	2015_May_04_1353	s	s	5	1	SIC	442	RC	1	2	02VD 02VO 02VC 09MD 02MO 02MC 02RD 02RO	1	0	1.2657020092	-259.0	267.0	-263	271	1
2.7	2015_May_04_1353	s	s	5	1	SIC	443	RC	2	0	02VD 02VO 09VC 02MD 02MO 02MC 02RD 02RO	1	0	1.88001608849	211.0	60.0	210	55	1
2.7	2015_May_04_1353	s	s	5	1	SIC	444	ABS	2	0	02VD 02VO 10VC 02MD 02MO 02MC 02RD 02RO	0	1	2.02419805527	None	None	None	None	1
2.7	2015_May_04_1353	s	s	5	1	SIC	445	RC	2	1	02VD 09VO 02VC 02MD 02MO 02MC 02RD 02RO	1	0	1.09131002426	102.0	208.0	102	207	1
2.7	2015_May_04_1353	s	s	5	1	SIC	446	RC	0	1	02VD 02VO 02VC 02MD 02MO 02MC 02RD 09RO	1	0	5.0291121006	-103.0	272.0	-108	263	1
2.7	2015_May_04_1353	s	s	5	1	SIC	447	RC	2	2	09VD 02VO 02VC 02MD 02MO 02MC 02RD 02RO	1	0	1.96238589287	-439.0	-388.0	-433	-389	1
2.7	2015_May_04_1353	s	s	5	1	SIC	448	ABS	1	2	02VD 02VO 02VC 10MD 02MO 02MC 02RD 02RO	0	1	2.96561312675	None	None	None	None	1
2.7	2015_May_04_1353	s	s	5	1	SIC	449	RC	1	2	02VD 02VO 02VC 09MD 02MO 02MC 02RD 02RO	1	0	2.25932312012	539.0	-29.0	545	-30	1
2.7	2015_May_04_1353	s	s	5	1	SIC	450	RC	0	1	02VD 02VO 02VC 02MD 02MO 02MC 02RD 09RO	1	0	0.971348047256	88.0	-92.0	84	-95	1
2.7	2015_May_04_1353	s	s	5	1	SIC	451	ABS	0	1	02VD 02VO 02VC 02MD 02MO 02MC 02RD 10RO	0	1	5.98645496368	None	None	None	None	1
2.7	2015_May_04_1353	s	s	5	1	SIC	452	ABS	1	0	02VD 02VO 02VC 02MD 02MO 10MC 02RD 02RO	0	1	7.18826580048	None	None	None	None	1
2.7	2015_May_04_1353	s	s	5	1	SIC	453	RC	2	0	02VD 02VO 09VC 02MD 02MO 02MC 02RD 02RO	1	0	2.14146709442	-316.0	-205.0	-326	-205	1
2.7	2015_May_04_1353	s	s	5	1	SIC	454	RC	0	2	02VD 02VO 02VC 02MD 02MO 02MC 09RD 02RO	1	0	1.17642498016	152.0	1.0	158	-4	1
2.7	2015_May_04_1353	s	s	5	1	SIC	455	ABS	1	1	02VD 02VO 02VC 02MD 10MO 02MC 02RD 02RO	0	1	2.80704402924	None	None	None	None	1
2.7	2015_May_04_1353	s	s	5	1	SIC	456	ABS	2	2	10VD 02VO 02VC 02MD 02MO 02MC 02RD 02RO	0	1	2.44761490822	None	None	None	None	1
2.7	2015_May_04_1353	s	s	5	1	SIC	457	ABS	1	2	02VD 02VO 02VC 10MD 02MO 02MC 02RD 02RO	0	1	2.35332012177	None	None	None	None	1
2.7	2015_May_04_1353	s	s	5	1	SIC	458	ABS	0	2	02VD 02VO 02VC 02MD 02MO 02MC 10RD 02RO	0	1	2.17242789268	None	None	None	None	1
2.7	2015_May_04_1353	s	s	5	1	SIC	459	ABS	2	0	02VD 02VO 10VC 02MD 02MO 02MC 02RD 02RO	0	1	1.78380584717	None	None	None	None	1
2.7	2015_May_04_1353	s	s	5	1	SIC	460	RC	2	2	09VD 02VO 02VC 02MD 02MO 02MC 02RD 02RO	1	0	1.47769498825	-266.0	-300.0	-260	-302	1
2.7	2015_May_04_1353	s	s	5	1	SIC	461	RC	1	1	02VD 02VO 02VC 02MD 09MO 02MC 02RD 02RO	1	0	2.73021411896	45.0	247.0	47	243	1
2.7	2015_May_04_1353	s	s	5	1	SIC	462	RC	1	0	02VD 02VO 02VC 02MD 02MO 09MC 02RD 02RO	1	0	1.55309200287	-520.0	36.0	-518	39	1
2.7	2015_May_04_1353	s	s	5	1	SIC	463	ABS	2	1	02VD 10VO 02VC 02MD 02MO 02MC 02RD 02RO	0	1	2.40056085587	None	None	None	None	1
2.7	2015_May_04_1353	s	s	5	1	SIC	464	RC	2	1	02VD 09VO 02VC 02MD 02MO 02MC 02RD 02RO	1	0	1.78851294518	162.0	-50.0	164	-61	1
2.7	2015_May_04_1353	s	s	5	1	SIC	465	ABS	2	2	10VD 02VO 02VC 02MD 02MO 02MC 02RD 02RO	0	1	2.96022987366	None	None	None	None	1
2.7	2015_May_04_1353	s	s	5	1	SIC	466	RC	1	2	02VD 02VO 02VC 09MD 02MO 02MC 02RD 02RO	1	0	1.56487679482	-196.0	-306.0	-191	-313	1
2.7	2015_May_04_1353	s	s	5	1	SIC	467	RC	1	1	02VD 02VO 02VC 02MD 09MO 02MC 02RD 02RO	1	0	5.06878590584	-453.0	336.0	-449	335	1
2.7	2015_May_04_1353	s	s	5	1	SIC	468	ABS	2	1	02VD 10VO 02VC 02MD 02MO 02MC 02RD 02RO	0	1	3.97487783432	None	None	None	None	1
2.7	2015_May_04_1353	s	s	5	1	SIC	469	RC	2	2	09VD 02VO 02VC 02MD 02MO 02MC 02RD 02RO	1	0	1.86744689941	-529.0	6.0	-524	14	1
2.7	2015_May_04_1353	s	s	5	1	SIC	470	RC	0	1	02VD 02VO 02VC 02MD 02MO 02MC 02RD 09RO	1	0	2.21212601662	-329.0	-410.0	-329	-403	1
2.7	2015_May_04_1353	s	s	5	1	SIC	471	ABS	1	2	02VD 02VO 02VC 10MD 02MO 02MC 02RD 02RO	0	1	2.73019695282	None	None	None	None	1
2.7	2015_May_04_1353	s	s	5	1	SIC	472	ABS	2	0	02VD 02VO 10VC 02MD 02MO 02MC 02RD 02RO	0	1	2.18876791	None	None	None	None	1
2.7	2015_May_04_1353	s	s	5	1	SIC	473	RC	2	0	02VD 02VO 09VC 02MD 02MO 02MC 02RD 02RO	1	0	2.28023695946	278.0	268.0	281	268	1
2.7	2015_May_04_1353	s	s	5	1	SIC	474	RC	2	1	02VD 09VO 02VC 02MD 02MO 02MC 02RD 02RO	1	0	2.11361479759	-382.0	372.0	-377	376	1
2.7	2015_May_04_1353	s	s	5	1	SIC	475	ABS	1	1	02VD 02VO 02VC 02MD 10MO 02MC 02RD 02RO	0	1	2.71815085411	None	None	None	None	1
2.7	2015_May_04_1353	s	s	5	1	SIC	476	RC	1	0	02VD 02VO 02VC 02MD 02MO 09MC 02RD 02RO	1	0	1.45901989937	-412.0	-382.0	-412	-390	1
2.7	2015_May_04_1353	s	s	5	1	SIC	477	RC	0	2	02VD 02VO 02VC 02MD 02MO 02MC 09RD 02RO	1	0	1.30590391159	-328.0	-233.0	-324	-232	1
2.7	2015_May_04_1353	s	s	5	1	SIC	478	ABS	0	2	02VD 02VO 02VC 02MD 02MO 02MC 10RD 02RO	0	1	2.45238018036	None	None	None	None	1
2.7	2015_May_04_1353	s	s	5	1	SIC	479	ABS	1	0	02VD 02VO 02VC 02MD 02MO 10MC 02RD 02RO	0	1	4.53939414024	None	None	None	None	1
2.7	2015_May_04_1353	s	s	5	1	SIC	480	ABS	0	1	02VD 02VO 02VC 02MD 02MO 02MC 02RD 10RO	0	1	4.446007967	None	None	None	None	1
