Version	Date	Stimuli	Method	Subject	Session	Condition	Trial	Target	Channel1	Channel2	Distractors	LMouseButton	RMouseButton	RT	TargetX	TargetY	ResponseX	ResponseY	Correct
2.7	2015_May_06_1304	s	s	5	3	Capacity	1	RC	1	0	08VC 15MC	1	0	2.16516709328	-59.0	326.0	-55	322	1
2.7	2015_May_06_1304	s	s	5	3	Capacity	2	ABS	1	0	08VC 16MC	0	1	3.11614179611	None	None	None	None	1
2.7	2015_May_06_1304	s	s	5	3	Capacity	3	RC	2	0	15VC 08MC	1	0	2.37242293358	244.0	-266.0	253	-269	1
2.7	2015_May_06_1304	s	s	5	3	Capacity	4	ABS	2	0	16VC 08MC	0	1	3.16141915321	None	None	None	None	1
2.7	2015_May_06_1304	s	s	5	3	Capacity	5	RC	1	0	08VC 15MC	1	0	1.10239601135	-461.0	195.0	-466	195	1
2.7	2015_May_06_1304	s	s	5	3	Capacity	6	RC	2	0	15VC 08MC	1	0	1.27760410309	-327.0	-124.0	-327	-125	1
2.7	2015_May_06_1304	s	s	5	3	Capacity	7	ABS	2	0	16VC 08MC	0	1	4.97544407845	None	None	None	None	1
2.7	2015_May_06_1304	s	s	5	3	Capacity	8	ABS	1	0	08VC 16MC	0	1	8.02521181107	None	None	None	None	1
2.7	2015_May_06_1304	s	s	5	3	Capacity	9	RC	2	0	15VC 08MC	1	0	1.0822930336	79.0	-21.0	78	-27	1
2.7	2015_May_06_1304	s	s	5	3	Capacity	10	ABS	1	0	08VC 16MC	0	1	4.07750511169	None	None	None	None	1
2.7	2015_May_06_1304	s	s	5	3	Capacity	11	RC	1	0	08VC 15MC	1	0	1.84736514091	312.0	251.0	313	257	1
2.7	2015_May_06_1304	s	s	5	3	Capacity	12	ABS	2	0	16VC 08MC	0	1	5.24902892113	None	None	None	None	1
2.7	2015_May_06_1304	s	s	5	3	Capacity	13	ABS	1	0	08VC 16MC	0	1	3.86740922928	None	None	None	None	1
2.7	2015_May_06_1304	s	s	5	3	Capacity	14	RC	2	0	15VC 08MC	1	0	2.97728514671	444.0	-243.0	449	-238	1
2.7	2015_May_06_1304	s	s	5	3	Capacity	15	ABS	2	0	16VC 08MC	0	1	3.86724114418	None	None	None	None	1
2.7	2015_May_06_1304	s	s	5	3	Capacity	16	RC	1	0	08VC 15MC	1	0	2.09216308594	210.0	-191.0	209	-190	1
2.7	2015_May_06_1304	s	s	5	3	Capacity	17	RC	2	0	15VC 08MC	1	0	1.47055387497	-287.0	145.0	-288	141	1
2.7	2015_May_06_1304	s	s	5	3	Capacity	18	ABS	2	0	16VC 08MC	1	0	4.49079704285	None	None	-11	117	0
2.7	2015_May_06_1304	s	s	5	3	Capacity	19	ABS	1	0	08VC 16MC	0	1	4.54051685333	None	None	None	None	1
2.7	2015_May_06_1304	s	s	5	3	Capacity	20	RC	1	0	08VC 15MC	1	0	2.57328796387	491.0	-329.0	482	-325	1
2.7	2015_May_06_1304	s	s	5	3	Capacity	21	ABS	2	0	16VC 08MC	0	1	3.24507403374	None	None	None	None	1
2.7	2015_May_06_1304	s	s	5	3	Capacity	22	RC	1	0	08VC 15MC	1	0	2.30645799637	-89.0	347.0	-88	344	1
2.7	2015_May_06_1304	s	s	5	3	Capacity	23	RC	2	0	15VC 08MC	1	0	1.13304209709	-223.0	178.0	-214	181	1
2.7	2015_May_06_1304	s	s	5	3	Capacity	24	ABS	1	0	08VC 16MC	0	1	3.28344297409	None	None	None	None	1
2.7	2015_May_06_1304	s	s	5	3	Capacity	25	RC	1	0	08VC 15MC	1	0	1.55932092667	-388.0	-49.0	-385	-51	1
2.7	2015_May_06_1304	s	s	5	3	Capacity	26	RC	2	0	15VC 08MC	1	0	1.24359607697	-384.0	-208.0	-381	-205	1
2.7	2015_May_06_1304	s	s	5	3	Capacity	27	ABS	2	0	16VC 08MC	0	1	2.33795595169	None	None	None	None	1
2.7	2015_May_06_1304	s	s	5	3	Capacity	28	ABS	1	0	08VC 16MC	0	1	8.0388250351	None	None	None	None	1
2.7	2015_May_06_1304	s	s	5	3	Capacity	29	ABS	1	0	08VC 16MC	0	1	4.63437414169	None	None	None	None	1
2.7	2015_May_06_1304	s	s	5	3	Capacity	30	RC	2	0	15VC 08MC	0	1	3.16551613808	341.0	-213.0	None	None	0
2.7	2015_May_06_1304	s	s	5	3	Capacity	31	RC	1	0	08VC 15MC	1	0	1.62364196777	28.0	-165.0	29	-171	1
2.7	2015_May_06_1304	s	s	5	3	Capacity	32	ABS	2	0	16VC 08MC	0	1	2.30108118057	None	None	None	None	1
2.7	2015_May_06_1304	s	s	5	3	Capacity	33	ABS	2	0	16VC 08MC	0	1	3.01269483566	None	None	None	None	1
2.7	2015_May_06_1304	s	s	5	3	Capacity	34	RC	1	0	08VC 15MC	1	0	0.901878118515	115.0	4.0	110	1	1
2.7	2015_May_06_1304	s	s	5	3	Capacity	35	RC	2	0	15VC 08MC	1	0	1.29406809807	108.0	-66.0	108	-64	1
2.7	2015_May_06_1304	s	s	5	3	Capacity	36	ABS	1	0	08VC 16MC	0	1	2.57304692268	None	None	None	None	1
2.7	2015_May_06_1304	s	s	5	3	Capacity	37	RC	2	0	15VC 08MC	1	0	3.09512495995	536.0	93.0	539	94	1
2.7	2015_May_06_1304	s	s	5	3	Capacity	38	ABS	2	0	16VC 08MC	0	1	3.0008790493	None	None	None	None	1
2.7	2015_May_06_1304	s	s	5	3	Capacity	39	ABS	1	0	08VC 16MC	0	1	4.48387312889	None	None	None	None	1
2.7	2015_May_06_1304	s	s	5	3	Capacity	40	RC	1	0	08VC 15MC	1	0	1.58844590187	-399.0	-266.0	-397	-268	1
2.7	2015_May_06_1304	s	s	5	3	Capacity	41	ABS	1	0	08VC 16MC	0	1	2.69164800644	None	None	None	None	1
2.7	2015_May_06_1304	s	s	5	3	Capacity	42	RC	1	0	08VC 15MC	1	0	1.15933704376	-330.0	133.0	-329	134	1
2.7	2015_May_06_1304	s	s	5	3	Capacity	43	ABS	2	0	16VC 08MC	0	1	2.91836190224	None	None	None	None	1
2.7	2015_May_06_1304	s	s	5	3	Capacity	44	RC	2	0	15VC 08MC	1	0	1.59683990479	318.0	216.0	322	215	1
2.7	2015_May_06_1304	s	s	5	3	Capacity	45	ABS	2	0	16VC 08MC	0	1	3.9980340004	None	None	None	None	1
2.7	2015_May_06_1304	s	s	5	3	Capacity	46	ABS	1	0	08VC 16MC	0	1	4.60534691811	None	None	None	None	1
2.7	2015_May_06_1304	s	s	5	3	Capacity	47	RC	2	0	15VC 08MC	1	0	1.25884699821	153.0	-175.0	159	-172	1
2.7	2015_May_06_1304	s	s	5	3	Capacity	48	RC	1	0	08VC 15MC	1	0	1.02129197121	-253.0	-318.0	-251	-313	1
2.7	2015_May_06_1304	s	s	5	3	Capacity	49	RC	2	0	15VC 08MC	1	0	0.738027095795	-303.0	-104.0	-299	-98	1
2.7	2015_May_06_1304	s	s	5	3	Capacity	50	ABS	2	0	16VC 08MC	0	1	2.50430798531	None	None	None	None	1
2.7	2015_May_06_1304	s	s	5	3	Capacity	51	ABS	1	0	08VC 16MC	0	1	3.22210597992	None	None	None	None	1
2.7	2015_May_06_1304	s	s	5	3	Capacity	52	RC	1	0	08VC 15MC	1	0	2.70658302307	276.0	81.0	278	78	1
2.7	2015_May_06_1304	s	s	5	3	Capacity	53	RC	2	0	15VC 08MC	1	0	4.07845902443	515.0	-9.0	518	-6	1
2.7	2015_May_06_1304	s	s	5	3	Capacity	54	RC	1	0	08VC 15MC	1	0	1.24710702896	29.0	109.0	31	109	1
2.7	2015_May_06_1304	s	s	5	3	Capacity	55	ABS	1	0	08VC 16MC	0	1	2.97500801086	None	None	None	None	1
2.7	2015_May_06_1304	s	s	5	3	Capacity	56	ABS	2	0	16VC 08MC	0	1	2.97395014763	None	None	None	None	1
2.7	2015_May_06_1304	s	s	5	3	Capacity	57	RC	2	0	15VC 08MC	1	0	1.45562314987	-483.0	271.0	-485	271	1
2.7	2015_May_06_1304	s	s	5	3	Capacity	58	RC	1	0	08VC 15MC	1	0	1.13632392883	-4.0	230.0	-7	225	1
2.7	2015_May_06_1304	s	s	5	3	Capacity	59	ABS	1	0	08VC 16MC	0	1	2.68300795555	None	None	None	None	1
2.7	2015_May_06_1304	s	s	5	3	Capacity	60	ABS	2	0	16VC 08MC	0	1	2.53852701187	None	None	None	None	1
2.7	2015_May_06_1304	s	s	5	3	Capacity	61	RC	1	0	08VC 15MC	1	0	0.905688047409	-308.0	191.0	-305	189	1
2.7	2015_May_06_1304	s	s	5	3	Capacity	62	RC	2	0	15VC 08MC	1	0	2.31818795204	491.0	264.0	490	260	1
2.7	2015_May_06_1304	s	s	5	3	Capacity	63	ABS	2	0	16VC 08MC	0	1	2.56514406204	None	None	None	None	1
2.7	2015_May_06_1304	s	s	5	3	Capacity	64	ABS	1	0	08VC 16MC	0	1	3.97260093689	None	None	None	None	1
2.7	2015_May_06_1304	s	s	5	3	Capacity	1	ABS	0	1	08RD 16RO	0	1	4.44885206223	None	None	None	None	1
2.7	2015_May_06_1304	s	s	5	3	Capacity	2	ABS	0	2	16RD 08RO	0	1	3.14946913719	None	None	None	None	1
2.7	2015_May_06_1304	s	s	5	3	Capacity	3	RC	0	2	15RD 08RO	0	1	3.60106492043	-231.0	-247.0	None	None	0
2.7	2015_May_06_1304	s	s	5	3	Capacity	4	RC	0	1	08RD 15RO	1	0	3.98474001884	-210.0	-167.0	-210	-167	1
2.7	2015_May_06_1304	s	s	5	3	Capacity	5	RC	0	2	15RD 08RO	1	0	1.51312804222	446.0	-403.0	447	-405	1
2.7	2015_May_06_1304	s	s	5	3	Capacity	6	RC	0	1	08RD 15RO	1	0	2.45940709114	-287.0	-395.0	-289	-401	1
2.7	2015_May_06_1304	s	s	5	3	Capacity	7	ABS	0	1	08RD 16RO	0	1	5.37859106064	None	None	None	None	1
2.7	2015_May_06_1304	s	s	5	3	Capacity	8	ABS	0	2	16RD 08RO	0	1	3.2786898613	None	None	None	None	1
2.7	2015_May_06_1304	s	s	5	3	Capacity	9	RC	0	1	08RD 15RO	1	0	3.73742699623	299.0	349.0	299	347	1
2.7	2015_May_06_1304	s	s	5	3	Capacity	10	RC	0	2	15RD 08RO	1	0	0.973146915436	85.0	206.0	82	210	1
2.7	2015_May_06_1304	s	s	5	3	Capacity	11	ABS	0	1	08RD 16RO	0	1	3.73817300797	None	None	None	None	1
2.7	2015_May_06_1304	s	s	5	3	Capacity	12	ABS	0	2	16RD 08RO	0	1	3.52467393875	None	None	None	None	1
2.7	2015_May_06_1304	s	s	5	3	Capacity	13	ABS	0	1	08RD 16RO	0	1	5.46090698242	None	None	None	None	1
2.7	2015_May_06_1304	s	s	5	3	Capacity	14	RC	0	2	15RD 08RO	1	0	1.77284193039	-463.0	-272.0	-465	-271	1
2.7	2015_May_06_1304	s	s	5	3	Capacity	15	RC	0	1	08RD 15RO	1	0	1.54796099663	-335.0	-298.0	-336	-295	1
2.7	2015_May_06_1304	s	s	5	3	Capacity	16	ABS	0	2	16RD 08RO	0	1	2.94892406464	None	None	None	None	1
2.7	2015_May_06_1304	s	s	5	3	Capacity	17	RC	0	2	15RD 08RO	1	0	1.62024402618	139.0	274.0	142	275	1
2.7	2015_May_06_1304	s	s	5	3	Capacity	18	ABS	0	2	16RD 08RO	0	1	3.03631591797	None	None	None	None	1
2.7	2015_May_06_1304	s	s	5	3	Capacity	19	ABS	0	1	08RD 16RO	0	1	3.87965393066	None	None	None	None	1
2.7	2015_May_06_1304	s	s	5	3	Capacity	20	RC	0	1	08RD 15RO	1	0	1.24170589447	-241.0	314.0	-236	316	1
2.7	2015_May_06_1304	s	s	5	3	Capacity	21	ABS	0	1	08RD 16RO	0	1	4.15424394608	None	None	None	None	1
2.7	2015_May_06_1304	s	s	5	3	Capacity	22	RC	0	2	15RD 08RO	1	0	0.820248126984	-59.0	184.0	-53	176	1
2.7	2015_May_06_1304	s	s	5	3	Capacity	23	RC	0	1	08RD 15RO	1	0	1.74141192436	-282.0	256.0	-277	252	1
2.7	2015_May_06_1304	s	s	5	3	Capacity	24	ABS	0	2	16RD 08RO	0	1	2.50165200233	None	None	None	None	1
2.7	2015_May_06_1304	s	s	5	3	Capacity	25	RC	0	1	08RD 15RO	1	0	2.24531912804	284.0	-240.0	288	-247	1
2.7	2015_May_06_1304	s	s	5	3	Capacity	26	ABS	0	1	08RD 16RO	0	1	4.27210307121	None	None	None	None	1
2.7	2015_May_06_1304	s	s	5	3	Capacity	27	ABS	0	2	16RD 08RO	1	0	3.25703406334	None	None	-17	40	0
2.7	2015_May_06_1304	s	s	5	3	Capacity	28	RC	0	2	15RD 08RO	1	0	4.23431491852	494.0	244.0	490	248	1
2.7	2015_May_06_1304	s	s	5	3	Capacity	29	ABS	0	1	08RD 16RO	0	1	5.42569303513	None	None	None	None	1
2.7	2015_May_06_1304	s	s	5	3	Capacity	30	RC	0	1	08RD 15RO	1	0	2.6074411869	-383.0	-263.0	-386	-267	1
2.7	2015_May_06_1304	s	s	5	3	Capacity	31	RC	0	2	15RD 08RO	1	0	1.42396378517	-122.0	234.0	-126	233	1
2.7	2015_May_06_1304	s	s	5	3	Capacity	32	ABS	0	2	16RD 08RO	1	0	1.83128905296	None	None	-81	98	0
2.7	2015_May_06_1304	s	s	5	3	Capacity	33	RC	0	2	15RD 08RO	1	0	3.07159090042	-316.0	-245.0	-313	-241	1
2.7	2015_May_06_1304	s	s	5	3	Capacity	34	RC	0	1	08RD 15RO	1	0	2.16187906265	477.0	66.0	473	67	1
2.7	2015_May_06_1304	s	s	5	3	Capacity	35	ABS	0	1	08RD 16RO	0	1	4.72574186325	None	None	None	None	1
2.7	2015_May_06_1304	s	s	5	3	Capacity	36	ABS	0	2	16RD 08RO	0	1	2.66909098625	None	None	None	None	1
2.7	2015_May_06_1304	s	s	5	3	Capacity	37	ABS	0	1	08RD 16RO	0	1	4.00137019157	None	None	None	None	1
2.7	2015_May_06_1304	s	s	5	3	Capacity	38	RC	0	1	08RD 15RO	1	0	3.57513093948	389.0	388.0	389	385	1
2.7	2015_May_06_1304	s	s	5	3	Capacity	39	RC	0	2	15RD 08RO	0	1	2.57714700699	275.0	406.0	None	None	0
2.7	2015_May_06_1304	s	s	5	3	Capacity	40	ABS	0	2	16RD 08RO	0	1	2.0779838562	None	None	None	None	1
2.7	2015_May_06_1304	s	s	5	3	Capacity	41	RC	0	2	15RD 08RO	1	0	1.19667410851	76.0	-77.0	67	-78	1
2.7	2015_May_06_1304	s	s	5	3	Capacity	42	ABS	0	1	08RD 16RO	0	1	3.66044521332	None	None	None	None	1
2.7	2015_May_06_1304	s	s	5	3	Capacity	43	ABS	0	2	16RD 08RO	0	1	2.48034501076	None	None	None	None	1
2.7	2015_May_06_1304	s	s	5	3	Capacity	44	RC	0	1	08RD 15RO	1	0	2.92782998085	-30.0	-94.0	-28	-88	1
2.7	2015_May_06_1304	s	s	5	3	Capacity	45	RC	0	2	15RD 08RO	1	0	1.14835500717	-18.0	329.0	-16	323	1
2.7	2015_May_06_1304	s	s	5	3	Capacity	46	ABS	0	1	08RD 16RO	0	1	5.11482596397	None	None	None	None	1
2.7	2015_May_06_1304	s	s	5	3	Capacity	47	ABS	0	2	16RD 08RO	0	1	2.78415203094	None	None	None	None	1
2.7	2015_May_06_1304	s	s	5	3	Capacity	48	RC	0	1	08RD 15RO	1	0	4.83443617821	418.0	3.0	423	-1	1
2.7	2015_May_06_1304	s	s	5	3	Capacity	49	ABS	0	1	08RD 16RO	0	1	3.83370304108	None	None	None	None	1
2.7	2015_May_06_1304	s	s	5	3	Capacity	50	RC	0	2	15RD 08RO	1	0	2.49483990669	-481.0	297.0	-482	290	1
2.7	2015_May_06_1304	s	s	5	3	Capacity	51	ABS	0	2	16RD 08RO	0	1	2.50417613983	None	None	None	None	1
2.7	2015_May_06_1304	s	s	5	3	Capacity	52	RC	0	1	08RD 15RO	1	0	2.55343699455	95.0	267.0	90	261	1
2.7	2015_May_06_1304	s	s	5	3	Capacity	53	RC	0	1	08RD 15RO	1	0	2.10177206993	-256.0	-107.0	-256	-108	1
2.7	2015_May_06_1304	s	s	5	3	Capacity	54	ABS	0	1	08RD 16RO	0	1	3.37760186195	None	None	None	None	1
2.7	2015_May_06_1304	s	s	5	3	Capacity	55	RC	0	2	15RD 08RO	0	1	2.72224402428	-222.0	-104.0	None	None	0
2.7	2015_May_06_1304	s	s	5	3	Capacity	56	ABS	0	2	16RD 08RO	0	1	2.39702606201	None	None	None	None	1
2.7	2015_May_06_1304	s	s	5	3	Capacity	57	RC	0	2	15RD 08RO	1	0	1.30593395233	-67.0	208.0	-71	209	1
2.7	2015_May_06_1304	s	s	5	3	Capacity	58	ABS	0	2	16RD 08RO	0	1	2.82432794571	None	None	None	None	1
2.7	2015_May_06_1304	s	s	5	3	Capacity	59	RC	0	1	08RD 15RO	1	0	4.06024098396	329.0	-256.0	334	-255	1
2.7	2015_May_06_1304	s	s	5	3	Capacity	60	ABS	0	1	08RD 16RO	0	1	6.06148195267	None	None	None	None	1
2.7	2015_May_06_1304	s	s	5	3	Capacity	61	ABS	0	1	08RD 16RO	0	1	4.74019002914	None	None	None	None	1
2.7	2015_May_06_1304	s	s	5	3	Capacity	62	ABS	0	2	16RD 08RO	0	1	3.00096297264	None	None	None	None	1
2.7	2015_May_06_1304	s	s	5	3	Capacity	63	RC	0	2	15RD 08RO	1	0	1.89471101761	-70.0	389.0	-74	388	1
2.7	2015_May_06_1304	s	s	5	3	Capacity	64	RC	0	1	08RD 15RO	1	0	1.25632405281	-307.0	353.0	-307	343	1
2.7	2015_May_06_1304	s	s	5	3	SIC	1	ABS	2	0	02VD 02VO 10VC 02MD 02MO 02MC 02RD 02RO	0	1	1.93824601173	None	None	None	None	1
2.7	2015_May_06_1304	s	s	5	3	SIC	2	ABS	1	2	02VD 02VO 02VC 10MD 02MO 02MC 02RD 02RO	0	1	2.53698992729	None	None	None	None	1
2.7	2015_May_06_1304	s	s	5	3	SIC	3	RC	1	2	02VD 02VO 02VC 09MD 02MO 02MC 02RD 02RO	1	0	1.11744403839	-157.0	319.0	-157	321	1
2.7	2015_May_06_1304	s	s	5	3	SIC	4	ABS	1	1	02VD 02VO 02VC 02MD 10MO 02MC 02RD 02RO	0	1	2.86325192451	None	None	None	None	1
2.7	2015_May_06_1304	s	s	5	3	SIC	5	ABS	0	2	02VD 02VO 02VC 02MD 02MO 02MC 10RD 02RO	0	1	2.54174995422	None	None	None	None	1
2.7	2015_May_06_1304	s	s	5	3	SIC	6	ABS	2	2	10VD 02VO 02VC 02MD 02MO 02MC 02RD 02RO	0	1	2.77713513374	None	None	None	None	1
2.7	2015_May_06_1304	s	s	5	3	SIC	7	ABS	2	1	02VD 10VO 02VC 02MD 02MO 02MC 02RD 02RO	0	1	2.10085892677	None	None	None	None	1
2.7	2015_May_06_1304	s	s	5	3	SIC	8	RC	1	1	02VD 02VO 02VC 02MD 09MO 02MC 02RD 02RO	1	0	1.56485199928	-391.0	-44.0	-386	-45	1
2.7	2015_May_06_1304	s	s	5	3	SIC	9	RC	0	1	02VD 02VO 02VC 02MD 02MO 02MC 02RD 09RO	1	0	5.78839182854	-417.0	238.0	-415	237	1
2.7	2015_May_06_1304	s	s	5	3	SIC	10	RC	1	0	02VD 02VO 02VC 02MD 02MO 09MC 02RD 02RO	1	0	1.90997695923	276.0	-336.0	280	-337	1
2.7	2015_May_06_1304	s	s	5	3	SIC	11	RC	2	1	02VD 09VO 02VC 02MD 02MO 02MC 02RD 02RO	1	0	2.14154911041	-55.0	-349.0	-55	-350	1
2.7	2015_May_06_1304	s	s	5	3	SIC	12	RC	2	0	02VD 02VO 09VC 02MD 02MO 02MC 02RD 02RO	1	0	2.14145708084	-57.0	47.0	-62	51	1
2.7	2015_May_06_1304	s	s	5	3	SIC	13	ABS	0	1	02VD 02VO 02VC 02MD 02MO 02MC 02RD 10RO	0	1	4.19668388367	None	None	None	None	1
2.7	2015_May_06_1304	s	s	5	3	SIC	14	RC	0	2	02VD 02VO 02VC 02MD 02MO 02MC 09RD 02RO	0	1	2.80733394623	531.0	256.0	None	None	0
2.7	2015_May_06_1304	s	s	5	3	SIC	15	RC	2	2	09VD 02VO 02VC 02MD 02MO 02MC 02RD 02RO	1	0	1.8826239109	-91.0	-337.0	-92	-341	1
2.7	2015_May_06_1304	s	s	5	3	SIC	16	ABS	1	0	02VD 02VO 02VC 02MD 02MO 10MC 02RD 02RO	0	1	2.72210693359	None	None	None	None	1
2.7	2015_May_06_1304	s	s	5	3	SIC	17	RC	1	1	02VD 02VO 02VC 02MD 09MO 02MC 02RD 02RO	1	0	1.21219611168	-421.0	205.0	-419	209	1
2.7	2015_May_06_1304	s	s	5	3	SIC	18	RC	1	0	02VD 02VO 02VC 02MD 02MO 09MC 02RD 02RO	1	0	1.7766520977	-292.0	-17.0	-291	-15	1
2.7	2015_May_06_1304	s	s	5	3	SIC	19	RC	2	1	02VD 09VO 02VC 02MD 02MO 02MC 02RD 02RO	1	0	1.40383791924	-419.0	-83.0	-421	-84	1
2.7	2015_May_06_1304	s	s	5	3	SIC	20	ABS	1	2	02VD 02VO 02VC 10MD 02MO 02MC 02RD 02RO	0	1	1.80715513229	None	None	None	None	1
2.7	2015_May_06_1304	s	s	5	3	SIC	21	ABS	2	1	02VD 10VO 02VC 02MD 02MO 02MC 02RD 02RO	0	1	2.2192401886	None	None	None	None	1
2.7	2015_May_06_1304	s	s	5	3	SIC	22	RC	1	2	02VD 02VO 02VC 09MD 02MO 02MC 02RD 02RO	1	0	1.18869280815	146.0	202.0	151	207	1
2.7	2015_May_06_1304	s	s	5	3	SIC	23	RC	0	2	02VD 02VO 02VC 02MD 02MO 02MC 09RD 02RO	1	0	2.11811685562	410.0	146.0	409	146	1
2.7	2015_May_06_1304	s	s	5	3	SIC	24	RC	2	2	09VD 02VO 02VC 02MD 02MO 02MC 02RD 02RO	1	0	1.30090379715	128.0	-202.0	130	-199	1
2.7	2015_May_06_1304	s	s	5	3	SIC	25	ABS	2	2	10VD 02VO 02VC 02MD 02MO 02MC 02RD 02RO	0	1	2.38883686066	None	None	None	None	1
2.7	2015_May_06_1304	s	s	5	3	SIC	26	ABS	0	1	02VD 02VO 02VC 02MD 02MO 02MC 02RD 10RO	0	1	3.40950703621	None	None	None	None	1
2.7	2015_May_06_1304	s	s	5	3	SIC	27	ABS	2	0	02VD 02VO 10VC 02MD 02MO 02MC 02RD 02RO	0	1	1.94817900658	None	None	None	None	1
2.7	2015_May_06_1304	s	s	5	3	SIC	28	ABS	1	0	02VD 02VO 02VC 02MD 02MO 10MC 02RD 02RO	0	1	2.24509501457	None	None	None	None	1
2.7	2015_May_06_1304	s	s	5	3	SIC	29	RC	2	0	02VD 02VO 09VC 02MD 02MO 02MC 02RD 02RO	1	0	1.11199378967	498.0	-30.0	494	-33	1
2.7	2015_May_06_1304	s	s	5	3	SIC	30	ABS	1	1	02VD 02VO 02VC 02MD 10MO 02MC 02RD 02RO	0	1	2.40771198273	None	None	None	None	1
2.7	2015_May_06_1304	s	s	5	3	SIC	31	RC	0	1	02VD 02VO 02VC 02MD 02MO 02MC 02RD 09RO	1	0	2.39807295799	-35.0	-192.0	-32	-190	1
2.7	2015_May_06_1304	s	s	5	3	SIC	32	ABS	0	2	02VD 02VO 02VC 02MD 02MO 02MC 10RD 02RO	0	1	5.04398298264	None	None	None	None	1
2.7	2015_May_06_1304	s	s	5	3	SIC	33	ABS	2	2	10VD 02VO 02VC 02MD 02MO 02MC 02RD 02RO	0	1	2.51823687553	None	None	None	None	1
2.7	2015_May_06_1304	s	s	5	3	SIC	34	RC	0	1	02VD 02VO 02VC 02MD 02MO 02MC 02RD 09RO	1	0	1.47108197212	-369.0	-137.0	-373	-141	1
2.7	2015_May_06_1304	s	s	5	3	SIC	35	ABS	1	2	02VD 02VO 02VC 10MD 02MO 02MC 02RD 02RO	0	1	3.31869292259	None	None	None	None	1
2.7	2015_May_06_1304	s	s	5	3	SIC	36	ABS	2	1	02VD 10VO 02VC 02MD 02MO 02MC 02RD 02RO	0	1	3.35437393188	None	None	None	None	1
2.7	2015_May_06_1304	s	s	5	3	SIC	37	ABS	0	2	02VD 02VO 02VC 02MD 02MO 02MC 10RD 02RO	0	1	2.42402791977	None	None	None	None	1
2.7	2015_May_06_1304	s	s	5	3	SIC	38	RC	1	0	02VD 02VO 02VC 02MD 02MO 09MC 02RD 02RO	1	0	3.15143299103	262.0	-210.0	259	-207	1
2.7	2015_May_06_1304	s	s	5	3	SIC	39	RC	2	1	02VD 09VO 02VC 02MD 02MO 02MC 02RD 02RO	1	0	1.94159913063	-230.0	-383.0	-230	-384	1
2.7	2015_May_06_1304	s	s	5	3	SIC	40	ABS	1	0	02VD 02VO 02VC 02MD 02MO 10MC 02RD 02RO	0	1	2.04042816162	None	None	None	None	1
2.7	2015_May_06_1304	s	s	5	3	SIC	41	RC	0	2	02VD 02VO 02VC 02MD 02MO 02MC 09RD 02RO	1	0	1.25589799881	-501.0	191.0	-501	191	1
2.7	2015_May_06_1304	s	s	5	3	SIC	42	ABS	1	1	02VD 02VO 02VC 02MD 10MO 02MC 02RD 02RO	0	1	3.39842677116	None	None	None	None	1
2.7	2015_May_06_1304	s	s	5	3	SIC	43	RC	1	2	02VD 02VO 02VC 09MD 02MO 02MC 02RD 02RO	1	0	1.78857088089	-390.0	215.0	-385	212	1
2.7	2015_May_06_1304	s	s	5	3	SIC	44	ABS	2	0	02VD 02VO 10VC 02MD 02MO 02MC 02RD 02RO	0	1	2.33932113647	None	None	None	None	1
2.7	2015_May_06_1304	s	s	5	3	SIC	45	RC	2	0	02VD 02VO 09VC 02MD 02MO 02MC 02RD 02RO	1	0	1.43285799026	192.0	211.0	192	213	1
2.7	2015_May_06_1304	s	s	5	3	SIC	46	RC	1	1	02VD 02VO 02VC 02MD 09MO 02MC 02RD 02RO	1	0	1.30595302582	-167.0	104.0	-171	103	1
2.7	2015_May_06_1304	s	s	5	3	SIC	47	ABS	0	1	02VD 02VO 02VC 02MD 02MO 02MC 02RD 10RO	0	1	5.84697794914	None	None	None	None	1
2.7	2015_May_06_1304	s	s	5	3	SIC	48	RC	2	2	09VD 02VO 02VC 02MD 02MO 02MC 02RD 02RO	1	0	0.882170915604	-97.0	121.0	-94	121	1
2.7	2015_May_06_1304	s	s	5	3	SIC	49	RC	2	2	09VD 02VO 02VC 02MD 02MO 02MC 02RD 02RO	1	0	2.35347008705	505.0	4.0	504	6	1
2.7	2015_May_06_1304	s	s	5	3	SIC	50	ABS	2	0	02VD 02VO 10VC 02MD 02MO 02MC 02RD 02RO	0	1	1.88265395164	None	None	None	None	1
2.7	2015_May_06_1304	s	s	5	3	SIC	51	ABS	0	1	02VD 02VO 02VC 02MD 02MO 02MC 02RD 10RO	0	1	3.99832010269	None	None	None	None	1
2.7	2015_May_06_1304	s	s	5	3	SIC	52	RC	0	1	02VD 02VO 02VC 02MD 02MO 02MC 02RD 09RO	1	0	0.882084846497	-21.0	101.0	-17	99	1
2.7	2015_May_06_1304	s	s	5	3	SIC	53	ABS	2	2	10VD 02VO 02VC 02MD 02MO 02MC 02RD 02RO	0	1	2.45931005478	None	None	None	None	1
2.7	2015_May_06_1304	s	s	5	3	SIC	54	ABS	2	1	02VD 10VO 02VC 02MD 02MO 02MC 02RD 02RO	0	1	2.49460697174	None	None	None	None	1
2.7	2015_May_06_1304	s	s	5	3	SIC	55	RC	0	2	02VD 02VO 02VC 02MD 02MO 02MC 09RD 02RO	1	0	1.08214998245	-251.0	409.0	-251	399	1
2.7	2015_May_06_1304	s	s	5	3	SIC	56	RC	1	2	02VD 02VO 02VC 09MD 02MO 02MC 02RD 02RO	1	0	1.536465168	-525.0	-39.0	-525	-42	1
2.7	2015_May_06_1304	s	s	5	3	SIC	57	RC	2	0	02VD 02VO 09VC 02MD 02MO 02MC 02RD 02RO	1	0	1.23527503014	-155.0	-50.0	-158	-52	1
2.7	2015_May_06_1304	s	s	5	3	SIC	58	ABS	0	2	02VD 02VO 02VC 02MD 02MO 02MC 10RD 02RO	0	1	2.71611404419	None	None	None	None	1
2.7	2015_May_06_1304	s	s	5	3	SIC	59	RC	1	1	02VD 02VO 02VC 02MD 09MO 02MC 02RD 02RO	1	0	1.92169904709	-477.0	-21.0	-470	-24	1
2.7	2015_May_06_1304	s	s	5	3	SIC	60	ABS	1	1	02VD 02VO 02VC 02MD 10MO 02MC 02RD 02RO	0	1	2.98944997787	None	None	None	None	1
2.7	2015_May_06_1304	s	s	5	3	SIC	61	RC	1	0	02VD 02VO 02VC 02MD 02MO 09MC 02RD 02RO	1	0	2.63148784637	500.0	318.0	500	312	1
2.7	2015_May_06_1304	s	s	5	3	SIC	62	RC	2	1	02VD 09VO 02VC 02MD 02MO 02MC 02RD 02RO	1	0	1.96079015732	240.0	174.0	236	171	1
2.7	2015_May_06_1304	s	s	5	3	SIC	63	ABS	1	0	02VD 02VO 02VC 02MD 02MO 10MC 02RD 02RO	0	1	4.58994078636	None	None	None	None	1
2.7	2015_May_06_1304	s	s	5	3	SIC	64	ABS	1	2	02VD 02VO 02VC 10MD 02MO 02MC 02RD 02RO	0	1	4.18961596489	None	None	None	None	1
2.7	2015_May_06_1304	s	s	5	3	SIC	65	RC	2	0	02VD 02VO 09VC 02MD 02MO 02MC 02RD 02RO	1	0	1.65306901932	377.0	320.0	374	326	1
2.7	2015_May_06_1304	s	s	5	3	SIC	66	RC	1	0	02VD 02VO 02VC 02MD 02MO 09MC 02RD 02RO	0	1	4.05772590637	-153.0	40.0	None	None	0
2.7	2015_May_06_1304	s	s	5	3	SIC	67	ABS	2	2	10VD 02VO 02VC 02MD 02MO 02MC 02RD 02RO	0	1	2.79591107368	None	None	None	None	1
2.7	2015_May_06_1304	s	s	5	3	SIC	68	RC	0	2	02VD 02VO 02VC 02MD 02MO 02MC 09RD 02RO	1	0	1.71321296692	-1.0	-403.0	-3	-397	1
2.7	2015_May_06_1304	s	s	5	3	SIC	69	RC	0	1	02VD 02VO 02VC 02MD 02MO 02MC 02RD 09RO	1	0	2.84821510315	-494.0	-362.0	-492	-365	1
2.7	2015_May_06_1304	s	s	5	3	SIC	70	ABS	1	0	02VD 02VO 02VC 02MD 02MO 10MC 02RD 02RO	0	1	3.27191090584	None	None	None	None	1
2.7	2015_May_06_1304	s	s	5	3	SIC	71	RC	1	1	02VD 02VO 02VC 02MD 09MO 02MC 02RD 02RO	1	0	2.09443879128	-520.0	-89.0	-518	-88	1
2.7	2015_May_06_1304	s	s	5	3	SIC	72	ABS	0	1	02VD 02VO 02VC 02MD 02MO 02MC 02RD 10RO	0	1	4.49575805664	None	None	None	None	1
2.7	2015_May_06_1304	s	s	5	3	SIC	73	RC	1	2	02VD 02VO 02VC 09MD 02MO 02MC 02RD 02RO	1	0	1.03284502029	128.0	29.0	124	24	1
2.7	2015_May_06_1304	s	s	5	3	SIC	74	ABS	2	0	02VD 02VO 10VC 02MD 02MO 02MC 02RD 02RO	0	1	1.89438295364	None	None	None	None	1
2.7	2015_May_06_1304	s	s	5	3	SIC	75	RC	2	1	02VD 09VO 02VC 02MD 02MO 02MC 02RD 02RO	1	0	0.912766933441	-349.0	35.0	-353	31	1
2.7	2015_May_06_1304	s	s	5	3	SIC	76	ABS	1	2	02VD 02VO 02VC 10MD 02MO 02MC 02RD 02RO	0	1	2.24388098717	None	None	None	None	1
2.7	2015_May_06_1304	s	s	5	3	SIC	77	RC	2	2	09VD 02VO 02VC 02MD 02MO 02MC 02RD 02RO	1	0	1.48234796524	244.0	-102.0	247	-104	1
2.7	2015_May_06_1304	s	s	5	3	SIC	78	ABS	0	2	02VD 02VO 02VC 02MD 02MO 02MC 10RD 02RO	0	1	2.52686500549	None	None	None	None	1
2.7	2015_May_06_1304	s	s	5	3	SIC	79	ABS	2	1	02VD 10VO 02VC 02MD 02MO 02MC 02RD 02RO	0	1	2.10052204132	None	None	None	None	1
2.7	2015_May_06_1304	s	s	5	3	SIC	80	ABS	1	1	02VD 02VO 02VC 02MD 10MO 02MC 02RD 02RO	0	1	3.5819208622	None	None	None	None	1
2.7	2015_May_06_1304	s	s	5	3	SIC	81	RC	2	2	09VD 02VO 02VC 02MD 02MO 02MC 02RD 02RO	1	0	1.35299801826	-129.0	201.0	-123	201	1
2.7	2015_May_06_1304	s	s	5	3	SIC	82	ABS	2	1	02VD 10VO 02VC 02MD 02MO 02MC 02RD 02RO	0	1	1.90329909325	None	None	None	None	1
2.7	2015_May_06_1304	s	s	5	3	SIC	83	RC	1	2	02VD 02VO 02VC 09MD 02MO 02MC 02RD 02RO	1	0	0.867598056793	-37.0	155.0	-41	157	1
2.7	2015_May_06_1304	s	s	5	3	SIC	84	RC	2	1	02VD 09VO 02VC 02MD 02MO 02MC 02RD 02RO	1	0	2.33639883995	408.0	-379.0	413	-383	1
2.7	2015_May_06_1304	s	s	5	3	SIC	85	RC	1	0	02VD 02VO 02VC 02MD 02MO 09MC 02RD 02RO	1	0	2.34170413017	-341.0	277.0	-342	275	1
2.7	2015_May_06_1304	s	s	5	3	SIC	86	ABS	1	2	02VD 02VO 02VC 10MD 02MO 02MC 02RD 02RO	0	1	2.60064506531	None	None	None	None	1
2.7	2015_May_06_1304	s	s	5	3	SIC	87	ABS	0	2	02VD 02VO 02VC 02MD 02MO 02MC 10RD 02RO	0	1	1.86845421791	None	None	None	None	1
2.7	2015_May_06_1304	s	s	5	3	SIC	88	ABS	1	1	02VD 02VO 02VC 02MD 10MO 02MC 02RD 02RO	0	1	4.48401093483	None	None	None	None	1
2.7	2015_May_06_1304	s	s	5	3	SIC	89	RC	0	2	02VD 02VO 02VC 02MD 02MO 02MC 09RD 02RO	1	0	1.98615503311	260.0	226.0	261	225	1
2.7	2015_May_06_1304	s	s	5	3	SIC	90	RC	2	0	02VD 02VO 09VC 02MD 02MO 02MC 02RD 02RO	1	0	1.97246313095	-111.0	70.0	-115	69	1
2.7	2015_May_06_1304	s	s	5	3	SIC	91	ABS	1	0	02VD 02VO 02VC 02MD 02MO 10MC 02RD 02RO	0	1	1.94972586632	None	None	None	None	1
2.7	2015_May_06_1304	s	s	5	3	SIC	92	ABS	2	2	10VD 02VO 02VC 02MD 02MO 02MC 02RD 02RO	0	1	1.60877108574	None	None	None	None	1
2.7	2015_May_06_1304	s	s	5	3	SIC	93	ABS	0	1	02VD 02VO 02VC 02MD 02MO 02MC 02RD 10RO	0	1	3.02113199234	None	None	None	None	1
2.7	2015_May_06_1304	s	s	5	3	SIC	94	ABS	2	0	02VD 02VO 10VC 02MD 02MO 02MC 02RD 02RO	0	1	2.35093998909	None	None	None	None	1
2.7	2015_May_06_1304	s	s	5	3	SIC	95	RC	1	1	02VD 02VO 02VC 02MD 09MO 02MC 02RD 02RO	1	0	2.97737693787	-376.0	342.0	-368	342	1
2.7	2015_May_06_1304	s	s	5	3	SIC	96	RC	0	1	02VD 02VO 02VC 02MD 02MO 02MC 02RD 09RO	1	0	3.11224985123	469.0	-172.0	468	-169	1
2.7	2015_May_06_1304	s	s	5	3	SIC	97	ABS	1	0	02VD 02VO 02VC 02MD 02MO 10MC 02RD 02RO	0	1	4.63685107231	None	None	None	None	1
2.7	2015_May_06_1304	s	s	5	3	SIC	98	RC	1	0	02VD 02VO 02VC 02MD 02MO 09MC 02RD 02RO	1	0	2.17233085632	309.0	-161.0	314	-164	1
2.7	2015_May_06_1304	s	s	5	3	SIC	99	ABS	2	0	02VD 02VO 10VC 02MD 02MO 02MC 02RD 02RO	0	1	4.00838589668	None	None	None	None	1
2.7	2015_May_06_1304	s	s	5	3	SIC	100	ABS	1	1	02VD 02VO 02VC 02MD 10MO 02MC 02RD 02RO	0	1	2.69178986549	None	None	None	None	1
2.7	2015_May_06_1304	s	s	5	3	SIC	101	RC	2	0	02VD 02VO 09VC 02MD 02MO 02MC 02RD 02RO	1	0	1.81205296516	482.0	171.0	478	173	1
2.7	2015_May_06_1304	s	s	5	3	SIC	102	RC	1	2	02VD 02VO 02VC 09MD 02MO 02MC 02RD 02RO	0	1	2.38464212418	284.0	279.0	None	None	0
2.7	2015_May_06_1304	s	s	5	3	SIC	103	RC	2	1	02VD 09VO 02VC 02MD 02MO 02MC 02RD 02RO	1	0	1.24710011482	83.0	-89.0	82	-84	1
2.7	2015_May_06_1304	s	s	5	3	SIC	104	ABS	2	1	02VD 10VO 02VC 02MD 02MO 02MC 02RD 02RO	0	1	1.75074291229	None	None	None	None	1
2.7	2015_May_06_1304	s	s	5	3	SIC	105	ABS	0	2	02VD 02VO 02VC 02MD 02MO 02MC 10RD 02RO	0	1	2.67131710052	None	None	None	None	1
2.7	2015_May_06_1304	s	s	5	3	SIC	106	ABS	2	2	10VD 02VO 02VC 02MD 02MO 02MC 02RD 02RO	0	1	1.93604493141	None	None	None	None	1
2.7	2015_May_06_1304	s	s	5	3	SIC	107	RC	1	1	02VD 02VO 02VC 02MD 09MO 02MC 02RD 02RO	1	0	1.31273388863	-4.0	15.0	-8	13	1
2.7	2015_May_06_1304	s	s	5	3	SIC	108	RC	2	2	09VD 02VO 02VC 02MD 02MO 02MC 02RD 02RO	1	0	3.02433085442	-223.0	302.0	-228	299	1
2.7	2015_May_06_1304	s	s	5	3	SIC	109	RC	0	2	02VD 02VO 02VC 02MD 02MO 02MC 09RD 02RO	1	0	4.49093794823	172.0	26.0	179	24	1
2.7	2015_May_06_1304	s	s	5	3	SIC	110	ABS	1	2	02VD 02VO 02VC 10MD 02MO 02MC 02RD 02RO	0	1	1.9651260376	None	None	None	None	1
2.7	2015_May_06_1304	s	s	5	3	SIC	111	RC	0	1	02VD 02VO 02VC 02MD 02MO 02MC 02RD 09RO	1	0	2.28313207626	43.0	-337.0	42	-335	1
2.7	2015_May_06_1304	s	s	5	3	SIC	112	ABS	0	1	02VD 02VO 02VC 02MD 02MO 02MC 02RD 10RO	0	1	3.21017003059	None	None	None	None	1
2.7	2015_May_06_1304	s	s	5	3	SIC	113	RC	2	0	02VD 02VO 09VC 02MD 02MO 02MC 02RD 02RO	1	0	1.61184501648	317.0	-176.0	321	-182	1
2.7	2015_May_06_1304	s	s	5	3	SIC	114	ABS	1	1	02VD 02VO 02VC 02MD 10MO 02MC 02RD 02RO	0	1	2.93675899506	None	None	None	None	1
2.7	2015_May_06_1304	s	s	5	3	SIC	115	RC	2	2	09VD 02VO 02VC 02MD 02MO 02MC 02RD 02RO	1	0	1.48981499672	-388.0	-398.0	-384	-397	1
2.7	2015_May_06_1304	s	s	5	3	SIC	116	RC	1	2	02VD 02VO 02VC 09MD 02MO 02MC 02RD 02RO	1	0	1.89161801338	-113.0	372.0	-115	376	1
2.7	2015_May_06_1304	s	s	5	3	SIC	117	RC	1	0	02VD 02VO 02VC 02MD 02MO 09MC 02RD 02RO	1	0	0.906117916107	-64.0	260.0	-65	262	1
2.7	2015_May_06_1304	s	s	5	3	SIC	118	RC	0	1	02VD 02VO 02VC 02MD 02MO 02MC 02RD 09RO	1	0	1.53882098198	-228.0	-238.0	-229	-234	1
2.7	2015_May_06_1304	s	s	5	3	SIC	119	ABS	2	1	02VD 10VO 02VC 02MD 02MO 02MC 02RD 02RO	0	1	2.16274285316	None	None	None	None	1
2.7	2015_May_06_1304	s	s	5	3	SIC	120	RC	0	2	02VD 02VO 02VC 02MD 02MO 02MC 09RD 02RO	1	0	0.86723613739	-50.0	75.0	-51	69	1
2.7	2015_May_06_1304	s	s	5	3	SIC	121	RC	2	1	02VD 09VO 02VC 02MD 02MO 02MC 02RD 02RO	1	0	4.92587995529	-107.0	-192.0	-104	-195	1
2.7	2015_May_06_1304	s	s	5	3	SIC	122	ABS	0	2	02VD 02VO 02VC 02MD 02MO 02MC 10RD 02RO	0	1	2.63589501381	None	None	None	None	1
2.7	2015_May_06_1304	s	s	5	3	SIC	123	ABS	2	0	02VD 02VO 10VC 02MD 02MO 02MC 02RD 02RO	0	1	2.83590507507	None	None	None	None	1
2.7	2015_May_06_1304	s	s	5	3	SIC	124	ABS	1	0	02VD 02VO 02VC 02MD 02MO 10MC 02RD 02RO	0	1	6.77669405937	None	None	None	None	1
2.7	2015_May_06_1304	s	s	5	3	SIC	125	ABS	0	1	02VD 02VO 02VC 02MD 02MO 02MC 02RD 10RO	0	1	4.45562410355	None	None	None	None	1
2.7	2015_May_06_1304	s	s	5	3	SIC	126	ABS	1	2	02VD 02VO 02VC 10MD 02MO 02MC 02RD 02RO	0	1	3.37265396118	None	None	None	None	1
2.7	2015_May_06_1304	s	s	5	3	SIC	127	RC	1	1	02VD 02VO 02VC 02MD 09MO 02MC 02RD 02RO	1	0	1.17220902443	-234.0	387.0	-228	385	1
2.7	2015_May_06_1304	s	s	5	3	SIC	128	ABS	2	2	10VD 02VO 02VC 02MD 02MO 02MC 02RD 02RO	0	1	3.41963601112	None	None	None	None	1
2.7	2015_May_06_1304	s	s	5	3	SIC	129	RC	2	1	02VD 09VO 02VC 02MD 02MO 02MC 02RD 02RO	1	0	2.60742211342	377.0	319.0	379	318	1
2.7	2015_May_06_1304	s	s	5	3	SIC	130	RC	0	1	02VD 02VO 02VC 02MD 02MO 02MC 02RD 09RO	1	0	6.18795514107	168.0	351.0	169	345	1
2.7	2015_May_06_1304	s	s	5	3	SIC	131	ABS	0	2	02VD 02VO 02VC 02MD 02MO 02MC 10RD 02RO	0	1	2.08967804909	None	None	None	None	1
2.7	2015_May_06_1304	s	s	5	3	SIC	132	ABS	0	1	02VD 02VO 02VC 02MD 02MO 02MC 02RD 10RO	0	1	5.01922512054	None	None	None	None	1
2.7	2015_May_06_1304	s	s	5	3	SIC	133	RC	0	2	02VD 02VO 02VC 02MD 02MO 02MC 09RD 02RO	1	0	3.63080501556	174.0	-89.0	170	-94	1
2.7	2015_May_06_1304	s	s	5	3	SIC	134	ABS	1	0	02VD 02VO 02VC 02MD 02MO 10MC 02RD 02RO	0	1	3.0714070797	None	None	None	None	1
2.7	2015_May_06_1304	s	s	5	3	SIC	135	RC	1	0	02VD 02VO 02VC 02MD 02MO 09MC 02RD 02RO	1	0	2.36525893211	245.0	-135.0	248	-139	1
2.7	2015_May_06_1304	s	s	5	3	SIC	136	ABS	2	1	02VD 10VO 02VC 02MD 02MO 02MC 02RD 02RO	0	1	2.45926594734	None	None	None	None	1
2.7	2015_May_06_1304	s	s	5	3	SIC	137	ABS	2	0	02VD 02VO 10VC 02MD 02MO 02MC 02RD 02RO	0	1	1.78848695755	None	None	None	None	1
2.7	2015_May_06_1304	s	s	5	3	SIC	138	RC	2	0	02VD 02VO 09VC 02MD 02MO 02MC 02RD 02RO	1	0	1.47869706154	-291.0	-249.0	-292	-248	1
2.7	2015_May_06_1304	s	s	5	3	SIC	139	RC	1	2	02VD 02VO 02VC 09MD 02MO 02MC 02RD 02RO	1	0	2.35356020927	-386.0	-314.0	-390	-318	1
2.7	2015_May_06_1304	s	s	5	3	SIC	140	ABS	1	2	02VD 02VO 02VC 10MD 02MO 02MC 02RD 02RO	0	1	2.73939204216	None	None	None	None	1
2.7	2015_May_06_1304	s	s	5	3	SIC	141	ABS	1	1	02VD 02VO 02VC 02MD 10MO 02MC 02RD 02RO	0	1	2.90677905083	None	None	None	None	1
2.7	2015_May_06_1304	s	s	5	3	SIC	142	RC	1	1	02VD 02VO 02VC 02MD 09MO 02MC 02RD 02RO	1	0	1.67083311081	-197.0	112.0	-203	116	1
2.7	2015_May_06_1304	s	s	5	3	SIC	143	ABS	2	2	10VD 02VO 02VC 02MD 02MO 02MC 02RD 02RO	0	1	1.74835109711	None	None	None	None	1
2.7	2015_May_06_1304	s	s	5	3	SIC	144	RC	2	2	09VD 02VO 02VC 02MD 02MO 02MC 02RD 02RO	1	0	2.1485209465	530.0	242.0	536	242	1
2.7	2015_May_06_1304	s	s	5	3	SIC	145	RC	2	0	02VD 02VO 09VC 02MD 02MO 02MC 02RD 02RO	1	0	2.60714197159	-37.0	374.0	-31	377	1
2.7	2015_May_06_1304	s	s	5	3	SIC	146	RC	1	0	02VD 02VO 02VC 02MD 02MO 09MC 02RD 02RO	0	1	3.72483181953	-38.0	-36.0	None	None	0
2.7	2015_May_06_1304	s	s	5	3	SIC	147	ABS	0	2	02VD 02VO 02VC 02MD 02MO 02MC 10RD 02RO	0	1	2.47924113274	None	None	None	None	1
2.7	2015_May_06_1304	s	s	5	3	SIC	148	RC	0	2	02VD 02VO 02VC 02MD 02MO 02MC 09RD 02RO	0	1	2.26742005348	-119.0	206.0	None	None	0
2.7	2015_May_06_1304	s	s	5	3	SIC	149	ABS	1	1	02VD 02VO 02VC 02MD 10MO 02MC 02RD 02RO	0	1	2.8065237999	None	None	None	None	1
2.7	2015_May_06_1304	s	s	5	3	SIC	150	ABS	1	2	02VD 02VO 02VC 10MD 02MO 02MC 02RD 02RO	0	1	1.91807794571	None	None	None	None	1
2.7	2015_May_06_1304	s	s	5	3	SIC	151	RC	2	2	09VD 02VO 02VC 02MD 02MO 02MC 02RD 02RO	1	0	1.32364106178	113.0	-324.0	121	-322	1
2.7	2015_May_06_1304	s	s	5	3	SIC	152	RC	1	2	02VD 02VO 02VC 09MD 02MO 02MC 02RD 02RO	1	0	1.45453906059	-417.0	-275.0	-419	-275	1
2.7	2015_May_06_1304	s	s	5	3	SIC	153	RC	1	1	02VD 02VO 02VC 02MD 09MO 02MC 02RD 02RO	1	0	0.846854925156	51.0	-185.0	52	-179	1
2.7	2015_May_06_1304	s	s	5	3	SIC	154	ABS	2	1	02VD 10VO 02VC 02MD 02MO 02MC 02RD 02RO	0	1	3.98963117599	None	None	None	None	1
2.7	2015_May_06_1304	s	s	5	3	SIC	155	ABS	2	2	10VD 02VO 02VC 02MD 02MO 02MC 02RD 02RO	0	1	2.50100302696	None	None	None	None	1
2.7	2015_May_06_1304	s	s	5	3	SIC	156	ABS	2	0	02VD 02VO 10VC 02MD 02MO 02MC 02RD 02RO	0	1	3.74884295464	None	None	None	None	1
2.7	2015_May_06_1304	s	s	5	3	SIC	157	RC	2	1	02VD 09VO 02VC 02MD 02MO 02MC 02RD 02RO	1	0	1.94187188148	429.0	322.0	430	319	1
2.7	2015_May_06_1304	s	s	5	3	SIC	158	RC	0	1	02VD 02VO 02VC 02MD 02MO 02MC 02RD 09RO	0	1	3.29525303841	-358.0	5.0	None	None	0
2.7	2015_May_06_1304	s	s	5	3	SIC	159	ABS	1	0	02VD 02VO 02VC 02MD 02MO 10MC 02RD 02RO	0	1	2.74196791649	None	None	None	None	1
2.7	2015_May_06_1304	s	s	5	3	SIC	160	ABS	0	1	02VD 02VO 02VC 02MD 02MO 02MC 02RD 10RO	0	1	4.94011902809	None	None	None	None	1
2.7	2015_May_06_1304	s	s	5	3	SIC	161	ABS	1	1	02VD 02VO 02VC 02MD 10MO 02MC 02RD 02RO	0	1	2.76137018204	None	None	None	None	1
2.7	2015_May_06_1304	s	s	5	3	SIC	162	ABS	2	2	10VD 02VO 02VC 02MD 02MO 02MC 02RD 02RO	0	1	2.12295198441	None	None	None	None	1
2.7	2015_May_06_1304	s	s	5	3	SIC	163	ABS	0	2	02VD 02VO 02VC 02MD 02MO 02MC 10RD 02RO	0	1	2.21595001221	None	None	None	None	1
2.7	2015_May_06_1304	s	s	5	3	SIC	164	RC	0	2	02VD 02VO 02VC 02MD 02MO 02MC 09RD 02RO	1	0	1.37658500671	-82.0	39.0	-79	39	1
2.7	2015_May_06_1304	s	s	5	3	SIC	165	ABS	2	1	02VD 10VO 02VC 02MD 02MO 02MC 02RD 02RO	0	1	1.81892991066	None	None	None	None	1
2.7	2015_May_06_1304	s	s	5	3	SIC	166	RC	1	0	02VD 02VO 02VC 02MD 02MO 09MC 02RD 02RO	1	0	2.01221013069	-123.0	376.0	-120	382	1
2.7	2015_May_06_1304	s	s	5	3	SIC	167	ABS	2	0	02VD 02VO 10VC 02MD 02MO 02MC 02RD 02RO	0	1	2.4173078537	None	None	None	None	1
2.7	2015_May_06_1304	s	s	5	3	SIC	168	RC	0	1	02VD 02VO 02VC 02MD 02MO 02MC 02RD 09RO	0	1	4.33832192421	-198.0	405.0	None	None	0
2.7	2015_May_06_1304	s	s	5	3	SIC	169	ABS	0	1	02VD 02VO 02VC 02MD 02MO 02MC 02RD 10RO	0	1	4.8724219799	None	None	None	None	1
2.7	2015_May_06_1304	s	s	5	3	SIC	170	RC	2	0	02VD 02VO 09VC 02MD 02MO 02MC 02RD 02RO	1	0	1.59532213211	176.0	245.0	179	249	1
2.7	2015_May_06_1304	s	s	5	3	SIC	171	RC	2	2	09VD 02VO 02VC 02MD 02MO 02MC 02RD 02RO	1	0	1.31259298325	106.0	-98.0	108	-95	1
2.7	2015_May_06_1304	s	s	5	3	SIC	172	RC	2	1	02VD 09VO 02VC 02MD 02MO 02MC 02RD 02RO	1	0	2.56532406807	504.0	-3.0	502	-7	1
2.7	2015_May_06_1304	s	s	5	3	SIC	173	RC	1	2	02VD 02VO 02VC 09MD 02MO 02MC 02RD 02RO	1	0	1.02334094048	137.0	-341.0	135	-335	1
2.7	2015_May_06_1304	s	s	5	3	SIC	174	ABS	1	0	02VD 02VO 02VC 02MD 02MO 10MC 02RD 02RO	0	1	4.29231095314	None	None	None	None	1
2.7	2015_May_06_1304	s	s	5	3	SIC	175	ABS	1	2	02VD 02VO 02VC 10MD 02MO 02MC 02RD 02RO	0	1	2.38394498825	None	None	None	None	1
2.7	2015_May_06_1304	s	s	5	3	SIC	176	RC	1	1	02VD 02VO 02VC 02MD 09MO 02MC 02RD 02RO	1	0	3.73676085472	127.0	-330.0	131	-329	1
2.7	2015_May_06_1304	s	s	5	3	SIC	177	ABS	1	2	02VD 02VO 02VC 10MD 02MO 02MC 02RD 02RO	0	1	1.91375994682	None	None	None	None	1
2.7	2015_May_06_1304	s	s	5	3	SIC	178	ABS	0	1	02VD 02VO 02VC 02MD 02MO 02MC 02RD 10RO	0	1	3.51909685135	None	None	None	None	1
2.7	2015_May_06_1304	s	s	5	3	SIC	179	RC	2	0	02VD 02VO 09VC 02MD 02MO 02MC 02RD 02RO	1	0	0.858664989471	-207.0	-360.0	-203	-355	1
2.7	2015_May_06_1304	s	s	5	3	SIC	180	ABS	1	0	02VD 02VO 02VC 02MD 02MO 10MC 02RD 02RO	0	1	2.62411999702	None	None	None	None	1
2.7	2015_May_06_1304	s	s	5	3	SIC	181	RC	0	2	02VD 02VO 02VC 02MD 02MO 02MC 09RD 02RO	1	0	1.3064930439	202.0	63.0	200	69	1
2.7	2015_May_06_1304	s	s	5	3	SIC	182	ABS	0	2	02VD 02VO 02VC 02MD 02MO 02MC 10RD 02RO	0	1	2.1977250576	None	None	None	None	1
2.7	2015_May_06_1304	s	s	5	3	SIC	183	RC	2	1	02VD 09VO 02VC 02MD 02MO 02MC 02RD 02RO	1	0	1.08221507072	-28.0	312.0	-30	313	1
2.7	2015_May_06_1304	s	s	5	3	SIC	184	ABS	2	0	02VD 02VO 10VC 02MD 02MO 02MC 02RD 02RO	0	1	1.62364816666	None	None	None	None	1
2.7	2015_May_06_1304	s	s	5	3	SIC	185	RC	1	2	02VD 02VO 02VC 09MD 02MO 02MC 02RD 02RO	1	0	0.806915998459	226.0	179.0	229	179	1
2.7	2015_May_06_1304	s	s	5	3	SIC	186	ABS	2	1	02VD 10VO 02VC 02MD 02MO 02MC 02RD 02RO	0	1	2.80119991302	None	None	None	None	1
2.7	2015_May_06_1304	s	s	5	3	SIC	187	RC	1	0	02VD 02VO 02VC 02MD 02MO 09MC 02RD 02RO	1	0	1.1644949913	56.0	215.0	56	207	1
2.7	2015_May_06_1304	s	s	5	3	SIC	188	RC	0	1	02VD 02VO 02VC 02MD 02MO 02MC 02RD 09RO	1	0	3.431609869	103.0	-187.0	100	-190	1
2.7	2015_May_06_1304	s	s	5	3	SIC	189	RC	1	1	02VD 02VO 02VC 02MD 09MO 02MC 02RD 02RO	1	0	2.28291583061	-467.0	361.0	-465	366	1
2.7	2015_May_06_1304	s	s	5	3	SIC	190	ABS	1	1	02VD 02VO 02VC 02MD 10MO 02MC 02RD 02RO	0	1	2.6595158577	None	None	None	None	1
2.7	2015_May_06_1304	s	s	5	3	SIC	191	RC	2	2	09VD 02VO 02VC 02MD 02MO 02MC 02RD 02RO	1	0	2.04312396049	-285.0	250.0	-281	244	1
2.7	2015_May_06_1304	s	s	5	3	SIC	192	ABS	2	2	10VD 02VO 02VC 02MD 02MO 02MC 02RD 02RO	0	1	2.48304390907	None	None	None	None	1
2.7	2015_May_06_1304	s	s	5	3	SIC	193	RC	1	2	02VD 02VO 02VC 09MD 02MO 02MC 02RD 02RO	1	0	1.99478602409	81.0	148.0	87	152	1
2.7	2015_May_06_1304	s	s	5	3	SIC	194	RC	1	0	02VD 02VO 02VC 02MD 02MO 09MC 02RD 02RO	1	0	2.00689506531	-257.0	-293.0	-257	-293	1
2.7	2015_May_06_1304	s	s	5	3	SIC	195	ABS	1	2	02VD 02VO 02VC 10MD 02MO 02MC 02RD 02RO	0	1	2.65948414803	None	None	None	None	1
2.7	2015_May_06_1304	s	s	5	3	SIC	196	RC	2	2	09VD 02VO 02VC 02MD 02MO 02MC 02RD 02RO	1	0	2.28039383888	-32.0	377.0	-35	368	1
2.7	2015_May_06_1304	s	s	5	3	SIC	197	ABS	0	2	02VD 02VO 02VC 02MD 02MO 02MC 10RD 02RO	0	1	2.69536399841	None	None	None	None	1
2.7	2015_May_06_1304	s	s	5	3	SIC	198	ABS	2	0	02VD 02VO 10VC 02MD 02MO 02MC 02RD 02RO	0	1	3.52543497086	None	None	None	None	1
2.7	2015_May_06_1304	s	s	5	3	SIC	199	ABS	1	0	02VD 02VO 02VC 02MD 02MO 10MC 02RD 02RO	0	1	2.67119407654	None	None	None	None	1
2.7	2015_May_06_1304	s	s	5	3	SIC	200	RC	1	1	02VD 02VO 02VC 02MD 09MO 02MC 02RD 02RO	1	0	1.69033193588	-27.0	-273.0	-23	-272	1
2.7	2015_May_06_1304	s	s	5	3	SIC	201	RC	2	1	02VD 09VO 02VC 02MD 02MO 02MC 02RD 02RO	1	0	3.45978212357	-440.0	295.0	-450	299	1
2.7	2015_May_06_1304	s	s	5	3	SIC	202	ABS	2	2	10VD 02VO 02VC 02MD 02MO 02MC 02RD 02RO	0	1	2.32994580269	None	None	None	None	1
2.7	2015_May_06_1304	s	s	5	3	SIC	203	ABS	0	1	02VD 02VO 02VC 02MD 02MO 02MC 02RD 10RO	0	1	4.61346292496	None	None	None	None	1
2.7	2015_May_06_1304	s	s	5	3	SIC	204	RC	2	0	02VD 02VO 09VC 02MD 02MO 02MC 02RD 02RO	1	0	1.12416791916	-269.0	-106.0	-275	-100	1
2.7	2015_May_06_1304	s	s	5	3	SIC	205	ABS	1	1	02VD 02VO 02VC 02MD 10MO 02MC 02RD 02RO	0	1	3.82488703728	None	None	None	None	1
2.7	2015_May_06_1304	s	s	5	3	SIC	206	RC	0	2	02VD 02VO 02VC 02MD 02MO 02MC 09RD 02RO	1	0	1.9885468483	-385.0	-185.0	-378	-187	1
2.7	2015_May_06_1304	s	s	5	3	SIC	207	ABS	2	1	02VD 10VO 02VC 02MD 02MO 02MC 02RD 02RO	0	1	1.75958299637	None	None	None	None	1
2.7	2015_May_06_1304	s	s	5	3	SIC	208	RC	0	1	02VD 02VO 02VC 02MD 02MO 02MC 02RD 09RO	0	1	3.23305988312	478.0	187.0	None	None	0
2.7	2015_May_06_1304	s	s	5	3	SIC	209	ABS	0	2	02VD 02VO 02VC 02MD 02MO 02MC 10RD 02RO	0	1	1.74137806892	None	None	None	None	1
2.7	2015_May_06_1304	s	s	5	3	SIC	210	RC	1	0	02VD 02VO 02VC 02MD 02MO 09MC 02RD 02RO	1	0	1.31778788567	-47.0	-51.0	-48	-53	1
2.7	2015_May_06_1304	s	s	5	3	SIC	211	ABS	2	0	02VD 02VO 10VC 02MD 02MO 02MC 02RD 02RO	0	1	1.89444303513	None	None	None	None	1
2.7	2015_May_06_1304	s	s	5	3	SIC	212	RC	2	2	09VD 02VO 02VC 02MD 02MO 02MC 02RD 02RO	1	0	2.0239508152	-395.0	156.0	-399	155	1
2.7	2015_May_06_1304	s	s	5	3	SIC	213	ABS	1	2	02VD 02VO 02VC 10MD 02MO 02MC 02RD 02RO	0	1	2.34175896645	None	None	None	None	1
2.7	2015_May_06_1304	s	s	5	3	SIC	214	ABS	0	1	02VD 02VO 02VC 02MD 02MO 02MC 02RD 10RO	0	1	4.04443001747	None	None	None	None	1
2.7	2015_May_06_1304	s	s	5	3	SIC	215	RC	0	1	02VD 02VO 02VC 02MD 02MO 02MC 02RD 09RO	1	0	2.62427997589	-402.0	127.0	-399	127	1
2.7	2015_May_06_1304	s	s	5	3	SIC	216	RC	2	1	02VD 09VO 02VC 02MD 02MO 02MC 02RD 02RO	1	0	1.97676086426	525.0	-308.0	530	-309	1
2.7	2015_May_06_1304	s	s	5	3	SIC	217	ABS	2	2	10VD 02VO 02VC 02MD 02MO 02MC 02RD 02RO	0	1	2.54189705849	None	None	None	None	1
2.7	2015_May_06_1304	s	s	5	3	SIC	218	RC	2	0	02VD 02VO 09VC 02MD 02MO 02MC 02RD 02RO	1	0	1.38832998276	-421.0	-58.0	-421	-50	1
2.7	2015_May_06_1304	s	s	5	3	SIC	219	RC	1	1	02VD 02VO 02VC 02MD 09MO 02MC 02RD 02RO	1	0	2.40060997009	155.0	-130.0	160	-129	1
2.7	2015_May_06_1304	s	s	5	3	SIC	220	ABS	2	1	02VD 10VO 02VC 02MD 02MO 02MC 02RD 02RO	0	1	1.90617990494	None	None	None	None	1
2.7	2015_May_06_1304	s	s	5	3	SIC	221	RC	0	2	02VD 02VO 02VC 02MD 02MO 02MC 09RD 02RO	1	0	2.34174513817	519.0	383.0	523	385	1
2.7	2015_May_06_1304	s	s	5	3	SIC	222	ABS	1	1	02VD 02VO 02VC 02MD 10MO 02MC 02RD 02RO	0	1	2.78503012657	None	None	None	None	1
2.7	2015_May_06_1304	s	s	5	3	SIC	223	ABS	1	0	02VD 02VO 02VC 02MD 02MO 10MC 02RD 02RO	0	1	3.41994810104	None	None	None	None	1
2.7	2015_May_06_1304	s	s	5	3	SIC	224	RC	1	2	02VD 02VO 02VC 09MD 02MO 02MC 02RD 02RO	1	0	1.3269340992	-69.0	-316.0	-69	-313	1
2.7	2015_May_06_1304	s	s	5	3	SIC	225	ABS	2	2	10VD 02VO 02VC 02MD 02MO 02MC 02RD 02RO	0	1	1.80030298233	None	None	None	None	1
2.7	2015_May_06_1304	s	s	5	3	SIC	226	RC	1	2	02VD 02VO 02VC 09MD 02MO 02MC 02RD 02RO	1	0	1.68951702118	-328.0	317.0	-326	320	1
2.7	2015_May_06_1304	s	s	5	3	SIC	227	ABS	1	2	02VD 02VO 02VC 10MD 02MO 02MC 02RD 02RO	0	1	2.00043082237	None	None	None	None	1
2.7	2015_May_06_1304	s	s	5	3	SIC	228	RC	1	1	02VD 02VO 02VC 02MD 09MO 02MC 02RD 02RO	1	0	2.05929088593	389.0	-100.0	390	-98	1
2.7	2015_May_06_1304	s	s	5	3	SIC	229	ABS	2	0	02VD 02VO 10VC 02MD 02MO 02MC 02RD 02RO	0	1	2.16218876839	None	None	None	None	1
2.7	2015_May_06_1304	s	s	5	3	SIC	230	RC	1	0	02VD 02VO 02VC 02MD 02MO 09MC 02RD 02RO	1	0	2.30140113831	383.0	-198.0	387	-196	1
2.7	2015_May_06_1304	s	s	5	3	SIC	231	RC	2	2	09VD 02VO 02VC 02MD 02MO 02MC 02RD 02RO	1	0	0.971007823944	-197.0	-318.0	-203	-312	1
2.7	2015_May_06_1304	s	s	5	3	SIC	232	ABS	1	0	02VD 02VO 02VC 02MD 02MO 10MC 02RD 02RO	0	1	1.57667303085	None	None	None	None	1
2.7	2015_May_06_1304	s	s	5	3	SIC	233	RC	0	1	02VD 02VO 02VC 02MD 02MO 02MC 02RD 09RO	1	0	1.97352218628	-439.0	-129.0	-436	-127	1
2.7	2015_May_06_1304	s	s	5	3	SIC	234	ABS	2	1	02VD 10VO 02VC 02MD 02MO 02MC 02RD 02RO	0	1	2.02373313904	None	None	None	None	1
2.7	2015_May_06_1304	s	s	5	3	SIC	235	ABS	0	1	02VD 02VO 02VC 02MD 02MO 02MC 02RD 10RO	0	1	4.86707496643	None	None	None	None	1
2.7	2015_May_06_1304	s	s	5	3	SIC	236	ABS	0	2	02VD 02VO 02VC 02MD 02MO 02MC 10RD 02RO	0	1	1.68255996704	None	None	None	None	1
2.7	2015_May_06_1304	s	s	5	3	SIC	237	RC	2	1	02VD 09VO 02VC 02MD 02MO 02MC 02RD 02RO	1	0	1.41993498802	279.0	406.0	282	401	1
2.7	2015_May_06_1304	s	s	5	3	SIC	238	ABS	1	1	02VD 02VO 02VC 02MD 10MO 02MC 02RD 02RO	0	1	2.24754786491	None	None	None	None	1
2.7	2015_May_06_1304	s	s	5	3	SIC	239	RC	2	0	02VD 02VO 09VC 02MD 02MO 02MC 02RD 02RO	1	0	2.90707397461	-44.0	-45.0	-41	-47	1
2.7	2015_May_06_1304	s	s	5	3	SIC	240	RC	0	2	02VD 02VO 02VC 02MD 02MO 02MC 09RD 02RO	1	0	2.58431696892	124.0	-88.0	132	-89	1
2.7	2015_May_06_1304	s	s	5	3	SIC	241	ABS	1	2	02VD 02VO 02VC 10MD 02MO 02MC 02RD 02RO	0	1	1.89440989494	None	None	None	None	1
2.7	2015_May_06_1304	s	s	5	3	SIC	242	RC	2	0	02VD 02VO 09VC 02MD 02MO 02MC 02RD 02RO	1	0	1.29415106773	99.0	-169.0	97	-171	1
2.7	2015_May_06_1304	s	s	5	3	SIC	243	RC	0	1	02VD 02VO 02VC 02MD 02MO 02MC 02RD 09RO	1	0	1.6354970932	310.0	67.0	317	68	1
2.7	2015_May_06_1304	s	s	5	3	SIC	244	RC	1	2	02VD 02VO 02VC 09MD 02MO 02MC 02RD 02RO	1	0	1.88020396233	131.0	114.0	132	112	1
2.7	2015_May_06_1304	s	s	5	3	SIC	245	ABS	1	0	02VD 02VO 02VC 02MD 02MO 10MC 02RD 02RO	0	1	2.98910808563	None	None	None	None	1
2.7	2015_May_06_1304	s	s	5	3	SIC	246	RC	1	1	02VD 02VO 02VC 02MD 09MO 02MC 02RD 02RO	1	0	1.95150899887	317.0	1.0	310	4	1
2.7	2015_May_06_1304	s	s	5	3	SIC	247	ABS	2	0	02VD 02VO 10VC 02MD 02MO 02MC 02RD 02RO	0	1	1.5356900692	None	None	None	None	1
2.7	2015_May_06_1304	s	s	5	3	SIC	248	ABS	2	1	02VD 10VO 02VC 02MD 02MO 02MC 02RD 02RO	0	1	2.93029403687	None	None	None	None	1
2.7	2015_May_06_1304	s	s	5	3	SIC	249	RC	2	1	02VD 09VO 02VC 02MD 02MO 02MC 02RD 02RO	1	0	2.06729602814	139.0	-211.0	143	-212	1
2.7	2015_May_06_1304	s	s	5	3	SIC	250	RC	0	2	02VD 02VO 02VC 02MD 02MO 02MC 09RD 02RO	1	0	2.51545000076	46.0	-315.0	47	-319	1
2.7	2015_May_06_1304	s	s	5	3	SIC	251	RC	1	0	02VD 02VO 02VC 02MD 02MO 09MC 02RD 02RO	1	0	2.25939798355	-516.0	-371.0	-522	-372	1
2.7	2015_May_06_1304	s	s	5	3	SIC	252	ABS	0	1	02VD 02VO 02VC 02MD 02MO 02MC 02RD 10RO	0	1	3.57753014565	None	None	None	None	1
2.7	2015_May_06_1304	s	s	5	3	SIC	253	ABS	2	2	10VD 02VO 02VC 02MD 02MO 02MC 02RD 02RO	0	1	2.57392287254	None	None	None	None	1
2.7	2015_May_06_1304	s	s	5	3	SIC	254	ABS	1	1	02VD 02VO 02VC 02MD 10MO 02MC 02RD 02RO	0	1	2.78892493248	None	None	None	None	1
2.7	2015_May_06_1304	s	s	5	3	SIC	255	RC	2	2	09VD 02VO 02VC 02MD 02MO 02MC 02RD 02RO	1	0	1.80725002289	245.0	-247.0	246	-252	1
2.7	2015_May_06_1304	s	s	5	3	SIC	256	ABS	0	2	02VD 02VO 02VC 02MD 02MO 02MC 10RD 02RO	0	1	4.00138497353	None	None	None	None	1
2.7	2015_May_06_1304	s	s	5	3	SIC	257	ABS	2	0	02VD 02VO 10VC 02MD 02MO 02MC 02RD 02RO	0	1	2.73758506775	None	None	None	None	1
2.7	2015_May_06_1304	s	s	5	3	SIC	258	ABS	0	2	02VD 02VO 02VC 02MD 02MO 02MC 10RD 02RO	0	1	2.44766998291	None	None	None	None	1
2.7	2015_May_06_1304	s	s	5	3	SIC	259	ABS	0	1	02VD 02VO 02VC 02MD 02MO 02MC 02RD 10RO	0	1	5.03722500801	None	None	None	None	1
2.7	2015_May_06_1304	s	s	5	3	SIC	260	ABS	1	2	02VD 02VO 02VC 10MD 02MO 02MC 02RD 02RO	0	1	2.15364193916	None	None	None	None	1
2.7	2015_May_06_1304	s	s	5	3	SIC	261	RC	0	2	02VD 02VO 02VC 02MD 02MO 02MC 09RD 02RO	1	0	2.49264597893	368.0	404.0	370	408	1
2.7	2015_May_06_1304	s	s	5	3	SIC	262	RC	2	0	02VD 02VO 09VC 02MD 02MO 02MC 02RD 02RO	1	0	2.00959300995	-483.0	-64.0	-483	-68	1
2.7	2015_May_06_1304	s	s	5	3	SIC	263	RC	1	2	02VD 02VO 02VC 09MD 02MO 02MC 02RD 02RO	1	0	0.891352891922	17.0	265.0	12	266	1
2.7	2015_May_06_1304	s	s	5	3	SIC	264	ABS	2	1	02VD 10VO 02VC 02MD 02MO 02MC 02RD 02RO	0	1	2.44386506081	None	None	None	None	1
2.7	2015_May_06_1304	s	s	5	3	SIC	265	RC	1	0	02VD 02VO 02VC 02MD 02MO 09MC 02RD 02RO	1	0	1.48236393929	-263.0	-216.0	-265	-215	1
2.7	2015_May_06_1304	s	s	5	3	SIC	266	RC	2	2	09VD 02VO 02VC 02MD 02MO 02MC 02RD 02RO	1	0	1.79709506035	-155.0	148.0	-151	151	1
2.7	2015_May_06_1304	s	s	5	3	SIC	267	RC	2	1	02VD 09VO 02VC 02MD 02MO 02MC 02RD 02RO	1	0	1.47851490974	342.0	-45.0	340	-46	1
2.7	2015_May_06_1304	s	s	5	3	SIC	268	ABS	1	0	02VD 02VO 02VC 02MD 02MO 10MC 02RD 02RO	0	1	5.24401116371	None	None	None	None	1
2.7	2015_May_06_1304	s	s	5	3	SIC	269	ABS	1	1	02VD 02VO 02VC 02MD 10MO 02MC 02RD 02RO	1	0	2.65969991684	None	None	96	31	0
2.7	2015_May_06_1304	s	s	5	3	SIC	270	ABS	2	2	10VD 02VO 02VC 02MD 02MO 02MC 02RD 02RO	0	1	2.78894710541	None	None	None	None	1
2.7	2015_May_06_1304	s	s	5	3	SIC	271	RC	1	1	02VD 02VO 02VC 02MD 09MO 02MC 02RD 02RO	1	0	0.737544059753	-96.0	-10.0	-100	-6	1
2.7	2015_May_06_1304	s	s	5	3	SIC	272	RC	0	1	02VD 02VO 02VC 02MD 02MO 02MC 02RD 09RO	1	0	1.06800985336	100.0	-123.0	95	-125	1
2.7	2015_May_06_1304	s	s	5	3	SIC	273	ABS	2	1	02VD 10VO 02VC 02MD 02MO 02MC 02RD 02RO	0	1	1.99484705925	None	None	None	None	1
2.7	2015_May_06_1304	s	s	5	3	SIC	274	ABS	0	1	02VD 02VO 02VC 02MD 02MO 02MC 02RD 10RO	0	1	4.56637597084	None	None	None	None	1
2.7	2015_May_06_1304	s	s	5	3	SIC	275	RC	0	2	02VD 02VO 02VC 02MD 02MO 02MC 09RD 02RO	1	0	2.12991690636	-420.0	-300.0	-421	-297	1
2.7	2015_May_06_1304	s	s	5	3	SIC	276	ABS	1	0	02VD 02VO 02VC 02MD 02MO 10MC 02RD 02RO	0	1	2.84773087502	None	None	None	None	1
2.7	2015_May_06_1304	s	s	5	3	SIC	277	ABS	1	2	02VD 02VO 02VC 10MD 02MO 02MC 02RD 02RO	0	1	3.9838321209	None	None	None	None	1
2.7	2015_May_06_1304	s	s	5	3	SIC	278	ABS	1	1	02VD 02VO 02VC 02MD 10MO 02MC 02RD 02RO	0	1	2.5514819622	None	None	None	None	1
2.7	2015_May_06_1304	s	s	5	3	SIC	279	ABS	2	2	10VD 02VO 02VC 02MD 02MO 02MC 02RD 02RO	0	1	1.98861289024	None	None	None	None	1
2.7	2015_May_06_1304	s	s	5	3	SIC	280	RC	2	2	09VD 02VO 02VC 02MD 02MO 02MC 02RD 02RO	1	0	1.47904896736	528.0	-222.0	521	-223	1
2.7	2015_May_06_1304	s	s	5	3	SIC	281	RC	2	0	02VD 02VO 09VC 02MD 02MO 02MC 02RD 02RO	1	0	2.00037693977	323.0	-180.0	328	-180	1
2.7	2015_May_06_1304	s	s	5	3	SIC	282	RC	1	2	02VD 02VO 02VC 09MD 02MO 02MC 02RD 02RO	1	0	3.7390370369	493.0	-248.0	489	-249	1
2.7	2015_May_06_1304	s	s	5	3	SIC	283	RC	2	1	02VD 09VO 02VC 02MD 02MO 02MC 02RD 02RO	1	0	1.47062802315	-479.0	69.0	-471	73	1
2.7	2015_May_06_1304	s	s	5	3	SIC	284	RC	0	1	02VD 02VO 02VC 02MD 02MO 02MC 02RD 09RO	1	0	2.80944108963	99.0	308.0	100	309	1
2.7	2015_May_06_1304	s	s	5	3	SIC	285	RC	1	1	02VD 02VO 02VC 02MD 09MO 02MC 02RD 02RO	1	0	2.8323340416	347.0	88.0	345	91	1
2.7	2015_May_06_1304	s	s	5	3	SIC	286	ABS	2	0	02VD 02VO 10VC 02MD 02MO 02MC 02RD 02RO	0	1	3.9307539463	None	None	None	None	1
2.7	2015_May_06_1304	s	s	5	3	SIC	287	RC	1	0	02VD 02VO 02VC 02MD 02MO 09MC 02RD 02RO	1	0	1.42093682289	-401.0	305.0	-399	311	1
2.7	2015_May_06_1304	s	s	5	3	SIC	288	ABS	0	2	02VD 02VO 02VC 02MD 02MO 02MC 10RD 02RO	0	1	4.16175699234	None	None	None	None	1
2.7	2015_May_06_1304	s	s	5	3	SIC	289	RC	1	2	02VD 02VO 02VC 09MD 02MO 02MC 02RD 02RO	1	0	1.01778292656	-62.0	232.0	-58	230	1
2.7	2015_May_06_1304	s	s	5	3	SIC	290	ABS	2	2	10VD 02VO 02VC 02MD 02MO 02MC 02RD 02RO	0	1	1.53580093384	None	None	None	None	1
2.7	2015_May_06_1304	s	s	5	3	SIC	291	RC	1	0	02VD 02VO 02VC 02MD 02MO 09MC 02RD 02RO	1	0	2.74193286896	-78.0	-275.0	-82	-277	1
2.7	2015_May_06_1304	s	s	5	3	SIC	292	RC	0	2	02VD 02VO 02VC 02MD 02MO 02MC 09RD 02RO	1	0	1.83607387543	527.0	226.0	535	230	1
2.7	2015_May_06_1304	s	s	5	3	SIC	293	ABS	1	0	02VD 02VO 02VC 02MD 02MO 10MC 02RD 02RO	0	1	2.58890295029	None	None	None	None	1
2.7	2015_May_06_1304	s	s	5	3	SIC	294	RC	2	2	09VD 02VO 02VC 02MD 02MO 02MC 02RD 02RO	1	0	1.08944201469	-102.0	-101.0	-97	-95	1
2.7	2015_May_06_1304	s	s	5	3	SIC	295	RC	2	0	02VD 02VO 09VC 02MD 02MO 02MC 02RD 02RO	1	0	1.20924901962	173.0	95.0	174	94	1
2.7	2015_May_06_1304	s	s	5	3	SIC	296	ABS	2	0	02VD 02VO 10VC 02MD 02MO 02MC 02RD 02RO	0	1	2.09092783928	None	None	None	None	1
2.7	2015_May_06_1304	s	s	5	3	SIC	297	RC	2	1	02VD 09VO 02VC 02MD 02MO 02MC 02RD 02RO	1	0	1.98862290382	-46.0	157.0	-49	154	1
2.7	2015_May_06_1304	s	s	5	3	SIC	298	ABS	1	1	02VD 02VO 02VC 02MD 10MO 02MC 02RD 02RO	0	1	2.80080389977	None	None	None	None	1
2.7	2015_May_06_1304	s	s	5	3	SIC	299	RC	1	1	02VD 02VO 02VC 02MD 09MO 02MC 02RD 02RO	1	0	1.48951506615	-530.0	-216.0	-531	-213	1
2.7	2015_May_06_1304	s	s	5	3	SIC	300	RC	0	1	02VD 02VO 02VC 02MD 02MO 02MC 02RD 09RO	0	1	3.11845898628	-312.0	-310.0	None	None	0
2.7	2015_May_06_1304	s	s	5	3	SIC	301	ABS	2	1	02VD 10VO 02VC 02MD 02MO 02MC 02RD 02RO	0	1	1.95094299316	None	None	None	None	1
2.7	2015_May_06_1304	s	s	5	3	SIC	302	ABS	1	2	02VD 02VO 02VC 10MD 02MO 02MC 02RD 02RO	0	1	2.29489898682	None	None	None	None	1
2.7	2015_May_06_1304	s	s	5	3	SIC	303	ABS	0	2	02VD 02VO 02VC 02MD 02MO 02MC 10RD 02RO	0	1	2.19781899452	None	None	None	None	1
2.7	2015_May_06_1304	s	s	5	3	SIC	304	ABS	0	1	02VD 02VO 02VC 02MD 02MO 02MC 02RD 10RO	0	1	3.53738093376	None	None	None	None	1
2.7	2015_May_06_1304	s	s	5	3	SIC	305	RC	1	2	02VD 02VO 02VC 09MD 02MO 02MC 02RD 02RO	1	0	2.50639486313	-451.0	5.0	-446	5	1
2.7	2015_May_06_1304	s	s	5	3	SIC	306	RC	2	1	02VD 09VO 02VC 02MD 02MO 02MC 02RD 02RO	0	1	3.39711403847	414.0	-320.0	None	None	0
2.7	2015_May_06_1304	s	s	5	3	SIC	307	RC	0	2	02VD 02VO 02VC 02MD 02MO 02MC 09RD 02RO	1	0	2.20031380653	472.0	265.0	475	258	1
2.7	2015_May_06_1304	s	s	5	3	SIC	308	ABS	1	2	02VD 02VO 02VC 10MD 02MO 02MC 02RD 02RO	0	1	2.32506608963	None	None	None	None	1
2.7	2015_May_06_1304	s	s	5	3	SIC	309	ABS	2	1	02VD 10VO 02VC 02MD 02MO 02MC 02RD 02RO	0	1	2.07445406914	None	None	None	None	1
2.7	2015_May_06_1304	s	s	5	3	SIC	310	RC	1	1	02VD 02VO 02VC 02MD 09MO 02MC 02RD 02RO	1	0	2.12505102158	25.0	-406.0	30	-405	1
2.7	2015_May_06_1304	s	s	5	3	SIC	311	RC	1	0	02VD 02VO 02VC 02MD 02MO 09MC 02RD 02RO	1	0	2.30642795563	316.0	-377.0	318	-380	1
2.7	2015_May_06_1304	s	s	5	3	SIC	312	RC	0	1	02VD 02VO 02VC 02MD 02MO 02MC 02RD 09RO	1	0	3.56374979019	-59.0	360.0	-60	360	1
2.7	2015_May_06_1304	s	s	5	3	SIC	313	ABS	2	0	02VD 02VO 10VC 02MD 02MO 02MC 02RD 02RO	0	1	2.34980511665	None	None	None	None	1
2.7	2015_May_06_1304	s	s	5	3	SIC	314	ABS	1	0	02VD 02VO 02VC 02MD 02MO 10MC 02RD 02RO	0	1	3.4128370285	None	None	None	None	1
2.7	2015_May_06_1304	s	s	5	3	SIC	315	RC	2	2	09VD 02VO 02VC 02MD 02MO 02MC 02RD 02RO	1	0	1.72643399239	185.0	-398.0	185	-403	1
2.7	2015_May_06_1304	s	s	5	3	SIC	316	ABS	0	1	02VD 02VO 02VC 02MD 02MO 02MC 02RD 10RO	0	1	3.85565400124	None	None	None	None	1
2.7	2015_May_06_1304	s	s	5	3	SIC	317	ABS	2	2	10VD 02VO 02VC 02MD 02MO 02MC 02RD 02RO	0	1	2.4205300808	None	None	None	None	1
2.7	2015_May_06_1304	s	s	5	3	SIC	318	RC	2	0	02VD 02VO 09VC 02MD 02MO 02MC 02RD 02RO	1	0	1.88998103142	258.0	-4.0	262	-2	1
2.7	2015_May_06_1304	s	s	5	3	SIC	319	ABS	0	2	02VD 02VO 02VC 02MD 02MO 02MC 10RD 02RO	0	1	2.51412081718	None	None	None	None	1
2.7	2015_May_06_1304	s	s	5	3	SIC	320	ABS	1	1	02VD 02VO 02VC 02MD 10MO 02MC 02RD 02RO	0	1	2.32985520363	None	None	None	None	1
2.7	2015_May_06_1304	s	s	5	3	SIC	321	RC	1	1	02VD 02VO 02VC 02MD 09MO 02MC 02RD 02RO	1	0	1.25888299942	-189.0	-390.0	-190	-389	1
2.7	2015_May_06_1304	s	s	5	3	SIC	322	RC	2	0	02VD 02VO 09VC 02MD 02MO 02MC 02RD 02RO	1	0	1.10003018379	-259.0	-330.0	-256	-331	1
2.7	2015_May_06_1304	s	s	5	3	SIC	323	RC	2	1	02VD 09VO 02VC 02MD 02MO 02MC 02RD 02RO	1	0	1.10579705238	-90.0	-275.0	-83	-274	1
2.7	2015_May_06_1304	s	s	5	3	SIC	324	RC	2	2	09VD 02VO 02VC 02MD 02MO 02MC 02RD 02RO	1	0	1.28008008003	492.0	-228.0	485	-224	1
2.7	2015_May_06_1304	s	s	5	3	SIC	325	ABS	2	0	02VD 02VO 10VC 02MD 02MO 02MC 02RD 02RO	0	1	1.82088804245	None	None	None	None	1
2.7	2015_May_06_1304	s	s	5	3	SIC	326	RC	0	1	02VD 02VO 02VC 02MD 02MO 02MC 02RD 09RO	1	0	1.63073992729	96.0	-137.0	97	-136	1
2.7	2015_May_06_1304	s	s	5	3	SIC	327	ABS	0	2	02VD 02VO 02VC 02MD 02MO 02MC 10RD 02RO	0	1	2.39844083786	None	None	None	None	1
2.7	2015_May_06_1304	s	s	5	3	SIC	328	ABS	0	1	02VD 02VO 02VC 02MD 02MO 02MC 02RD 10RO	0	1	3.67598795891	None	None	None	None	1
2.7	2015_May_06_1304	s	s	5	3	SIC	329	ABS	1	1	02VD 02VO 02VC 02MD 10MO 02MC 02RD 02RO	0	1	3.59633588791	None	None	None	None	1
2.7	2015_May_06_1304	s	s	5	3	SIC	330	ABS	1	0	02VD 02VO 02VC 02MD 02MO 10MC 02RD 02RO	0	1	4.62199997902	None	None	None	None	1
2.7	2015_May_06_1304	s	s	5	3	SIC	331	RC	1	2	02VD 02VO 02VC 09MD 02MO 02MC 02RD 02RO	1	0	1.47055411339	515.0	263.0	513	261	1
2.7	2015_May_06_1304	s	s	5	3	SIC	332	RC	0	2	02VD 02VO 02VC 02MD 02MO 02MC 09RD 02RO	1	0	1.66850709915	267.0	-287.0	267	-291	1
2.7	2015_May_06_1304	s	s	5	3	SIC	333	ABS	2	1	02VD 10VO 02VC 02MD 02MO 02MC 02RD 02RO	0	1	2.02384901047	None	None	None	None	1
2.7	2015_May_06_1304	s	s	5	3	SIC	334	ABS	2	2	10VD 02VO 02VC 02MD 02MO 02MC 02RD 02RO	0	1	2.30397295952	None	None	None	None	1
2.7	2015_May_06_1304	s	s	5	3	SIC	335	RC	1	0	02VD 02VO 02VC 02MD 02MO 09MC 02RD 02RO	1	0	1.38288116455	-418.0	192.0	-416	190	1
2.7	2015_May_06_1304	s	s	5	3	SIC	336	ABS	1	2	02VD 02VO 02VC 10MD 02MO 02MC 02RD 02RO	0	1	2.03003406525	None	None	None	None	1
2.7	2015_May_06_1304	s	s	5	3	SIC	337	ABS	2	2	10VD 02VO 02VC 02MD 02MO 02MC 02RD 02RO	0	1	1.59501600266	None	None	None	None	1
2.7	2015_May_06_1304	s	s	5	3	SIC	338	ABS	2	1	02VD 10VO 02VC 02MD 02MO 02MC 02RD 02RO	0	1	1.83562803268	None	None	None	None	1
2.7	2015_May_06_1304	s	s	5	3	SIC	339	ABS	2	0	02VD 02VO 10VC 02MD 02MO 02MC 02RD 02RO	0	1	1.88961982727	None	None	None	None	1
2.7	2015_May_06_1304	s	s	5	3	SIC	340	ABS	1	1	02VD 02VO 02VC 02MD 10MO 02MC 02RD 02RO	0	1	2.57394790649	None	None	None	None	1
2.7	2015_May_06_1304	s	s	5	3	SIC	341	RC	1	0	02VD 02VO 02VC 02MD 02MO 09MC 02RD 02RO	1	0	1.89167404175	337.0	359.0	342	357	1
2.7	2015_May_06_1304	s	s	5	3	SIC	342	RC	2	1	02VD 09VO 02VC 02MD 02MO 02MC 02RD 02RO	1	0	1.28623485565	252.0	331.0	246	333	1
2.7	2015_May_06_1304	s	s	5	3	SIC	343	ABS	1	2	02VD 02VO 02VC 10MD 02MO 02MC 02RD 02RO	0	1	2.04349112511	None	None	None	None	1
2.7	2015_May_06_1304	s	s	5	3	SIC	344	RC	0	2	02VD 02VO 02VC 02MD 02MO 02MC 09RD 02RO	1	0	2.00729393959	-338.0	189.0	-335	192	1
2.7	2015_May_06_1304	s	s	5	3	SIC	345	ABS	1	0	02VD 02VO 02VC 02MD 02MO 10MC 02RD 02RO	0	1	2.7626888752	None	None	None	None	1
2.7	2015_May_06_1304	s	s	5	3	SIC	346	ABS	0	2	02VD 02VO 02VC 02MD 02MO 02MC 10RD 02RO	0	1	5.57861089706	None	None	None	None	1
2.7	2015_May_06_1304	s	s	5	3	SIC	347	RC	1	1	02VD 02VO 02VC 02MD 09MO 02MC 02RD 02RO	1	0	4.63703083992	-70.0	128.0	-67	122	1
2.7	2015_May_06_1304	s	s	5	3	SIC	348	RC	2	0	02VD 02VO 09VC 02MD 02MO 02MC 02RD 02RO	1	0	2.02386379242	2.0	-323.0	3	-323	1
2.7	2015_May_06_1304	s	s	5	3	SIC	349	RC	2	2	09VD 02VO 02VC 02MD 02MO 02MC 02RD 02RO	1	0	2.28080606461	-336.0	65.0	-337	65	1
2.7	2015_May_06_1304	s	s	5	3	SIC	350	RC	0	1	02VD 02VO 02VC 02MD 02MO 02MC 02RD 09RO	1	0	2.74914503098	-318.0	-257.0	-324	-258	1
2.7	2015_May_06_1304	s	s	5	3	SIC	351	ABS	0	1	02VD 02VO 02VC 02MD 02MO 02MC 02RD 10RO	0	1	3.43282485008	None	None	None	None	1
2.7	2015_May_06_1304	s	s	5	3	SIC	352	RC	1	2	02VD 02VO 02VC 09MD 02MO 02MC 02RD 02RO	1	0	1.31285309792	195.0	-35.0	190	-38	1
2.7	2015_May_06_1304	s	s	5	3	SIC	353	RC	2	2	09VD 02VO 02VC 02MD 02MO 02MC 02RD 02RO	1	0	1.84729099274	210.0	268.0	210	268	1
2.7	2015_May_06_1304	s	s	5	3	SIC	354	RC	1	1	02VD 02VO 02VC 02MD 09MO 02MC 02RD 02RO	1	0	0.818439006805	-144.0	-201.0	-148	-210	1
2.7	2015_May_06_1304	s	s	5	3	SIC	355	ABS	1	1	02VD 02VO 02VC 02MD 10MO 02MC 02RD 02RO	0	1	2.1769618988	None	None	None	None	1
2.7	2015_May_06_1304	s	s	5	3	SIC	356	ABS	2	0	02VD 02VO 10VC 02MD 02MO 02MC 02RD 02RO	0	1	1.49907684326	None	None	None	None	1
2.7	2015_May_06_1304	s	s	5	3	SIC	357	ABS	1	0	02VD 02VO 02VC 02MD 02MO 10MC 02RD 02RO	0	1	2.070966959	None	None	None	None	1
2.7	2015_May_06_1304	s	s	5	3	SIC	358	ABS	0	2	02VD 02VO 02VC 02MD 02MO 02MC 10RD 02RO	0	1	2.52996110916	None	None	None	None	1
2.7	2015_May_06_1304	s	s	5	3	SIC	359	RC	0	2	02VD 02VO 02VC 02MD 02MO 02MC 09RD 02RO	1	0	1.04447102547	-280.0	147.0	-280	151	1
2.7	2015_May_06_1304	s	s	5	3	SIC	360	ABS	2	2	10VD 02VO 02VC 02MD 02MO 02MC 02RD 02RO	0	1	1.58331108093	None	None	None	None	1
2.7	2015_May_06_1304	s	s	5	3	SIC	361	RC	1	2	02VD 02VO 02VC 09MD 02MO 02MC 02RD 02RO	1	0	0.882569074631	-79.0	143.0	-79	142	1
2.7	2015_May_06_1304	s	s	5	3	SIC	362	ABS	1	2	02VD 02VO 02VC 10MD 02MO 02MC 02RD 02RO	0	1	1.85212182999	None	None	None	None	1
2.7	2015_May_06_1304	s	s	5	3	SIC	363	RC	2	1	02VD 09VO 02VC 02MD 02MO 02MC 02RD 02RO	1	0	1.07969617844	-56.0	-206.0	-48	-209	1
2.7	2015_May_06_1304	s	s	5	3	SIC	364	ABS	0	1	02VD 02VO 02VC 02MD 02MO 02MC 02RD 10RO	0	1	4.57304310799	None	None	None	None	1
2.7	2015_May_06_1304	s	s	5	3	SIC	365	RC	1	0	02VD 02VO 02VC 02MD 02MO 09MC 02RD 02RO	1	0	2.16048383713	-536.0	-272.0	-535	-269	1
2.7	2015_May_06_1304	s	s	5	3	SIC	366	ABS	2	1	02VD 10VO 02VC 02MD 02MO 02MC 02RD 02RO	0	1	1.95052289963	None	None	None	None	1
2.7	2015_May_06_1304	s	s	5	3	SIC	367	RC	2	0	02VD 02VO 09VC 02MD 02MO 02MC 02RD 02RO	1	0	0.961087942123	-68.0	-153.0	-74	-152	1
2.7	2015_May_06_1304	s	s	5	3	SIC	368	RC	0	1	02VD 02VO 02VC 02MD 02MO 02MC 02RD 09RO	1	0	1.79763293266	358.0	95.0	358	94	1
2.7	2015_May_06_1304	s	s	5	3	SIC	369	RC	2	2	09VD 02VO 02VC 02MD 02MO 02MC 02RD 02RO	1	0	1.46512722969	-34.0	134.0	-30	128	1
2.7	2015_May_06_1304	s	s	5	3	SIC	370	RC	2	1	02VD 09VO 02VC 02MD 02MO 02MC 02RD 02RO	1	0	1.58047509193	428.0	168.0	437	164	1
2.7	2015_May_06_1304	s	s	5	3	SIC	371	ABS	0	1	02VD 02VO 02VC 02MD 02MO 02MC 02RD 10RO	0	1	4.75522112846	None	None	None	None	1
2.7	2015_May_06_1304	s	s	5	3	SIC	372	RC	0	1	02VD 02VO 02VC 02MD 02MO 02MC 02RD 09RO	1	0	4.26028513908	-365.0	-182.0	-364	-182	1
2.7	2015_May_06_1304	s	s	5	3	SIC	373	ABS	2	2	10VD 02VO 02VC 02MD 02MO 02MC 02RD 02RO	0	1	1.99568200111	None	None	None	None	1
2.7	2015_May_06_1304	s	s	5	3	SIC	374	ABS	1	1	02VD 02VO 02VC 02MD 10MO 02MC 02RD 02RO	0	1	2.97505307198	None	None	None	None	1
2.7	2015_May_06_1304	s	s	5	3	SIC	375	RC	2	0	02VD 02VO 09VC 02MD 02MO 02MC 02RD 02RO	1	0	1.04480886459	-161.0	181.0	-154	182	1
2.7	2015_May_06_1304	s	s	5	3	SIC	376	RC	1	0	02VD 02VO 02VC 02MD 02MO 09MC 02RD 02RO	1	0	0.93772816658	-33.0	12.0	-29	11	1
2.7	2015_May_06_1304	s	s	5	3	SIC	377	RC	1	1	02VD 02VO 02VC 02MD 09MO 02MC 02RD 02RO	1	0	2.44239282608	100.0	-363.0	108	-366	1
2.7	2015_May_06_1304	s	s	5	3	SIC	378	ABS	2	0	02VD 02VO 10VC 02MD 02MO 02MC 02RD 02RO	0	1	1.705919981	None	None	None	None	1
2.7	2015_May_06_1304	s	s	5	3	SIC	379	ABS	1	0	02VD 02VO 02VC 02MD 02MO 10MC 02RD 02RO	0	1	3.24314284325	None	None	None	None	1
2.7	2015_May_06_1304	s	s	5	3	SIC	380	RC	1	2	02VD 02VO 02VC 09MD 02MO 02MC 02RD 02RO	1	0	1.47951793671	-208.0	320.0	-201	326	1
2.7	2015_May_06_1304	s	s	5	3	SIC	381	ABS	1	2	02VD 02VO 02VC 10MD 02MO 02MC 02RD 02RO	0	1	2.38882398605	None	None	None	None	1
2.7	2015_May_06_1304	s	s	5	3	SIC	382	ABS	0	2	02VD 02VO 02VC 02MD 02MO 02MC 10RD 02RO	0	1	2.25633311272	None	None	None	None	1
2.7	2015_May_06_1304	s	s	5	3	SIC	383	RC	0	2	02VD 02VO 02VC 02MD 02MO 02MC 09RD 02RO	1	0	1.32985401154	289.0	-281.0	283	-283	1
2.7	2015_May_06_1304	s	s	5	3	SIC	384	ABS	2	1	02VD 10VO 02VC 02MD 02MO 02MC 02RD 02RO	0	1	1.69141602516	None	None	None	None	1
2.7	2015_May_06_1304	s	s	5	3	SIC	385	ABS	2	1	02VD 10VO 02VC 02MD 02MO 02MC 02RD 02RO	0	1	2.0629119873	None	None	None	None	1
2.7	2015_May_06_1304	s	s	5	3	SIC	386	ABS	1	0	02VD 02VO 02VC 02MD 02MO 10MC 02RD 02RO	0	1	2.80086612701	None	None	None	None	1
2.7	2015_May_06_1304	s	s	5	3	SIC	387	ABS	2	0	02VD 02VO 10VC 02MD 02MO 02MC 02RD 02RO	0	1	1.86874198914	None	None	None	None	1
2.7	2015_May_06_1304	s	s	5	3	SIC	388	ABS	1	1	02VD 02VO 02VC 02MD 10MO 02MC 02RD 02RO	0	1	3.52564001083	None	None	None	None	1
2.7	2015_May_06_1304	s	s	5	3	SIC	389	ABS	0	1	02VD 02VO 02VC 02MD 02MO 02MC 02RD 10RO	0	1	4.35439896584	None	None	None	None	1
2.7	2015_May_06_1304	s	s	5	3	SIC	390	RC	2	0	02VD 02VO 09VC 02MD 02MO 02MC 02RD 02RO	1	0	1.706138134	11.0	196.0	10	189	1
2.7	2015_May_06_1304	s	s	5	3	SIC	391	RC	2	1	02VD 09VO 02VC 02MD 02MO 02MC 02RD 02RO	1	0	1.60008382797	465.0	40.0	462	38	1
2.7	2015_May_06_1304	s	s	5	3	SIC	392	ABS	1	2	02VD 02VO 02VC 10MD 02MO 02MC 02RD 02RO	0	1	1.68257808685	None	None	None	None	1
2.7	2015_May_06_1304	s	s	5	3	SIC	393	RC	2	2	09VD 02VO 02VC 02MD 02MO 02MC 02RD 02RO	1	0	1.22133684158	169.0	191.0	177	196	1
2.7	2015_May_06_1304	s	s	5	3	SIC	394	RC	1	2	02VD 02VO 02VC 09MD 02MO 02MC 02RD 02RO	0	1	2.0313398838	536.0	59.0	None	None	0
2.7	2015_May_06_1304	s	s	5	3	SIC	395	RC	0	2	02VD 02VO 02VC 02MD 02MO 02MC 09RD 02RO	0	1	1.64719009399	-218.0	-94.0	None	None	0
2.7	2015_May_06_1304	s	s	5	3	SIC	396	ABS	0	2	02VD 02VO 02VC 02MD 02MO 02MC 10RD 02RO	0	1	1.97250890732	None	None	None	None	1
2.7	2015_May_06_1304	s	s	5	3	SIC	397	RC	0	1	02VD 02VO 02VC 02MD 02MO 02MC 02RD 09RO	1	0	3.89554214478	-458.0	314.0	-463	321	1
2.7	2015_May_06_1304	s	s	5	3	SIC	398	RC	1	1	02VD 02VO 02VC 02MD 09MO 02MC 02RD 02RO	1	0	1.69437193871	268.0	305.0	259	309	1
2.7	2015_May_06_1304	s	s	5	3	SIC	399	RC	1	0	02VD 02VO 02VC 02MD 02MO 09MC 02RD 02RO	1	0	0.717308998108	-98.0	-175.0	-90	-175	1
2.7	2015_May_06_1304	s	s	5	3	SIC	400	ABS	2	2	10VD 02VO 02VC 02MD 02MO 02MC 02RD 02RO	0	1	1.44712686539	None	None	None	None	1
2.7	2015_May_06_1304	s	s	5	3	SIC	401	RC	2	2	09VD 02VO 02VC 02MD 02MO 02MC 02RD 02RO	1	0	0.764530897141	-65.0	-23.0	-61	-25	1
2.7	2015_May_06_1304	s	s	5	3	SIC	402	ABS	0	1	02VD 02VO 02VC 02MD 02MO 02MC 02RD 10RO	0	1	5.10339021683	None	None	None	None	1
2.7	2015_May_06_1304	s	s	5	3	SIC	403	ABS	1	1	02VD 02VO 02VC 02MD 10MO 02MC 02RD 02RO	0	1	3.06780290604	None	None	None	None	1
2.7	2015_May_06_1304	s	s	5	3	SIC	404	RC	1	2	02VD 02VO 02VC 09MD 02MO 02MC 02RD 02RO	1	0	1.0625641346	18.0	217.0	21	221	1
2.7	2015_May_06_1304	s	s	5	3	SIC	405	ABS	1	0	02VD 02VO 02VC 02MD 02MO 10MC 02RD 02RO	0	1	2.27780580521	None	None	None	None	1
2.7	2015_May_06_1304	s	s	5	3	SIC	406	ABS	2	2	10VD 02VO 02VC 02MD 02MO 02MC 02RD 02RO	0	1	2.09076714516	None	None	None	None	1
2.7	2015_May_06_1304	s	s	5	3	SIC	407	RC	0	2	02VD 02VO 02VC 02MD 02MO 02MC 09RD 02RO	1	0	2.64388799667	450.0	350.0	449	352	1
2.7	2015_May_06_1304	s	s	5	3	SIC	408	RC	2	0	02VD 02VO 09VC 02MD 02MO 02MC 02RD 02RO	1	0	1.87712001801	-406.0	-1.0	-408	0	1
2.7	2015_May_06_1304	s	s	5	3	SIC	409	RC	2	1	02VD 09VO 02VC 02MD 02MO 02MC 02RD 02RO	1	0	1.25393390656	-485.0	241.0	-483	237	1
2.7	2015_May_06_1304	s	s	5	3	SIC	410	ABS	1	2	02VD 02VO 02VC 10MD 02MO 02MC 02RD 02RO	0	1	2.62800216675	None	None	None	None	1
2.7	2015_May_06_1304	s	s	5	3	SIC	411	ABS	2	1	02VD 10VO 02VC 02MD 02MO 02MC 02RD 02RO	0	1	2.94585609436	None	None	None	None	1
2.7	2015_May_06_1304	s	s	5	3	SIC	412	RC	0	1	02VD 02VO 02VC 02MD 02MO 02MC 02RD 09RO	1	0	2.30663013458	296.0	386.0	300	387	1
2.7	2015_May_06_1304	s	s	5	3	SIC	413	RC	1	1	02VD 02VO 02VC 02MD 09MO 02MC 02RD 02RO	1	0	1.04693603516	131.0	-69.0	130	-64	1
2.7	2015_May_06_1304	s	s	5	3	SIC	414	RC	1	0	02VD 02VO 02VC 02MD 02MO 09MC 02RD 02RO	1	0	1.51314997673	470.0	2.0	468	-5	1
2.7	2015_May_06_1304	s	s	5	3	SIC	415	ABS	2	0	02VD 02VO 10VC 02MD 02MO 02MC 02RD 02RO	0	1	2.24758005142	None	None	None	None	1
2.7	2015_May_06_1304	s	s	5	3	SIC	416	ABS	0	2	02VD 02VO 02VC 02MD 02MO 02MC 10RD 02RO	0	1	2.1887691021	None	None	None	None	1
2.7	2015_May_06_1304	s	s	5	3	SIC	417	ABS	0	2	02VD 02VO 02VC 02MD 02MO 02MC 10RD 02RO	0	1	2.19843316078	None	None	None	None	1
2.7	2015_May_06_1304	s	s	5	3	SIC	418	RC	2	0	02VD 02VO 09VC 02MD 02MO 02MC 02RD 02RO	0	1	2.54794692993	-226.0	-95.0	None	None	0
2.7	2015_May_06_1304	s	s	5	3	SIC	419	RC	1	2	02VD 02VO 02VC 09MD 02MO 02MC 02RD 02RO	1	0	1.04695892334	43.0	-353.0	43	-350	1
2.7	2015_May_06_1304	s	s	5	3	SIC	420	RC	0	1	02VD 02VO 02VC 02MD 02MO 02MC 02RD 09RO	0	1	5.06065106392	146.0	-27.0	None	None	0
2.7	2015_May_06_1304	s	s	5	3	SIC	421	ABS	0	1	02VD 02VO 02VC 02MD 02MO 02MC 02RD 10RO	0	1	2.97738313675	None	None	None	None	1
2.7	2015_May_06_1304	s	s	5	3	SIC	422	RC	2	1	02VD 09VO 02VC 02MD 02MO 02MC 02RD 02RO	1	0	2.9538538456	444.0	-99.0	451	-98	1
2.7	2015_May_06_1304	s	s	5	3	SIC	423	ABS	1	2	02VD 02VO 02VC 10MD 02MO 02MC 02RD 02RO	0	1	2.6451292038	None	None	None	None	1
2.7	2015_May_06_1304	s	s	5	3	SIC	424	ABS	2	2	10VD 02VO 02VC 02MD 02MO 02MC 02RD 02RO	0	1	2.80115103722	None	None	None	None	1
2.7	2015_May_06_1304	s	s	5	3	SIC	425	RC	1	1	02VD 02VO 02VC 02MD 09MO 02MC 02RD 02RO	1	0	2.56044602394	330.0	376.0	324	376	1
2.7	2015_May_06_1304	s	s	5	3	SIC	426	RC	2	2	09VD 02VO 02VC 02MD 02MO 02MC 02RD 02RO	1	0	2.47683310509	426.0	243.0	418	250	1
2.7	2015_May_06_1304	s	s	5	3	SIC	427	RC	0	2	02VD 02VO 02VC 02MD 02MO 02MC 09RD 02RO	1	0	1.10586595535	85.0	-411.0	84	-415	1
2.7	2015_May_06_1304	s	s	5	3	SIC	428	ABS	2	1	02VD 10VO 02VC 02MD 02MO 02MC 02RD 02RO	0	1	2.62416195869	None	None	None	None	1
2.7	2015_May_06_1304	s	s	5	3	SIC	429	ABS	1	1	02VD 02VO 02VC 02MD 10MO 02MC 02RD 02RO	0	1	3.02442407608	None	None	None	None	1
2.7	2015_May_06_1304	s	s	5	3	SIC	430	RC	1	0	02VD 02VO 02VC 02MD 02MO 09MC 02RD 02RO	1	0	1.12538695335	115.0	303.0	121	312	1
2.7	2015_May_06_1304	s	s	5	3	SIC	431	ABS	2	0	02VD 02VO 10VC 02MD 02MO 02MC 02RD 02RO	0	1	1.6825530529	None	None	None	None	1
2.7	2015_May_06_1304	s	s	5	3	SIC	432	ABS	1	0	02VD 02VO 02VC 02MD 02MO 10MC 02RD 02RO	0	1	2.73025488853	None	None	None	None	1
2.7	2015_May_06_1304	s	s	5	3	SIC	433	RC	1	1	02VD 02VO 02VC 02MD 09MO 02MC 02RD 02RO	1	0	1.60882282257	-291.0	97.0	-290	101	1
2.7	2015_May_06_1304	s	s	5	3	SIC	434	RC	2	2	09VD 02VO 02VC 02MD 02MO 02MC 02RD 02RO	1	0	1.56914496422	50.0	317.0	53	316	1
2.7	2015_May_06_1304	s	s	5	3	SIC	435	RC	1	0	02VD 02VO 02VC 02MD 02MO 09MC 02RD 02RO	1	0	2.08873105049	-540.0	209.0	-541	212	1
2.7	2015_May_06_1304	s	s	5	3	SIC	436	ABS	2	1	02VD 10VO 02VC 02MD 02MO 02MC 02RD 02RO	0	1	2.6360168457	None	None	None	None	1
2.7	2015_May_06_1304	s	s	5	3	SIC	437	RC	0	1	02VD 02VO 02VC 02MD 02MO 02MC 02RD 09RO	1	0	1.90396118164	-100.0	-322.0	-97	-328	1
2.7	2015_May_06_1304	s	s	5	3	SIC	438	ABS	0	1	02VD 02VO 02VC 02MD 02MO 02MC 02RD 10RO	0	1	4.7169611454	None	None	None	None	1
2.7	2015_May_06_1304	s	s	5	3	SIC	439	RC	2	0	02VD 02VO 09VC 02MD 02MO 02MC 02RD 02RO	1	0	1.37662100792	269.0	-19.0	272	-13	1
2.7	2015_May_06_1304	s	s	5	3	SIC	440	ABS	0	2	02VD 02VO 02VC 02MD 02MO 02MC 10RD 02RO	0	1	3.03114104271	None	None	None	None	1
2.7	2015_May_06_1304	s	s	5	3	SIC	441	RC	1	2	02VD 02VO 02VC 09MD 02MO 02MC 02RD 02RO	1	0	1.55308794975	-7.0	409.0	-4	412	1
2.7	2015_May_06_1304	s	s	5	3	SIC	442	ABS	1	1	02VD 02VO 02VC 02MD 10MO 02MC 02RD 02RO	0	1	2.6713051796	None	None	None	None	1
2.7	2015_May_06_1304	s	s	5	3	SIC	443	RC	0	2	02VD 02VO 02VC 02MD 02MO 02MC 09RD 02RO	1	0	1.78484606743	117.0	-131.0	114	-134	1
2.7	2015_May_06_1304	s	s	5	3	SIC	444	ABS	1	2	02VD 02VO 02VC 10MD 02MO 02MC 02RD 02RO	0	1	1.78379416466	None	None	None	None	1
2.7	2015_May_06_1304	s	s	5	3	SIC	445	ABS	1	0	02VD 02VO 02VC 02MD 02MO 10MC 02RD 02RO	0	1	3.03627300262	None	None	None	None	1
2.7	2015_May_06_1304	s	s	5	3	SIC	446	ABS	2	0	02VD 02VO 10VC 02MD 02MO 02MC 02RD 02RO	0	1	2.66563796997	None	None	None	None	1
2.7	2015_May_06_1304	s	s	5	3	SIC	447	RC	2	1	02VD 09VO 02VC 02MD 02MO 02MC 02RD 02RO	1	0	1.97419214249	538.0	354.0	533	355	1
2.7	2015_May_06_1304	s	s	5	3	SIC	448	ABS	2	2	10VD 02VO 02VC 02MD 02MO 02MC 02RD 02RO	0	1	2.2357749939	None	None	None	None	1
2.7	2015_May_06_1304	s	s	5	3	SIC	449	ABS	2	2	10VD 02VO 02VC 02MD 02MO 02MC 02RD 02RO	0	1	1.74138092995	None	None	None	None	1
2.7	2015_May_06_1304	s	s	5	3	SIC	450	ABS	0	2	02VD 02VO 02VC 02MD 02MO 02MC 10RD 02RO	0	1	2.38881111145	None	None	None	None	1
2.7	2015_May_06_1304	s	s	5	3	SIC	451	ABS	2	0	02VD 02VO 10VC 02MD 02MO 02MC 02RD 02RO	0	1	3.38438892365	None	None	None	None	1
2.7	2015_May_06_1304	s	s	5	3	SIC	452	ABS	1	1	02VD 02VO 02VC 02MD 10MO 02MC 02RD 02RO	0	1	3.66777205467	None	None	None	None	1
2.7	2015_May_06_1304	s	s	5	3	SIC	453	ABS	2	1	02VD 10VO 02VC 02MD 02MO 02MC 02RD 02RO	0	1	2.54859781265	None	None	None	None	1
2.7	2015_May_06_1304	s	s	5	3	SIC	454	RC	2	1	02VD 09VO 02VC 02MD 02MO 02MC 02RD 02RO	1	0	1.50009393692	467.0	334.0	473	341	1
2.7	2015_May_06_1304	s	s	5	3	SIC	455	RC	1	1	02VD 02VO 02VC 02MD 09MO 02MC 02RD 02RO	1	0	3.14213705063	400.0	298.0	392	300	1
2.7	2015_May_06_1304	s	s	5	3	SIC	456	ABS	1	0	02VD 02VO 02VC 02MD 02MO 10MC 02RD 02RO	0	1	3.07811403275	None	None	None	None	1
2.7	2015_May_06_1304	s	s	5	3	SIC	457	RC	2	0	02VD 02VO 09VC 02MD 02MO 02MC 02RD 02RO	1	0	1.42371892929	-343.0	-348.0	-352	-352	1
2.7	2015_May_06_1304	s	s	5	3	SIC	458	RC	2	2	09VD 02VO 02VC 02MD 02MO 02MC 02RD 02RO	1	0	1.57098388672	-348.0	53.0	-343	55	1
2.7	2015_May_06_1304	s	s	5	3	SIC	459	RC	1	2	02VD 02VO 02VC 09MD 02MO 02MC 02RD 02RO	1	0	1.16043806076	-443.0	173.0	-438	174	1
2.7	2015_May_06_1304	s	s	5	3	SIC	460	RC	1	0	02VD 02VO 02VC 02MD 02MO 09MC 02RD 02RO	1	0	2.08284497261	-69.0	-349.0	-69	-346	1
2.7	2015_May_06_1304	s	s	5	3	SIC	461	ABS	0	1	02VD 02VO 02VC 02MD 02MO 02MC 02RD 10RO	0	1	4.46720099449	None	None	None	None	1
2.7	2015_May_06_1304	s	s	5	3	SIC	462	RC	0	1	02VD 02VO 02VC 02MD 02MO 02MC 02RD 09RO	1	0	1.61906099319	-204.0	-226.0	-204	-235	1
2.7	2015_May_06_1304	s	s	5	3	SIC	463	RC	0	2	02VD 02VO 02VC 02MD 02MO 02MC 09RD 02RO	1	0	3.66563391685	217.0	-338.0	220	-343	1
2.7	2015_May_06_1304	s	s	5	3	SIC	464	ABS	1	2	02VD 02VO 02VC 10MD 02MO 02MC 02RD 02RO	0	1	2.59556603432	None	None	None	None	1
2.7	2015_May_06_1304	s	s	5	3	SIC	465	ABS	1	0	02VD 02VO 02VC 02MD 02MO 10MC 02RD 02RO	0	1	2.45978879929	None	None	None	None	1
2.7	2015_May_06_1304	s	s	5	3	SIC	466	ABS	0	1	02VD 02VO 02VC 02MD 02MO 02MC 02RD 10RO	0	1	3.25526499748	None	None	None	None	1
2.7	2015_May_06_1304	s	s	5	3	SIC	467	RC	1	1	02VD 02VO 02VC 02MD 09MO 02MC 02RD 02RO	0	1	2.43120098114	319.0	-386.0	None	None	0
2.7	2015_May_06_1304	s	s	5	3	SIC	468	RC	1	2	02VD 02VO 02VC 09MD 02MO 02MC 02RD 02RO	1	0	1.20375919342	131.0	248.0	132	251	1
2.7	2015_May_06_1304	s	s	5	3	SIC	469	RC	2	1	02VD 09VO 02VC 02MD 02MO 02MC 02RD 02RO	1	0	0.935339927673	-322.0	11.0	-325	15	1
2.7	2015_May_06_1304	s	s	5	3	SIC	470	ABS	0	2	02VD 02VO 02VC 02MD 02MO 02MC 10RD 02RO	0	1	2.14862084389	None	None	None	None	1
2.7	2015_May_06_1304	s	s	5	3	SIC	471	ABS	1	1	02VD 02VO 02VC 02MD 10MO 02MC 02RD 02RO	0	1	1.90165686607	None	None	None	None	1
2.7	2015_May_06_1304	s	s	5	3	SIC	472	RC	1	0	02VD 02VO 02VC 02MD 02MO 09MC 02RD 02RO	1	0	2.79567599297	258.0	174.0	255	173	1
2.7	2015_May_06_1304	s	s	5	3	SIC	473	RC	2	0	02VD 02VO 09VC 02MD 02MO 02MC 02RD 02RO	1	0	1.4906938076	87.0	-238.0	85	-237	1
2.7	2015_May_06_1304	s	s	5	3	SIC	474	ABS	2	0	02VD 02VO 10VC 02MD 02MO 02MC 02RD 02RO	0	1	1.8948161602	None	None	None	None	1
2.7	2015_May_06_1304	s	s	5	3	SIC	475	RC	0	2	02VD 02VO 02VC 02MD 02MO 02MC 09RD 02RO	1	0	2.09456205368	-460.0	-239.0	-457	-249	1
2.7	2015_May_06_1304	s	s	5	3	SIC	476	RC	2	2	09VD 02VO 02VC 02MD 02MO 02MC 02RD 02RO	1	0	2.9825899601	-281.0	-395.0	-285	-402	1
2.7	2015_May_06_1304	s	s	5	3	SIC	477	ABS	2	1	02VD 10VO 02VC 02MD 02MO 02MC 02RD 02RO	0	1	4.69063401222	None	None	None	None	1
2.7	2015_May_06_1304	s	s	5	3	SIC	478	ABS	1	2	02VD 02VO 02VC 10MD 02MO 02MC 02RD 02RO	0	1	2.98913598061	None	None	None	None	1
2.7	2015_May_06_1304	s	s	5	3	SIC	479	RC	0	1	02VD 02VO 02VC 02MD 02MO 02MC 02RD 09RO	1	0	2.9778110981	463.0	270.0	462	271	1
2.7	2015_May_06_1304	s	s	5	3	SIC	480	ABS	2	2	10VD 02VO 02VC 02MD 02MO 02MC 02RD 02RO	0	1	2.61248493195	None	None	None	None	1
