Version	Date	Stimuli	Method	Subject	Session	Condition	Trial	Target	Channel1	Channel2	Distractors	LMouseButton	RMouseButton	RT	TargetX	TargetY	ResponseX	ResponseY	Correct
2.7	2015_May_08_1318	s	s	5	5	Capacity	1	ABS	0	2	16RD 08RO	0	1	2.33680701256	None	None	None	None	1
2.7	2015_May_08_1318	s	s	5	5	Capacity	2	RC	0	2	15RD 08RO	1	0	1.76515388489	-74.0	266.0	-79	264	1
2.7	2015_May_08_1318	s	s	5	5	Capacity	3	RC	0	1	08RD 15RO	1	0	1.3882689476	442.0	282.0	439	276	1
2.7	2015_May_08_1318	s	s	5	5	Capacity	4	ABS	0	1	08RD 16RO	0	1	3.36033987999	None	None	None	None	1
2.7	2015_May_08_1318	s	s	5	5	Capacity	5	ABS	0	1	08RD 16RO	0	1	3.00079607964	None	None	None	None	1
2.7	2015_May_08_1318	s	s	5	5	Capacity	6	RC	0	2	15RD 08RO	0	1	2.57472395897	89.0	315.0	None	None	0
2.7	2015_May_08_1318	s	s	5	5	Capacity	7	ABS	0	2	16RD 08RO	0	1	3.01255488396	None	None	None	None	1
2.7	2015_May_08_1318	s	s	5	5	Capacity	8	RC	0	1	08RD 15RO	1	0	3.3778989315	-128.0	376.0	-127	377	1
2.7	2015_May_08_1318	s	s	5	5	Capacity	9	RC	0	1	08RD 15RO	1	0	3.55411982536	205.0	277.0	204	278	1
2.7	2015_May_08_1318	s	s	5	5	Capacity	10	ABS	0	2	16RD 08RO	0	1	3.87189698219	None	None	None	None	1
2.7	2015_May_08_1318	s	s	5	5	Capacity	11	RC	0	2	15RD 08RO	0	1	3.057254076	-198.0	305.0	None	None	0
2.7	2015_May_08_1318	s	s	5	5	Capacity	12	ABS	0	1	08RD 16RO	0	1	4.22494196892	None	None	None	None	1
2.7	2015_May_08_1318	s	s	5	5	Capacity	13	ABS	0	1	08RD 16RO	0	1	5.1264500618	None	None	None	None	1
2.7	2015_May_08_1318	s	s	5	5	Capacity	14	RC	0	2	15RD 08RO	0	1	2.88330602646	338.0	100.0	None	None	0
2.7	2015_May_08_1318	s	s	5	5	Capacity	15	ABS	0	2	16RD 08RO	0	1	3.572920084	None	None	None	None	1
2.7	2015_May_08_1318	s	s	5	5	Capacity	16	RC	0	1	08RD 15RO	1	0	2.59705400467	-478.0	-125.0	-480	-124	1
2.7	2015_May_08_1318	s	s	5	5	Capacity	17	ABS	0	2	16RD 08RO	0	1	4.30251312256	None	None	None	None	1
2.7	2015_May_08_1318	s	s	5	5	Capacity	18	RC	0	1	08RD 15RO	1	0	0.829220056534	-36.0	-111.0	-31	-111	1
2.7	2015_May_08_1318	s	s	5	5	Capacity	19	ABS	0	1	08RD 16RO	0	1	4.89976716042	None	None	None	None	1
2.7	2015_May_08_1318	s	s	5	5	Capacity	20	RC	0	2	15RD 08RO	1	0	1.34115886688	216.0	316.0	218	313	1
2.7	2015_May_08_1318	s	s	5	5	Capacity	21	RC	0	2	15RD 08RO	1	0	2.06628704071	-521.0	174.0	-514	179	1
2.7	2015_May_08_1318	s	s	5	5	Capacity	22	ABS	0	1	08RD 16RO	0	1	4.15428590775	None	None	None	None	1
2.7	2015_May_08_1318	s	s	5	5	Capacity	23	RC	0	1	08RD 15RO	1	0	2.63593411446	502.0	143.0	496	142	1
2.7	2015_May_08_1318	s	s	5	5	Capacity	24	ABS	0	2	16RD 08RO	0	1	2.16064882278	None	None	None	None	1
2.7	2015_May_08_1318	s	s	5	5	Capacity	25	ABS	0	1	08RD 16RO	0	1	3.68011379242	None	None	None	None	1
2.7	2015_May_08_1318	s	s	5	5	Capacity	26	RC	0	1	08RD 15RO	0	1	4.96066594124	372.0	-310.0	None	None	0
2.7	2015_May_08_1318	s	s	5	5	Capacity	27	RC	0	2	15RD 08RO	1	0	1.54134702682	136.0	-344.0	129	-344	1
2.7	2015_May_08_1318	s	s	5	5	Capacity	28	ABS	0	2	16RD 08RO	0	1	2.53714895248	None	None	None	None	1
2.7	2015_May_08_1318	s	s	5	5	Capacity	29	RC	0	1	08RD 15RO	1	0	2.54825305939	420.0	-276.0	423	-280	1
2.7	2015_May_08_1318	s	s	5	5	Capacity	30	ABS	0	1	08RD 16RO	0	1	5.39034199715	None	None	None	None	1
2.7	2015_May_08_1318	s	s	5	5	Capacity	31	ABS	0	2	16RD 08RO	0	1	3.38927698135	None	None	None	None	1
2.7	2015_May_08_1318	s	s	5	5	Capacity	32	RC	0	2	15RD 08RO	1	0	1.85113310814	514.0	411.0	522	415	1
2.7	2015_May_08_1318	s	s	5	5	Capacity	33	ABS	0	1	08RD 16RO	0	1	3.59614706039	None	None	None	None	1
2.7	2015_May_08_1318	s	s	5	5	Capacity	34	RC	0	1	08RD 15RO	1	0	3.5987970829	469.0	-392.0	472	-388	1
2.7	2015_May_08_1318	s	s	5	5	Capacity	35	ABS	0	2	16RD 08RO	0	1	2.63604307175	None	None	None	None	1
2.7	2015_May_08_1318	s	s	5	5	Capacity	36	RC	0	2	15RD 08RO	0	1	2.43273591995	194.0	-357.0	None	None	0
2.7	2015_May_08_1318	s	s	5	5	Capacity	37	RC	0	1	08RD 15RO	1	0	1.56534910202	181.0	325.0	182	319	1
2.7	2015_May_08_1318	s	s	5	5	Capacity	38	ABS	0	2	16RD 08RO	0	1	3.04199886322	None	None	None	None	1
2.7	2015_May_08_1318	s	s	5	5	Capacity	39	RC	0	2	15RD 08RO	1	0	1.74992895126	-263.0	387.0	-267	386	1
2.7	2015_May_08_1318	s	s	5	5	Capacity	40	ABS	0	1	08RD 16RO	0	1	4.10224318504	None	None	None	None	1
2.7	2015_May_08_1318	s	s	5	5	Capacity	41	ABS	0	1	08RD 16RO	0	1	5.56681013107	None	None	None	None	1
2.7	2015_May_08_1318	s	s	5	5	Capacity	42	ABS	0	2	16RD 08RO	0	1	3.96360588074	None	None	None	None	1
2.7	2015_May_08_1318	s	s	5	5	Capacity	43	RC	0	2	15RD 08RO	1	0	1.03274607658	150.0	-191.0	149	-193	1
2.7	2015_May_08_1318	s	s	5	5	Capacity	44	RC	0	1	08RD 15RO	1	0	3.05969500542	-77.0	-136.0	-75	-137	1
2.7	2015_May_08_1318	s	s	5	5	Capacity	45	ABS	0	2	16RD 08RO	0	1	3.14211583138	None	None	None	None	1
2.7	2015_May_08_1318	s	s	5	5	Capacity	46	ABS	0	1	08RD 16RO	0	1	8.37521982193	None	None	None	None	1
2.7	2015_May_08_1318	s	s	5	5	Capacity	47	RC	0	1	08RD 15RO	1	0	0.994415044785	254.0	-12.0	259	-16	1
2.7	2015_May_08_1318	s	s	5	5	Capacity	48	RC	0	2	15RD 08RO	1	0	2.22402501106	468.0	-163.0	467	-163	1
2.7	2015_May_08_1318	s	s	5	5	Capacity	49	ABS	0	2	16RD 08RO	0	1	2.56915402412	None	None	None	None	1
2.7	2015_May_08_1318	s	s	5	5	Capacity	50	RC	0	1	08RD 15RO	1	0	5.04403686523	478.0	305.0	476	303	1
2.7	2015_May_08_1318	s	s	5	5	Capacity	51	RC	0	2	15RD 08RO	1	0	1.51766705513	445.0	-190.0	447	-190	1
2.7	2015_May_08_1318	s	s	5	5	Capacity	52	ABS	0	1	08RD 16RO	0	1	4.7279689312	None	None	None	None	1
2.7	2015_May_08_1318	s	s	5	5	Capacity	53	ABS	0	2	16RD 08RO	0	1	2.60065698624	None	None	None	None	1
2.7	2015_May_08_1318	s	s	5	5	Capacity	54	ABS	0	1	08RD 16RO	0	1	3.59628391266	None	None	None	None	1
2.7	2015_May_08_1318	s	s	5	5	Capacity	55	RC	0	1	08RD 15RO	0	1	5.05774402618	-223.0	272.0	None	None	0
2.7	2015_May_08_1318	s	s	5	5	Capacity	56	RC	0	2	15RD 08RO	1	0	1.42360806465	310.0	-374.0	309	-377	1
2.7	2015_May_08_1318	s	s	5	5	Capacity	57	ABS	0	1	08RD 16RO	0	1	4.17801308632	None	None	None	None	1
2.7	2015_May_08_1318	s	s	5	5	Capacity	58	RC	0	1	08RD 15RO	1	0	2.55082893372	291.0	285.0	289	288	1
2.7	2015_May_08_1318	s	s	5	5	Capacity	59	ABS	0	2	16RD 08RO	0	1	4.04839801788	None	None	None	None	1
2.7	2015_May_08_1318	s	s	5	5	Capacity	60	RC	0	2	15RD 08RO	1	0	1.9699909687	-353.0	379.0	-353	388	1
2.7	2015_May_08_1318	s	s	5	5	Capacity	61	RC	0	2	15RD 08RO	1	0	1.60018897057	-479.0	-83.0	-478	-86	1
2.7	2015_May_08_1318	s	s	5	5	Capacity	62	ABS	0	2	16RD 08RO	0	1	3.41278100014	None	None	None	None	1
2.7	2015_May_08_1318	s	s	5	5	Capacity	63	RC	0	1	08RD 15RO	1	0	1.13526105881	141.0	-75.0	142	-80	1
2.7	2015_May_08_1318	s	s	5	5	Capacity	64	ABS	0	1	08RD 16RO	0	1	11.4937589169	None	None	None	None	1
2.7	2015_May_08_1318	s	s	5	5	Capacity	1	RC	1	0	08VC 15MC	1	0	1.44148206711	-430.0	-299.0	-437	-298	1
2.7	2015_May_08_1318	s	s	5	5	Capacity	2	RC	2	0	15VC 08MC	1	0	1.15293312073	320.0	291.0	326	295	1
2.7	2015_May_08_1318	s	s	5	5	Capacity	3	ABS	2	0	16VC 08MC	0	1	1.62362408638	None	None	None	None	1
2.7	2015_May_08_1318	s	s	5	5	Capacity	4	ABS	1	0	08VC 16MC	0	1	2.17711305618	None	None	None	None	1
2.7	2015_May_08_1318	s	s	5	5	Capacity	5	ABS	1	0	08VC 16MC	0	1	2.50359797478	None	None	None	None	1
2.7	2015_May_08_1318	s	s	5	5	Capacity	6	RC	1	0	08VC 15MC	0	1	2.89496898651	199.0	329.0	None	None	0
2.7	2015_May_08_1318	s	s	5	5	Capacity	7	RC	2	0	15VC 08MC	1	0	1.17138409615	233.0	330.0	235	320	1
2.7	2015_May_08_1318	s	s	5	5	Capacity	8	ABS	2	0	16VC 08MC	0	1	2.90179181099	None	None	None	None	1
2.7	2015_May_08_1318	s	s	5	5	Capacity	9	RC	2	0	15VC 08MC	1	0	0.799644947052	-305.0	162.0	-301	160	1
2.7	2015_May_08_1318	s	s	5	5	Capacity	10	ABS	1	0	08VC 16MC	0	1	2.15978002548	None	None	None	None	1
2.7	2015_May_08_1318	s	s	5	5	Capacity	11	ABS	2	0	16VC 08MC	0	1	2.01855397224	None	None	None	None	1
2.7	2015_May_08_1318	s	s	5	5	Capacity	12	RC	1	0	08VC 15MC	1	0	1.21179199219	345.0	303.0	346	294	1
2.7	2015_May_08_1318	s	s	5	5	Capacity	13	RC	2	0	15VC 08MC	1	0	1.21807718277	341.0	64.0	336	66	1
2.7	2015_May_08_1318	s	s	5	5	Capacity	14	ABS	1	0	08VC 16MC	0	1	3.0950191021	None	None	None	None	1
2.7	2015_May_08_1318	s	s	5	5	Capacity	15	ABS	2	0	16VC 08MC	0	1	2.83613109589	None	None	None	None	1
2.7	2015_May_08_1318	s	s	5	5	Capacity	16	RC	1	0	08VC 15MC	1	0	0.935986042023	-175.0	311.0	-174	310	1
2.7	2015_May_08_1318	s	s	5	5	Capacity	17	RC	2	0	15VC 08MC	1	0	0.935369968414	174.0	298.0	172	295	1
2.7	2015_May_08_1318	s	s	5	5	Capacity	18	ABS	2	0	16VC 08MC	0	1	2.10345292091	None	None	None	None	1
2.7	2015_May_08_1318	s	s	5	5	Capacity	19	ABS	1	0	08VC 16MC	0	1	3.92576408386	None	None	None	None	1
2.7	2015_May_08_1318	s	s	5	5	Capacity	20	RC	1	0	08VC 15MC	1	0	1.64722800255	-468.0	-281.0	-467	-285	1
2.7	2015_May_08_1318	s	s	5	5	Capacity	21	ABS	2	0	16VC 08MC	1	0	1.8119931221	None	None	22	-7	0
2.7	2015_May_08_1318	s	s	5	5	Capacity	22	RC	2	0	15VC 08MC	1	0	1.92700099945	-524.0	-328.0	-524	-336	1
2.7	2015_May_08_1318	s	s	5	5	Capacity	23	RC	1	0	08VC 15MC	1	0	1.62131094933	-501.0	334.0	-504	336	1
2.7	2015_May_08_1318	s	s	5	5	Capacity	24	ABS	1	0	08VC 16MC	0	1	4.91408896446	None	None	None	None	1
2.7	2015_May_08_1318	s	s	5	5	Capacity	25	RC	2	0	15VC 08MC	1	0	2.26550507545	198.0	-352.0	199	-356	1
2.7	2015_May_08_1318	s	s	5	5	Capacity	26	ABS	2	0	16VC 08MC	0	1	3.00093102455	None	None	None	None	1
2.7	2015_May_08_1318	s	s	5	5	Capacity	27	RC	1	0	08VC 15MC	1	0	2.49475479126	515.0	292.0	521	290	1
2.7	2015_May_08_1318	s	s	5	5	Capacity	28	ABS	1	0	08VC 16MC	0	1	3.50706005096	None	None	None	None	1
2.7	2015_May_08_1318	s	s	5	5	Capacity	29	ABS	2	0	16VC 08MC	1	0	1.39705610275	None	None	224	260	0
2.7	2015_May_08_1318	s	s	5	5	Capacity	30	RC	1	0	08VC 15MC	1	0	1.02101898193	241.0	294.0	247	296	1
2.7	2015_May_08_1318	s	s	5	5	Capacity	31	RC	2	0	15VC 08MC	1	0	0.630135059357	218.0	159.0	219	156	1
2.7	2015_May_08_1318	s	s	5	5	Capacity	32	ABS	1	0	08VC 16MC	0	1	2.83620882034	None	None	None	None	1
2.7	2015_May_08_1318	s	s	5	5	Capacity	33	ABS	2	0	16VC 08MC	0	1	2.46874213219	None	None	None	None	1
2.7	2015_May_08_1318	s	s	5	5	Capacity	34	ABS	1	0	08VC 16MC	0	1	2.86747002602	None	None	None	None	1
2.7	2015_May_08_1318	s	s	5	5	Capacity	35	RC	2	0	15VC 08MC	1	0	1.0823199749	-498.0	42.0	-504	38	1
2.7	2015_May_08_1318	s	s	5	5	Capacity	36	RC	1	0	08VC 15MC	1	0	0.782963037491	-21.0	250.0	-16	255	1
2.7	2015_May_08_1318	s	s	5	5	Capacity	37	RC	2	0	15VC 08MC	1	0	0.811745882034	1.0	-6.0	7	-12	1
2.7	2015_May_08_1318	s	s	5	5	Capacity	38	ABS	2	0	16VC 08MC	0	1	2.16554784775	None	None	None	None	1
2.7	2015_May_08_1318	s	s	5	5	Capacity	39	ABS	1	0	08VC 16MC	0	1	2.97235703468	None	None	None	None	1
2.7	2015_May_08_1318	s	s	5	5	Capacity	40	RC	1	0	08VC 15MC	1	0	1.21842885017	-262.0	393.0	-262	395	1
2.7	2015_May_08_1318	s	s	5	5	Capacity	41	ABS	1	0	08VC 16MC	0	1	4.53962612152	None	None	None	None	1
2.7	2015_May_08_1318	s	s	5	5	Capacity	42	RC	1	0	08VC 15MC	1	0	1.80027508736	450.0	294.0	453	290	1
2.7	2015_May_08_1318	s	s	5	5	Capacity	43	RC	2	0	15VC 08MC	1	0	1.7387239933	174.0	-324.0	175	-329	1
2.7	2015_May_08_1318	s	s	5	5	Capacity	44	ABS	2	0	16VC 08MC	0	1	3.88363909721	None	None	None	None	1
2.7	2015_May_08_1318	s	s	5	5	Capacity	45	RC	2	0	15VC 08MC	1	0	1.15971493721	-431.0	-144.0	-429	-146	1
2.7	2015_May_08_1318	s	s	5	5	Capacity	46	RC	1	0	08VC 15MC	1	0	3.77758002281	507.0	343.0	503	334	1
2.7	2015_May_08_1318	s	s	5	5	Capacity	47	ABS	1	0	08VC 16MC	0	1	3.58438396454	None	None	None	None	1
2.7	2015_May_08_1318	s	s	5	5	Capacity	48	ABS	2	0	16VC 08MC	0	1	2.7751789093	None	None	None	None	1
2.7	2015_May_08_1318	s	s	5	5	Capacity	49	RC	2	0	15VC 08MC	1	0	1.10586190224	425.0	-74.0	427	-77	1
2.7	2015_May_08_1318	s	s	5	5	Capacity	50	ABS	2	0	16VC 08MC	0	1	2.20051193237	None	None	None	None	1
2.7	2015_May_08_1318	s	s	5	5	Capacity	51	RC	1	0	08VC 15MC	1	0	1.44152116776	-65.0	-276.0	-65	-274	1
2.7	2015_May_08_1318	s	s	5	5	Capacity	52	ABS	1	0	08VC 16MC	0	1	2.9340569973	None	None	None	None	1
2.7	2015_May_08_1318	s	s	5	5	Capacity	53	ABS	2	0	16VC 08MC	0	1	2.3132390976	None	None	None	None	1
2.7	2015_May_08_1318	s	s	5	5	Capacity	54	RC	1	0	08VC 15MC	1	0	1.17669796944	-272.0	-172.0	-272	-179	1
2.7	2015_May_08_1318	s	s	5	5	Capacity	55	ABS	1	0	08VC 16MC	0	1	2.84797716141	None	None	None	None	1
2.7	2015_May_08_1318	s	s	5	5	Capacity	56	RC	2	0	15VC 08MC	1	0	1.79560804367	322.0	242.0	322	240	1
2.7	2015_May_08_1318	s	s	5	5	Capacity	57	ABS	1	0	08VC 16MC	0	1	2.57389807701	None	None	None	None	1
2.7	2015_May_08_1318	s	s	5	5	Capacity	58	ABS	2	0	16VC 08MC	0	1	3.30697989464	None	None	None	None	1
2.7	2015_May_08_1318	s	s	5	5	Capacity	59	RC	2	0	15VC 08MC	1	0	1.6169219017	-113.0	-31.0	-111	-32	1
2.7	2015_May_08_1318	s	s	5	5	Capacity	60	RC	1	0	08VC 15MC	1	0	0.688825130463	-89.0	-102.0	-84	-107	1
2.7	2015_May_08_1318	s	s	5	5	Capacity	61	ABS	2	0	16VC 08MC	0	1	2.81257605553	None	None	None	None	1
2.7	2015_May_08_1318	s	s	5	5	Capacity	62	ABS	1	0	08VC 16MC	0	1	2.32778811455	None	None	None	None	1
2.7	2015_May_08_1318	s	s	5	5	Capacity	63	RC	1	0	08VC 15MC	1	0	2.25582695007	-383.0	-357.0	-391	-360	1
2.7	2015_May_08_1318	s	s	5	5	Capacity	64	RC	2	0	15VC 08MC	1	0	1.37154603004	-500.0	-309.0	-501	-312	1
2.7	2015_May_08_1318	s	s	5	5	SIC	1	ABS	0	2	02VD 02VO 02VC 02MD 02MO 02MC 10RD 02RO	0	1	2.57244110107	None	None	None	None	1
2.7	2015_May_08_1318	s	s	5	5	SIC	2	ABS	2	1	02VD 10VO 02VC 02MD 02MO 02MC 02RD 02RO	0	1	2.38868498802	None	None	None	None	1
2.7	2015_May_08_1318	s	s	5	5	SIC	3	ABS	2	0	02VD 02VO 10VC 02MD 02MO 02MC 02RD 02RO	0	1	2.92733192444	None	None	None	None	1
2.7	2015_May_08_1318	s	s	5	5	SIC	4	RC	2	2	09VD 02VO 02VC 02MD 02MO 02MC 02RD 02RO	1	0	1.50597286224	-313.0	376.0	-319	372	1
2.7	2015_May_08_1318	s	s	5	5	SIC	5	RC	1	2	02VD 02VO 02VC 09MD 02MO 02MC 02RD 02RO	1	0	1.40009784698	297.0	-288.0	299	-295	1
2.7	2015_May_08_1318	s	s	5	5	SIC	6	RC	2	1	02VD 09VO 02VC 02MD 02MO 02MC 02RD 02RO	1	0	1.03886198997	-534.0	-87.0	-536	-88	1
2.7	2015_May_08_1318	s	s	5	5	SIC	7	ABS	1	0	02VD 02VO 02VC 02MD 02MO 10MC 02RD 02RO	0	1	3.07146501541	None	None	None	None	1
2.7	2015_May_08_1318	s	s	5	5	SIC	8	RC	0	2	02VD 02VO 02VC 02MD 02MO 02MC 09RD 02RO	1	0	1.28237605095	404.0	-411.0	403	-418	1
2.7	2015_May_08_1318	s	s	5	5	SIC	9	ABS	0	1	02VD 02VO 02VC 02MD 02MO 02MC 02RD 10RO	0	1	4.30216217041	None	None	None	None	1
2.7	2015_May_08_1318	s	s	5	5	SIC	10	RC	1	1	02VD 02VO 02VC 02MD 09MO 02MC 02RD 02RO	1	0	1.23022508621	-299.0	357.0	-306	358	1
2.7	2015_May_08_1318	s	s	5	5	SIC	11	ABS	2	2	10VD 02VO 02VC 02MD 02MO 02MC 02RD 02RO	0	1	2.44405007362	None	None	None	None	1
2.7	2015_May_08_1318	s	s	5	5	SIC	12	RC	2	0	02VD 02VO 09VC 02MD 02MO 02MC 02RD 02RO	1	0	1.45352196693	434.0	-134.0	438	-136	1
2.7	2015_May_08_1318	s	s	5	5	SIC	13	ABS	1	2	02VD 02VO 02VC 10MD 02MO 02MC 02RD 02RO	0	1	1.45669078827	None	None	None	None	1
2.7	2015_May_08_1318	s	s	5	5	SIC	14	RC	0	1	02VD 02VO 02VC 02MD 02MO 02MC 02RD 09RO	1	0	0.828408956528	-134.0	287.0	-134	288	1
2.7	2015_May_08_1318	s	s	5	5	SIC	15	ABS	1	1	02VD 02VO 02VC 02MD 10MO 02MC 02RD 02RO	0	1	2.51871609688	None	None	None	None	1
2.7	2015_May_08_1318	s	s	5	5	SIC	16	RC	1	0	02VD 02VO 02VC 02MD 02MO 09MC 02RD 02RO	1	0	1.05357193947	-250.0	95.0	-241	97	1
2.7	2015_May_08_1318	s	s	5	5	SIC	17	ABS	2	0	02VD 02VO 10VC 02MD 02MO 02MC 02RD 02RO	0	1	1.59750509262	None	None	None	None	1
2.7	2015_May_08_1318	s	s	5	5	SIC	18	RC	0	1	02VD 02VO 02VC 02MD 02MO 02MC 02RD 09RO	1	0	2.09031391144	-209.0	-259.0	-205	-266	1
2.7	2015_May_08_1318	s	s	5	5	SIC	19	RC	0	2	02VD 02VO 02VC 02MD 02MO 02MC 09RD 02RO	1	0	2.48965191841	-172.0	266.0	-174	268	1
2.7	2015_May_08_1318	s	s	5	5	SIC	20	RC	1	2	02VD 02VO 02VC 09MD 02MO 02MC 02RD 02RO	1	0	0.891442060471	-90.0	186.0	-89	174	1
2.7	2015_May_08_1318	s	s	5	5	SIC	21	ABS	1	0	02VD 02VO 02VC 02MD 02MO 10MC 02RD 02RO	0	1	1.60015296936	None	None	None	None	1
2.7	2015_May_08_1318	s	s	5	5	SIC	22	RC	2	0	02VD 02VO 09VC 02MD 02MO 02MC 02RD 02RO	1	0	0.876603126526	-211.0	304.0	-204	312	1
2.7	2015_May_08_1318	s	s	5	5	SIC	23	ABS	1	1	02VD 02VO 02VC 02MD 10MO 02MC 02RD 02RO	0	1	2.16516709328	None	None	None	None	1
2.7	2015_May_08_1318	s	s	5	5	SIC	24	RC	2	2	09VD 02VO 02VC 02MD 02MO 02MC 02RD 02RO	1	0	1.19998216629	-407.0	-16.0	-408	-18	1
2.7	2015_May_08_1318	s	s	5	5	SIC	25	RC	2	1	02VD 09VO 02VC 02MD 02MO 02MC 02RD 02RO	1	0	1.04691290855	-16.0	-362.0	-15	-367	1
2.7	2015_May_08_1318	s	s	5	5	SIC	26	ABS	2	2	10VD 02VO 02VC 02MD 02MO 02MC 02RD 02RO	0	1	2.16541719437	None	None	None	None	1
2.7	2015_May_08_1318	s	s	5	5	SIC	27	ABS	2	1	02VD 10VO 02VC 02MD 02MO 02MC 02RD 02RO	0	1	1.98593688011	None	None	None	None	1
2.7	2015_May_08_1318	s	s	5	5	SIC	28	ABS	1	2	02VD 02VO 02VC 10MD 02MO 02MC 02RD 02RO	0	1	1.97204899788	None	None	None	None	1
2.7	2015_May_08_1318	s	s	5	5	SIC	29	RC	1	1	02VD 02VO 02VC 02MD 09MO 02MC 02RD 02RO	1	0	0.833059072495	178.0	245.0	182	243	1
2.7	2015_May_08_1318	s	s	5	5	SIC	30	ABS	0	2	02VD 02VO 02VC 02MD 02MO 02MC 10RD 02RO	0	1	1.49444007874	None	None	None	None	1
2.7	2015_May_08_1318	s	s	5	5	SIC	31	RC	1	0	02VD 02VO 02VC 02MD 02MO 09MC 02RD 02RO	1	0	1.36043906212	-367.0	-194.0	-362	-189	1
2.7	2015_May_08_1318	s	s	5	5	SIC	32	ABS	0	1	02VD 02VO 02VC 02MD 02MO 02MC 02RD 10RO	0	1	2.80089902878	None	None	None	None	1
2.7	2015_May_08_1318	s	s	5	5	SIC	33	ABS	2	0	02VD 02VO 10VC 02MD 02MO 02MC 02RD 02RO	0	1	1.73667788506	None	None	None	None	1
2.7	2015_May_08_1318	s	s	5	5	SIC	34	RC	0	1	02VD 02VO 02VC 02MD 02MO 02MC 02RD 09RO	1	0	2.67132997513	518.0	77.0	525	77	1
2.7	2015_May_08_1318	s	s	5	5	SIC	35	RC	2	1	02VD 09VO 02VC 02MD 02MO 02MC 02RD 02RO	1	0	1.05870819092	537.0	4.0	531	2	1
2.7	2015_May_08_1318	s	s	5	5	SIC	36	RC	2	2	09VD 02VO 02VC 02MD 02MO 02MC 02RD 02RO	1	0	0.823183059692	140.0	265.0	140	262	1
2.7	2015_May_08_1318	s	s	5	5	SIC	37	ABS	0	2	02VD 02VO 02VC 02MD 02MO 02MC 10RD 02RO	0	1	2.13958287239	None	None	None	None	1
2.7	2015_May_08_1318	s	s	5	5	SIC	38	ABS	2	1	02VD 10VO 02VC 02MD 02MO 02MC 02RD 02RO	0	1	1.80027794838	None	None	None	None	1
2.7	2015_May_08_1318	s	s	5	5	SIC	39	RC	2	0	02VD 02VO 09VC 02MD 02MO 02MC 02RD 02RO	1	0	1.10566902161	79.0	-209.0	79	-200	1
2.7	2015_May_08_1318	s	s	5	5	SIC	40	RC	0	2	02VD 02VO 02VC 02MD 02MO 02MC 09RD 02RO	1	0	1.2586889267	-276.0	72.0	-276	71	1
2.7	2015_May_08_1318	s	s	5	5	SIC	41	RC	1	2	02VD 02VO 02VC 09MD 02MO 02MC 02RD 02RO	0	1	2.44773101807	-141.0	210.0	None	None	0
2.7	2015_May_08_1318	s	s	5	5	SIC	42	ABS	2	2	10VD 02VO 02VC 02MD 02MO 02MC 02RD 02RO	0	1	1.61792993546	None	None	None	None	1
2.7	2015_May_08_1318	s	s	5	5	SIC	43	RC	1	0	02VD 02VO 02VC 02MD 02MO 09MC 02RD 02RO	1	0	1.90218496323	190.0	-315.0	195	-317	1
2.7	2015_May_08_1318	s	s	5	5	SIC	44	ABS	1	1	02VD 02VO 02VC 02MD 10MO 02MC 02RD 02RO	0	1	2.18869590759	None	None	None	None	1
2.7	2015_May_08_1318	s	s	5	5	SIC	45	RC	1	1	02VD 02VO 02VC 02MD 09MO 02MC 02RD 02RO	1	0	0.747174978256	-209.0	211.0	-205	213	1
2.7	2015_May_08_1318	s	s	5	5	SIC	46	ABS	1	2	02VD 02VO 02VC 10MD 02MO 02MC 02RD 02RO	0	1	1.82372689247	None	None	None	None	1
2.7	2015_May_08_1318	s	s	5	5	SIC	47	ABS	1	0	02VD 02VO 02VC 02MD 02MO 10MC 02RD 02RO	0	1	2.46708893776	None	None	None	None	1
2.7	2015_May_08_1318	s	s	5	5	SIC	48	ABS	0	1	02VD 02VO 02VC 02MD 02MO 02MC 02RD 10RO	0	1	2.98306393623	None	None	None	None	1
2.7	2015_May_08_1318	s	s	5	5	SIC	49	RC	2	2	09VD 02VO 02VC 02MD 02MO 02MC 02RD 02RO	1	0	1.72973489761	-89.0	-392.0	-90	-390	1
2.7	2015_May_08_1318	s	s	5	5	SIC	50	RC	0	1	02VD 02VO 02VC 02MD 02MO 02MC 02RD 09RO	1	0	0.858440876007	-72.0	48.0	-65	49	1
2.7	2015_May_08_1318	s	s	5	5	SIC	51	ABS	1	0	02VD 02VO 02VC 02MD 02MO 10MC 02RD 02RO	0	1	4.11431312561	None	None	None	None	1
2.7	2015_May_08_1318	s	s	5	5	SIC	52	ABS	2	0	02VD 02VO 10VC 02MD 02MO 02MC 02RD 02RO	0	1	1.95964598656	None	None	None	None	1
2.7	2015_May_08_1318	s	s	5	5	SIC	53	RC	2	0	02VD 02VO 09VC 02MD 02MO 02MC 02RD 02RO	1	0	1.14098191261	338.0	34.0	342	34	1
2.7	2015_May_08_1318	s	s	5	5	SIC	54	RC	1	2	02VD 02VO 02VC 09MD 02MO 02MC 02RD 02RO	1	0	1.57659888268	380.0	-247.0	380	-251	1
2.7	2015_May_08_1318	s	s	5	5	SIC	55	RC	0	2	02VD 02VO 02VC 02MD 02MO 02MC 09RD 02RO	1	0	1.29400587082	-441.0	-75.0	-440	-68	1
2.7	2015_May_08_1318	s	s	5	5	SIC	56	RC	2	1	02VD 09VO 02VC 02MD 02MO 02MC 02RD 02RO	1	0	1.73812818527	539.0	-401.0	541	-405	1
2.7	2015_May_08_1318	s	s	5	5	SIC	57	ABS	1	1	02VD 02VO 02VC 02MD 10MO 02MC 02RD 02RO	0	1	2.37358999252	None	None	None	None	1
2.7	2015_May_08_1318	s	s	5	5	SIC	58	ABS	1	2	02VD 02VO 02VC 10MD 02MO 02MC 02RD 02RO	0	1	1.46573114395	None	None	None	None	1
2.7	2015_May_08_1318	s	s	5	5	SIC	59	ABS	0	1	02VD 02VO 02VC 02MD 02MO 02MC 02RD 10RO	0	1	3.09503793716	None	None	None	None	1
2.7	2015_May_08_1318	s	s	5	5	SIC	60	RC	1	1	02VD 02VO 02VC 02MD 09MO 02MC 02RD 02RO	1	0	1.16236209869	-223.0	258.0	-225	260	1
2.7	2015_May_08_1318	s	s	5	5	SIC	61	ABS	2	1	02VD 10VO 02VC 02MD 02MO 02MC 02RD 02RO	0	1	2.07092499733	None	None	None	None	1
2.7	2015_May_08_1318	s	s	5	5	SIC	62	ABS	0	2	02VD 02VO 02VC 02MD 02MO 02MC 10RD 02RO	0	1	2.94915509224	None	None	None	None	1
2.7	2015_May_08_1318	s	s	5	5	SIC	63	RC	1	0	02VD 02VO 02VC 02MD 02MO 09MC 02RD 02RO	1	0	1.35975980759	382.0	124.0	386	124	1
2.7	2015_May_08_1318	s	s	5	5	SIC	64	ABS	2	2	10VD 02VO 02VC 02MD 02MO 02MC 02RD 02RO	0	1	1.90621304512	None	None	None	None	1
2.7	2015_May_08_1318	s	s	5	5	SIC	65	ABS	1	2	02VD 02VO 02VC 10MD 02MO 02MC 02RD 02RO	0	1	1.98849105835	None	None	None	None	1
2.7	2015_May_08_1318	s	s	5	5	SIC	66	RC	0	2	02VD 02VO 02VC 02MD 02MO 02MC 09RD 02RO	0	1	2.48978710175	-413.0	311.0	None	None	0
2.7	2015_May_08_1318	s	s	5	5	SIC	67	ABS	0	1	02VD 02VO 02VC 02MD 02MO 02MC 02RD 10RO	0	1	4.1073589325	None	None	None	None	1
2.7	2015_May_08_1318	s	s	5	5	SIC	68	ABS	2	1	02VD 10VO 02VC 02MD 02MO 02MC 02RD 02RO	0	1	2.21222114563	None	None	None	None	1
2.7	2015_May_08_1318	s	s	5	5	SIC	69	ABS	0	2	02VD 02VO 02VC 02MD 02MO 02MC 10RD 02RO	0	1	2.41239786148	None	None	None	None	1
2.7	2015_May_08_1318	s	s	5	5	SIC	70	RC	2	0	02VD 02VO 09VC 02MD 02MO 02MC 02RD 02RO	1	0	2.03566908836	42.0	-349.0	47	-351	1
2.7	2015_May_08_1318	s	s	5	5	SIC	71	RC	2	1	02VD 09VO 02VC 02MD 02MO 02MC 02RD 02RO	1	0	1.65408992767	506.0	-114.0	505	-113	1
2.7	2015_May_08_1318	s	s	5	5	SIC	72	RC	1	0	02VD 02VO 02VC 02MD 02MO 09MC 02RD 02RO	1	0	0.900707960129	-193.0	-15.0	-189	-13	1
2.7	2015_May_08_1318	s	s	5	5	SIC	73	RC	2	2	09VD 02VO 02VC 02MD 02MO 02MC 02RD 02RO	1	0	1.9532289505	-272.0	252.0	-267	247	1
2.7	2015_May_08_1318	s	s	5	5	SIC	74	RC	1	2	02VD 02VO 02VC 09MD 02MO 02MC 02RD 02RO	1	0	1.10949587822	337.0	-51.0	334	-56	1
2.7	2015_May_08_1318	s	s	5	5	SIC	75	ABS	2	0	02VD 02VO 10VC 02MD 02MO 02MC 02RD 02RO	0	1	2.41233801842	None	None	None	None	1
2.7	2015_May_08_1318	s	s	5	5	SIC	76	ABS	1	0	02VD 02VO 02VC 02MD 02MO 10MC 02RD 02RO	1	0	1.1716029644	None	None	-318	-22	0
2.7	2015_May_08_1318	s	s	5	5	SIC	77	ABS	1	1	02VD 02VO 02VC 02MD 10MO 02MC 02RD 02RO	0	1	2.1416079998	None	None	None	None	1
2.7	2015_May_08_1318	s	s	5	5	SIC	78	RC	1	1	02VD 02VO 02VC 02MD 09MO 02MC 02RD 02RO	1	0	2.1376709938	364.0	192.0	360	183	1
2.7	2015_May_08_1318	s	s	5	5	SIC	79	RC	0	1	02VD 02VO 02VC 02MD 02MO 02MC 02RD 09RO	1	0	2.34546995163	-222.0	-255.0	-225	-249	1
2.7	2015_May_08_1318	s	s	5	5	SIC	80	ABS	2	2	10VD 02VO 02VC 02MD 02MO 02MC 02RD 02RO	0	1	2.41241812706	None	None	None	None	1
2.7	2015_May_08_1318	s	s	5	5	SIC	81	ABS	1	0	02VD 02VO 02VC 02MD 02MO 10MC 02RD 02RO	0	1	3.06749081612	None	None	None	None	1
2.7	2015_May_08_1318	s	s	5	5	SIC	82	ABS	0	2	02VD 02VO 02VC 02MD 02MO 02MC 10RD 02RO	0	1	2.28977799416	None	None	None	None	1
2.7	2015_May_08_1318	s	s	5	5	SIC	83	RC	2	1	02VD 09VO 02VC 02MD 02MO 02MC 02RD 02RO	1	0	2.73003482819	227.0	394.0	223	403	1
2.7	2015_May_08_1318	s	s	5	5	SIC	84	RC	1	0	02VD 02VO 02VC 02MD 02MO 09MC 02RD 02RO	1	0	1.94898486137	-138.0	-370.0	-136	-368	1
2.7	2015_May_08_1318	s	s	5	5	SIC	85	ABS	1	2	02VD 02VO 02VC 10MD 02MO 02MC 02RD 02RO	0	1	1.82381296158	None	None	None	None	1
2.7	2015_May_08_1318	s	s	5	5	SIC	86	RC	1	1	02VD 02VO 02VC 02MD 09MO 02MC 02RD 02RO	1	0	1.58274078369	208.0	-306.0	207	-307	1
2.7	2015_May_08_1318	s	s	5	5	SIC	87	RC	1	2	02VD 02VO 02VC 09MD 02MO 02MC 02RD 02RO	1	0	0.900769948959	6.0	65.0	8	67	1
2.7	2015_May_08_1318	s	s	5	5	SIC	88	ABS	2	1	02VD 10VO 02VC 02MD 02MO 02MC 02RD 02RO	0	1	2.40903782845	None	None	None	None	1
2.7	2015_May_08_1318	s	s	5	5	SIC	89	RC	2	2	09VD 02VO 02VC 02MD 02MO 02MC 02RD 02RO	1	0	1.44727492332	-98.0	-222.0	-101	-226	1
2.7	2015_May_08_1318	s	s	5	5	SIC	90	ABS	2	0	02VD 02VO 10VC 02MD 02MO 02MC 02RD 02RO	0	1	2.21210813522	None	None	None	None	1
2.7	2015_May_08_1318	s	s	5	5	SIC	91	RC	0	2	02VD 02VO 02VC 02MD 02MO 02MC 09RD 02RO	1	0	1.76492094994	179.0	-285.0	184	-281	1
2.7	2015_May_08_1318	s	s	5	5	SIC	92	ABS	0	1	02VD 02VO 02VC 02MD 02MO 02MC 02RD 10RO	0	1	4.56625413895	None	None	None	None	1
2.7	2015_May_08_1318	s	s	5	5	SIC	93	ABS	1	1	02VD 02VO 02VC 02MD 10MO 02MC 02RD 02RO	0	1	2.34776210785	None	None	None	None	1
2.7	2015_May_08_1318	s	s	5	5	SIC	94	RC	2	0	02VD 02VO 09VC 02MD 02MO 02MC 02RD 02RO	1	0	0.739369153976	156.0	-133.0	157	-136	1
2.7	2015_May_08_1318	s	s	5	5	SIC	95	RC	0	1	02VD 02VO 02VC 02MD 02MO 02MC 02RD 09RO	1	0	2.00046682358	525.0	-306.0	523	-303	1
2.7	2015_May_08_1318	s	s	5	5	SIC	96	ABS	2	2	10VD 02VO 02VC 02MD 02MO 02MC 02RD 02RO	0	1	1.59476304054	None	None	None	None	1
2.7	2015_May_08_1318	s	s	5	5	SIC	97	RC	2	0	02VD 02VO 09VC 02MD 02MO 02MC 02RD 02RO	1	0	0.573679208755	-59.0	81.0	-55	80	1
2.7	2015_May_08_1318	s	s	5	5	SIC	98	ABS	2	0	02VD 02VO 10VC 02MD 02MO 02MC 02RD 02RO	0	1	1.8435997963	None	None	None	None	1
2.7	2015_May_08_1318	s	s	5	5	SIC	99	ABS	2	2	10VD 02VO 02VC 02MD 02MO 02MC 02RD 02RO	0	1	1.95324683189	None	None	None	None	1
2.7	2015_May_08_1318	s	s	5	5	SIC	100	ABS	0	2	02VD 02VO 02VC 02MD 02MO 02MC 10RD 02RO	0	1	1.92971992493	None	None	None	None	1
2.7	2015_May_08_1318	s	s	5	5	SIC	101	RC	2	1	02VD 09VO 02VC 02MD 02MO 02MC 02RD 02RO	1	0	1.13535809517	357.0	-126.0	360	-126	1
2.7	2015_May_08_1318	s	s	5	5	SIC	102	RC	1	2	02VD 02VO 02VC 09MD 02MO 02MC 02RD 02RO	1	0	1.8512980938	458.0	-114.0	466	-113	1
2.7	2015_May_08_1318	s	s	5	5	SIC	103	ABS	1	2	02VD 02VO 02VC 10MD 02MO 02MC 02RD 02RO	0	1	2.23389983177	None	None	None	None	1
2.7	2015_May_08_1318	s	s	5	5	SIC	104	RC	0	2	02VD 02VO 02VC 02MD 02MO 02MC 09RD 02RO	0	1	2.6310210228	67.0	103.0	None	None	0
2.7	2015_May_08_1318	s	s	5	5	SIC	105	RC	1	0	02VD 02VO 02VC 02MD 02MO 09MC 02RD 02RO	0	1	2.315721035	-539.0	244.0	None	None	0
2.7	2015_May_08_1318	s	s	5	5	SIC	106	ABS	2	1	02VD 10VO 02VC 02MD 02MO 02MC 02RD 02RO	0	1	1.85895800591	None	None	None	None	1
2.7	2015_May_08_1318	s	s	5	5	SIC	107	ABS	1	1	02VD 02VO 02VC 02MD 10MO 02MC 02RD 02RO	0	1	1.83233189583	None	None	None	None	1
2.7	2015_May_08_1318	s	s	5	5	SIC	108	ABS	1	0	02VD 02VO 02VC 02MD 02MO 10MC 02RD 02RO	0	1	2.33964800835	None	None	None	None	1
2.7	2015_May_08_1318	s	s	5	5	SIC	109	ABS	0	1	02VD 02VO 02VC 02MD 02MO 02MC 02RD 10RO	0	1	3.15390205383	None	None	None	None	1
2.7	2015_May_08_1318	s	s	5	5	SIC	110	RC	1	1	02VD 02VO 02VC 02MD 09MO 02MC 02RD 02RO	1	0	1.13548016548	311.0	8.0	308	9	1
2.7	2015_May_08_1318	s	s	5	5	SIC	111	RC	0	1	02VD 02VO 02VC 02MD 02MO 02MC 02RD 09RO	1	0	2.58397912979	93.0	111.0	96	110	1
2.7	2015_May_08_1318	s	s	5	5	SIC	112	RC	2	2	09VD 02VO 02VC 02MD 02MO 02MC 02RD 02RO	1	0	0.776220083237	132.0	25.0	133	20	1
2.7	2015_May_08_1318	s	s	5	5	SIC	113	ABS	1	1	02VD 02VO 02VC 02MD 10MO 02MC 02RD 02RO	0	1	2.56062889099	None	None	None	None	1
2.7	2015_May_08_1318	s	s	5	5	SIC	114	RC	0	1	02VD 02VO 02VC 02MD 02MO 02MC 02RD 09RO	1	0	2.89286398888	462.0	165.0	464	164	1
2.7	2015_May_08_1318	s	s	5	5	SIC	115	ABS	2	0	02VD 02VO 10VC 02MD 02MO 02MC 02RD 02RO	0	1	1.80047893524	None	None	None	None	1
2.7	2015_May_08_1318	s	s	5	5	SIC	116	ABS	0	1	02VD 02VO 02VC 02MD 02MO 02MC 02RD 10RO	0	1	2.98560094833	None	None	None	None	1
2.7	2015_May_08_1318	s	s	5	5	SIC	117	RC	1	2	02VD 02VO 02VC 09MD 02MO 02MC 02RD 02RO	1	0	1.41185498238	-361.0	136.0	-357	137	1
2.7	2015_May_08_1318	s	s	5	5	SIC	118	RC	2	2	09VD 02VO 02VC 02MD 02MO 02MC 02RD 02RO	1	0	1.48878622055	-387.0	243.0	-383	244	1
2.7	2015_May_08_1318	s	s	5	5	SIC	119	ABS	2	1	02VD 10VO 02VC 02MD 02MO 02MC 02RD 02RO	0	1	1.65411806107	None	None	None	None	1
2.7	2015_May_08_1318	s	s	5	5	SIC	120	ABS	1	2	02VD 02VO 02VC 10MD 02MO 02MC 02RD 02RO	0	1	1.70610404015	None	None	None	None	1
2.7	2015_May_08_1318	s	s	5	5	SIC	121	ABS	0	2	02VD 02VO 02VC 02MD 02MO 02MC 10RD 02RO	0	1	1.89447021484	None	None	None	None	1
2.7	2015_May_08_1318	s	s	5	5	SIC	122	ABS	2	2	10VD 02VO 02VC 02MD 02MO 02MC 02RD 02RO	0	1	1.80026292801	None	None	None	None	1
2.7	2015_May_08_1318	s	s	5	5	SIC	123	RC	2	0	02VD 02VO 09VC 02MD 02MO 02MC 02RD 02RO	0	1	2.55354309082	-525.0	-198.0	None	None	0
2.7	2015_May_08_1318	s	s	5	5	SIC	124	ABS	1	0	02VD 02VO 02VC 02MD 02MO 10MC 02RD 02RO	0	1	2.09497404099	None	None	None	None	1
2.7	2015_May_08_1318	s	s	5	5	SIC	125	RC	1	1	02VD 02VO 02VC 02MD 09MO 02MC 02RD 02RO	1	0	1.48246502876	449.0	-100.0	450	-97	1
2.7	2015_May_08_1318	s	s	5	5	SIC	126	RC	0	2	02VD 02VO 02VC 02MD 02MO 02MC 09RD 02RO	1	0	2.86716413498	0.0	-195.0	8	-195	1
2.7	2015_May_08_1318	s	s	5	5	SIC	127	RC	1	0	02VD 02VO 02VC 02MD 02MO 09MC 02RD 02RO	1	0	1.40656709671	-288.0	-390.0	-284	-393	1
2.7	2015_May_08_1318	s	s	5	5	SIC	128	RC	2	1	02VD 09VO 02VC 02MD 02MO 02MC 02RD 02RO	1	0	1.17145609856	-343.0	-285.0	-341	-286	1
2.7	2015_May_08_1318	s	s	5	5	SIC	129	RC	2	1	02VD 09VO 02VC 02MD 02MO 02MC 02RD 02RO	1	0	1.38510799408	416.0	-217.0	418	-222	1
2.7	2015_May_08_1318	s	s	5	5	SIC	130	RC	1	2	02VD 02VO 02VC 09MD 02MO 02MC 02RD 02RO	1	0	0.811514139175	-106.0	-51.0	-102	-52	1
2.7	2015_May_08_1318	s	s	5	5	SIC	131	RC	0	2	02VD 02VO 02VC 02MD 02MO 02MC 09RD 02RO	1	0	0.511450052261	19.0	-34.0	24	-32	1
2.7	2015_May_08_1318	s	s	5	5	SIC	132	ABS	2	0	02VD 02VO 10VC 02MD 02MO 02MC 02RD 02RO	1	0	1.60014104843	None	None	31	19	0
2.7	2015_May_08_1318	s	s	5	5	SIC	133	RC	0	1	02VD 02VO 02VC 02MD 02MO 02MC 02RD 09RO	1	0	2.78901100159	-377.0	-78.0	-372	-83	1
2.7	2015_May_08_1318	s	s	5	5	SIC	134	ABS	1	1	02VD 02VO 02VC 02MD 10MO 02MC 02RD 02RO	0	1	3.00081300735	None	None	None	None	1
2.7	2015_May_08_1318	s	s	5	5	SIC	135	ABS	0	1	02VD 02VO 02VC 02MD 02MO 02MC 02RD 10RO	0	1	3.35053682327	None	None	None	None	1
2.7	2015_May_08_1318	s	s	5	5	SIC	136	ABS	1	2	02VD 02VO 02VC 10MD 02MO 02MC 02RD 02RO	0	1	1.69439291954	None	None	None	None	1
2.7	2015_May_08_1318	s	s	5	5	SIC	137	ABS	2	2	10VD 02VO 02VC 02MD 02MO 02MC 02RD 02RO	0	1	2.40721106529	None	None	None	None	1
2.7	2015_May_08_1318	s	s	5	5	SIC	138	RC	2	0	02VD 02VO 09VC 02MD 02MO 02MC 02RD 02RO	1	0	1.13629317284	-15.0	-332.0	-10	-332	1
2.7	2015_May_08_1318	s	s	5	5	SIC	139	ABS	0	2	02VD 02VO 02VC 02MD 02MO 02MC 10RD 02RO	0	1	2.58650708199	None	None	None	None	1
2.7	2015_May_08_1318	s	s	5	5	SIC	140	ABS	2	1	02VD 10VO 02VC 02MD 02MO 02MC 02RD 02RO	0	1	1.75087118149	None	None	None	None	1
2.7	2015_May_08_1318	s	s	5	5	SIC	141	ABS	1	0	02VD 02VO 02VC 02MD 02MO 10MC 02RD 02RO	0	1	4.95474696159	None	None	None	None	1
2.7	2015_May_08_1318	s	s	5	5	SIC	142	RC	1	1	02VD 02VO 02VC 02MD 09MO 02MC 02RD 02RO	1	0	1.11345791817	-417.0	-233.0	-413	-239	1
2.7	2015_May_08_1318	s	s	5	5	SIC	143	RC	2	2	09VD 02VO 02VC 02MD 02MO 02MC 02RD 02RO	0	1	2.02385783195	-466.0	-121.0	None	None	0
2.7	2015_May_08_1318	s	s	5	5	SIC	144	RC	1	0	02VD 02VO 02VC 02MD 02MO 09MC 02RD 02RO	1	0	2.32458806038	-445.0	-97.0	-447	-97	1
2.7	2015_May_08_1318	s	s	5	5	SIC	145	ABS	1	2	02VD 02VO 02VC 10MD 02MO 02MC 02RD 02RO	0	1	1.79544687271	None	None	None	None	1
2.7	2015_May_08_1318	s	s	5	5	SIC	146	RC	0	2	02VD 02VO 02VC 02MD 02MO 02MC 09RD 02RO	1	0	1.4994199276	281.0	-106.0	279	-104	1
2.7	2015_May_08_1318	s	s	5	5	SIC	147	RC	1	2	02VD 02VO 02VC 09MD 02MO 02MC 02RD 02RO	1	0	1.90609192848	38.0	21.0	41	18	1
2.7	2015_May_08_1318	s	s	5	5	SIC	148	RC	0	1	02VD 02VO 02VC 02MD 02MO 02MC 02RD 09RO	1	0	0.929203987122	-121.0	-359.0	-116	-350	1
2.7	2015_May_08_1318	s	s	5	5	SIC	149	ABS	0	2	02VD 02VO 02VC 02MD 02MO 02MC 10RD 02RO	0	1	1.58835101128	None	None	None	None	1
2.7	2015_May_08_1318	s	s	5	5	SIC	150	ABS	2	2	10VD 02VO 02VC 02MD 02MO 02MC 02RD 02RO	0	1	1.83048510551	None	None	None	None	1
2.7	2015_May_08_1318	s	s	5	5	SIC	151	RC	2	0	02VD 02VO 09VC 02MD 02MO 02MC 02RD 02RO	1	0	2.17125511169	38.0	-409.0	45	-415	1
2.7	2015_May_08_1318	s	s	5	5	SIC	152	RC	1	0	02VD 02VO 02VC 02MD 02MO 09MC 02RD 02RO	1	0	1.4353260994	196.0	306.0	198	308	1
2.7	2015_May_08_1318	s	s	5	5	SIC	153	ABS	2	1	02VD 10VO 02VC 02MD 02MO 02MC 02RD 02RO	0	1	2.11580705643	None	None	None	None	1
2.7	2015_May_08_1318	s	s	5	5	SIC	154	RC	2	2	09VD 02VO 02VC 02MD 02MO 02MC 02RD 02RO	1	0	1.82430505753	483.0	-376.0	488	-375	1
2.7	2015_May_08_1318	s	s	5	5	SIC	155	RC	2	1	02VD 09VO 02VC 02MD 02MO 02MC 02RD 02RO	1	0	2.17212915421	397.0	308.0	400	311	1
2.7	2015_May_08_1318	s	s	5	5	SIC	156	ABS	1	0	02VD 02VO 02VC 02MD 02MO 10MC 02RD 02RO	0	1	2.52689504623	None	None	None	None	1
2.7	2015_May_08_1318	s	s	5	5	SIC	157	ABS	1	1	02VD 02VO 02VC 02MD 10MO 02MC 02RD 02RO	0	1	3.66931700706	None	None	None	None	1
2.7	2015_May_08_1318	s	s	5	5	SIC	158	ABS	0	1	02VD 02VO 02VC 02MD 02MO 02MC 02RD 10RO	0	1	3.89920496941	None	None	None	None	1
2.7	2015_May_08_1318	s	s	5	5	SIC	159	ABS	2	0	02VD 02VO 10VC 02MD 02MO 02MC 02RD 02RO	0	1	2.34173893929	None	None	None	None	1
2.7	2015_May_08_1318	s	s	5	5	SIC	160	RC	1	1	02VD 02VO 02VC 02MD 09MO 02MC 02RD 02RO	1	0	1.84215402603	-472.0	304.0	-475	296	1
2.7	2015_May_08_1318	s	s	5	5	SIC	161	RC	2	2	09VD 02VO 02VC 02MD 02MO 02MC 02RD 02RO	0	1	3.26666092873	-175.0	100.0	None	None	0
2.7	2015_May_08_1318	s	s	5	5	SIC	162	RC	1	2	02VD 02VO 02VC 09MD 02MO 02MC 02RD 02RO	1	0	0.811403036118	-193.0	142.0	-194	139	1
2.7	2015_May_08_1318	s	s	5	5	SIC	163	ABS	2	1	02VD 10VO 02VC 02MD 02MO 02MC 02RD 02RO	0	1	2.12989592552	None	None	None	None	1
2.7	2015_May_08_1318	s	s	5	5	SIC	164	ABS	1	1	02VD 02VO 02VC 02MD 10MO 02MC 02RD 02RO	0	1	3.01977014542	None	None	None	None	1
2.7	2015_May_08_1318	s	s	5	5	SIC	165	ABS	2	0	02VD 02VO 10VC 02MD 02MO 02MC 02RD 02RO	0	1	2.16524386406	None	None	None	None	1
2.7	2015_May_08_1318	s	s	5	5	SIC	166	RC	1	1	02VD 02VO 02VC 02MD 09MO 02MC 02RD 02RO	1	0	2.56250596046	326.0	285.0	322	281	1
2.7	2015_May_08_1318	s	s	5	5	SIC	167	ABS	0	1	02VD 02VO 02VC 02MD 02MO 02MC 02RD 10RO	0	1	4.67859196663	None	None	None	None	1
2.7	2015_May_08_1318	s	s	5	5	SIC	168	ABS	0	2	02VD 02VO 02VC 02MD 02MO 02MC 10RD 02RO	0	1	1.5830488205	None	None	None	None	1
2.7	2015_May_08_1318	s	s	5	5	SIC	169	RC	1	0	02VD 02VO 02VC 02MD 02MO 09MC 02RD 02RO	1	0	1.82390594482	-343.0	-24.0	-344	-24	1
2.7	2015_May_08_1318	s	s	5	5	SIC	170	RC	2	0	02VD 02VO 09VC 02MD 02MO 02MC 02RD 02RO	1	0	1.28898096085	43.0	-55.0	47	-53	1
2.7	2015_May_08_1318	s	s	5	5	SIC	171	ABS	1	0	02VD 02VO 02VC 02MD 02MO 10MC 02RD 02RO	0	1	4.33102607727	None	None	None	None	1
2.7	2015_May_08_1318	s	s	5	5	SIC	172	RC	0	1	02VD 02VO 02VC 02MD 02MO 02MC 02RD 09RO	1	0	2.76541590691	468.0	-85.0	469	-89	1
2.7	2015_May_08_1318	s	s	5	5	SIC	173	RC	0	2	02VD 02VO 02VC 02MD 02MO 02MC 09RD 02RO	1	0	1.24415206909	-374.0	-370.0	-374	-368	1
2.7	2015_May_08_1318	s	s	5	5	SIC	174	ABS	1	2	02VD 02VO 02VC 10MD 02MO 02MC 02RD 02RO	0	1	2.58879113197	None	None	None	None	1
2.7	2015_May_08_1318	s	s	5	5	SIC	175	ABS	2	2	10VD 02VO 02VC 02MD 02MO 02MC 02RD 02RO	1	0	2.03126120567	None	None	-112	39	0
2.7	2015_May_08_1318	s	s	5	5	SIC	176	RC	2	1	02VD 09VO 02VC 02MD 02MO 02MC 02RD 02RO	1	0	1.29404115677	-450.0	-102.0	-447	-102	1
2.7	2015_May_08_1318	s	s	5	5	SIC	177	RC	0	1	02VD 02VO 02VC 02MD 02MO 02MC 02RD 09RO	1	0	1.37651920319	-533.0	322.0	-533	327	1
2.7	2015_May_08_1318	s	s	5	5	SIC	178	RC	1	0	02VD 02VO 02VC 02MD 02MO 09MC 02RD 02RO	1	0	0.891731977463	-226.0	-380.0	-225	-379	1
2.7	2015_May_08_1318	s	s	5	5	SIC	179	ABS	1	2	02VD 02VO 02VC 10MD 02MO 02MC 02RD 02RO	0	1	1.70613288879	None	None	None	None	1
2.7	2015_May_08_1318	s	s	5	5	SIC	180	RC	0	2	02VD 02VO 02VC 02MD 02MO 02MC 09RD 02RO	1	0	0.588376998901	-42.0	-25.0	-39	-20	1
2.7	2015_May_08_1318	s	s	5	5	SIC	181	ABS	1	1	02VD 02VO 02VC 02MD 10MO 02MC 02RD 02RO	0	1	2.79490685463	None	None	None	None	1
2.7	2015_May_08_1318	s	s	5	5	SIC	182	ABS	2	1	02VD 10VO 02VC 02MD 02MO 02MC 02RD 02RO	0	1	1.93944096565	None	None	None	None	1
2.7	2015_May_08_1318	s	s	5	5	SIC	183	RC	2	1	02VD 09VO 02VC 02MD 02MO 02MC 02RD 02RO	1	0	0.784659147263	-205.0	383.0	-206	382	1
2.7	2015_May_08_1318	s	s	5	5	SIC	184	ABS	0	2	02VD 02VO 02VC 02MD 02MO 02MC 10RD 02RO	0	1	2.00029587746	None	None	None	None	1
2.7	2015_May_08_1318	s	s	5	5	SIC	185	ABS	2	2	10VD 02VO 02VC 02MD 02MO 02MC 02RD 02RO	0	1	2.0357439518	None	None	None	None	1
2.7	2015_May_08_1318	s	s	5	5	SIC	186	RC	1	1	02VD 02VO 02VC 02MD 09MO 02MC 02RD 02RO	1	0	0.723844051361	-117.0	-4.0	-117	-10	1
2.7	2015_May_08_1318	s	s	5	5	SIC	187	ABS	0	1	02VD 02VO 02VC 02MD 02MO 02MC 02RD 10RO	0	1	3.44277882576	None	None	None	None	1
2.7	2015_May_08_1318	s	s	5	5	SIC	188	RC	1	2	02VD 02VO 02VC 09MD 02MO 02MC 02RD 02RO	1	0	1.02112293243	-158.0	-216.0	-160	-217	1
2.7	2015_May_08_1318	s	s	5	5	SIC	189	ABS	2	0	02VD 02VO 10VC 02MD 02MO 02MC 02RD 02RO	0	1	1.7861199379	None	None	None	None	1
2.7	2015_May_08_1318	s	s	5	5	SIC	190	RC	2	2	09VD 02VO 02VC 02MD 02MO 02MC 02RD 02RO	1	0	0.724425077438	-49.0	-119.0	-50	-118	1
2.7	2015_May_08_1318	s	s	5	5	SIC	191	RC	2	0	02VD 02VO 09VC 02MD 02MO 02MC 02RD 02RO	1	0	0.983139038086	234.0	-134.0	232	-132	1
2.7	2015_May_08_1318	s	s	5	5	SIC	192	ABS	1	0	02VD 02VO 02VC 02MD 02MO 10MC 02RD 02RO	0	1	2.2803030014	None	None	None	None	1
2.7	2015_May_08_1318	s	s	5	5	SIC	193	ABS	0	1	02VD 02VO 02VC 02MD 02MO 02MC 02RD 10RO	0	1	3.39792513847	None	None	None	None	1
2.7	2015_May_08_1318	s	s	5	5	SIC	194	ABS	2	2	10VD 02VO 02VC 02MD 02MO 02MC 02RD 02RO	0	1	1.38835096359	None	None	None	None	1
2.7	2015_May_08_1318	s	s	5	5	SIC	195	RC	1	1	02VD 02VO 02VC 02MD 09MO 02MC 02RD 02RO	1	0	1.40011286736	516.0	179.0	521	172	1
2.7	2015_May_08_1318	s	s	5	5	SIC	196	RC	2	0	02VD 02VO 09VC 02MD 02MO 02MC 02RD 02RO	0	1	2.41889619827	-55.0	342.0	None	None	0
2.7	2015_May_08_1318	s	s	5	5	SIC	197	ABS	2	0	02VD 02VO 10VC 02MD 02MO 02MC 02RD 02RO	0	1	1.68260002136	None	None	None	None	1
2.7	2015_May_08_1318	s	s	5	5	SIC	198	RC	0	1	02VD 02VO 02VC 02MD 02MO 02MC 02RD 09RO	1	0	2.53713512421	-130.0	-256.0	-129	-260	1
2.7	2015_May_08_1318	s	s	5	5	SIC	199	ABS	1	2	02VD 02VO 02VC 10MD 02MO 02MC 02RD 02RO	0	1	1.95333719254	None	None	None	None	1
2.7	2015_May_08_1318	s	s	5	5	SIC	200	ABS	1	0	02VD 02VO 02VC 02MD 02MO 10MC 02RD 02RO	0	1	2.99906015396	None	None	None	None	1
2.7	2015_May_08_1318	s	s	5	5	SIC	201	RC	1	0	02VD 02VO 02VC 02MD 02MO 09MC 02RD 02RO	1	0	1.25389909744	76.0	-187.0	79	-189	1
2.7	2015_May_08_1318	s	s	5	5	SIC	202	ABS	1	1	02VD 02VO 02VC 02MD 10MO 02MC 02RD 02RO	0	1	2.64761400223	None	None	None	None	1
2.7	2015_May_08_1318	s	s	5	5	SIC	203	RC	1	2	02VD 02VO 02VC 09MD 02MO 02MC 02RD 02RO	1	0	1.69020414352	304.0	-136.0	307	-132	1
2.7	2015_May_08_1318	s	s	5	5	SIC	204	ABS	0	2	02VD 02VO 02VC 02MD 02MO 02MC 10RD 02RO	0	1	2.74876689911	None	None	None	None	1
2.7	2015_May_08_1318	s	s	5	5	SIC	205	RC	2	2	09VD 02VO 02VC 02MD 02MO 02MC 02RD 02RO	1	0	1.7364089489	215.0	-368.0	220	-366	1
2.7	2015_May_08_1318	s	s	5	5	SIC	206	RC	2	1	02VD 09VO 02VC 02MD 02MO 02MC 02RD 02RO	1	0	1.49092721939	-111.0	188.0	-113	187	1
2.7	2015_May_08_1318	s	s	5	5	SIC	207	RC	0	2	02VD 02VO 02VC 02MD 02MO 02MC 09RD 02RO	0	1	1.98358392715	118.0	317.0	None	None	0
2.7	2015_May_08_1318	s	s	5	5	SIC	208	ABS	2	1	02VD 10VO 02VC 02MD 02MO 02MC 02RD 02RO	0	1	1.67076897621	None	None	None	None	1
2.7	2015_May_08_1318	s	s	5	5	SIC	209	ABS	1	0	02VD 02VO 02VC 02MD 02MO 10MC 02RD 02RO	0	1	2.73980808258	None	None	None	None	1
2.7	2015_May_08_1318	s	s	5	5	SIC	210	RC	2	1	02VD 09VO 02VC 02MD 02MO 02MC 02RD 02RO	1	0	1.3450319767	-338.0	404.0	-343	409	1
2.7	2015_May_08_1318	s	s	5	5	SIC	211	RC	1	0	02VD 02VO 02VC 02MD 02MO 09MC 02RD 02RO	1	0	1.11197686195	-459.0	126.0	-459	126	1
2.7	2015_May_08_1318	s	s	5	5	SIC	212	RC	2	0	02VD 02VO 09VC 02MD 02MO 02MC 02RD 02RO	1	0	0.79984998703	90.0	108.0	85	104	1
2.7	2015_May_08_1318	s	s	5	5	SIC	213	ABS	1	1	02VD 02VO 02VC 02MD 10MO 02MC 02RD 02RO	0	1	1.97440719604	None	None	None	None	1
2.7	2015_May_08_1318	s	s	5	5	SIC	214	ABS	1	2	02VD 02VO 02VC 10MD 02MO 02MC 02RD 02RO	0	1	1.77176809311	None	None	None	None	1
2.7	2015_May_08_1318	s	s	5	5	SIC	215	RC	1	1	02VD 02VO 02VC 02MD 09MO 02MC 02RD 02RO	0	1	3.10301685333	429.0	-18.0	None	None	0
2.7	2015_May_08_1318	s	s	5	5	SIC	216	RC	2	2	09VD 02VO 02VC 02MD 02MO 02MC 02RD 02RO	1	0	0.876573085785	-215.0	236.0	-212	240	1
2.7	2015_May_08_1318	s	s	5	5	SIC	217	ABS	2	0	02VD 02VO 10VC 02MD 02MO 02MC 02RD 02RO	0	1	1.70610809326	None	None	None	None	1
2.7	2015_May_08_1318	s	s	5	5	SIC	218	ABS	2	1	02VD 10VO 02VC 02MD 02MO 02MC 02RD 02RO	0	1	1.67772006989	None	None	None	None	1
2.7	2015_May_08_1318	s	s	5	5	SIC	219	RC	0	1	02VD 02VO 02VC 02MD 02MO 02MC 02RD 09RO	1	0	1.05397391319	-276.0	88.0	-276	82	1
2.7	2015_May_08_1318	s	s	5	5	SIC	220	RC	1	2	02VD 02VO 02VC 09MD 02MO 02MC 02RD 02RO	1	0	1.12922096252	-14.0	24.0	-15	22	1
2.7	2015_May_08_1318	s	s	5	5	SIC	221	ABS	2	2	10VD 02VO 02VC 02MD 02MO 02MC 02RD 02RO	0	1	1.62371492386	None	None	None	None	1
2.7	2015_May_08_1318	s	s	5	5	SIC	222	RC	0	2	02VD 02VO 02VC 02MD 02MO 02MC 09RD 02RO	1	0	1.65905499458	-227.0	300.0	-224	299	1
2.7	2015_May_08_1318	s	s	5	5	SIC	223	ABS	0	1	02VD 02VO 02VC 02MD 02MO 02MC 02RD 10RO	0	1	4.09558796883	None	None	None	None	1
2.7	2015_May_08_1318	s	s	5	5	SIC	224	ABS	0	2	02VD 02VO 02VC 02MD 02MO 02MC 10RD 02RO	0	1	3.78734111786	None	None	None	None	1
2.7	2015_May_08_1318	s	s	5	5	SIC	225	ABS	1	0	02VD 02VO 02VC 02MD 02MO 10MC 02RD 02RO	0	1	4.62898111343	None	None	None	None	1
2.7	2015_May_08_1318	s	s	5	5	SIC	226	ABS	1	2	02VD 02VO 02VC 10MD 02MO 02MC 02RD 02RO	0	1	2.11238598824	None	None	None	None	1
2.7	2015_May_08_1318	s	s	5	5	SIC	227	RC	0	1	02VD 02VO 02VC 02MD 02MO 02MC 02RD 09RO	1	0	2.93739509583	-409.0	21.0	-409	21	1
2.7	2015_May_08_1318	s	s	5	5	SIC	228	RC	1	2	02VD 02VO 02VC 09MD 02MO 02MC 02RD 02RO	1	0	3.13839197159	410.0	68.0	411	72	1
2.7	2015_May_08_1318	s	s	5	5	SIC	229	ABS	2	0	02VD 02VO 10VC 02MD 02MO 02MC 02RD 02RO	0	1	2.40919804573	None	None	None	None	1
2.7	2015_May_08_1318	s	s	5	5	SIC	230	ABS	2	2	10VD 02VO 02VC 02MD 02MO 02MC 02RD 02RO	0	1	1.62400698662	None	None	None	None	1
2.7	2015_May_08_1318	s	s	5	5	SIC	231	RC	2	0	02VD 02VO 09VC 02MD 02MO 02MC 02RD 02RO	1	0	0.862400054932	-124.0	-164.0	-117	-163	1
2.7	2015_May_08_1318	s	s	5	5	SIC	232	RC	1	1	02VD 02VO 02VC 02MD 09MO 02MC 02RD 02RO	1	0	1.62370991707	441.0	-153.0	441	-151	1
2.7	2015_May_08_1318	s	s	5	5	SIC	233	ABS	2	1	02VD 10VO 02VC 02MD 02MO 02MC 02RD 02RO	0	1	2.15330505371	None	None	None	None	1
2.7	2015_May_08_1318	s	s	5	5	SIC	234	RC	0	2	02VD 02VO 02VC 02MD 02MO 02MC 09RD 02RO	1	0	1.01205420494	-340.0	294.0	-339	295	1
2.7	2015_May_08_1318	s	s	5	5	SIC	235	RC	2	1	02VD 09VO 02VC 02MD 02MO 02MC 02RD 02RO	1	0	0.877320051193	38.0	-252.0	39	-249	1
2.7	2015_May_08_1318	s	s	5	5	SIC	236	ABS	1	1	02VD 02VO 02VC 02MD 10MO 02MC 02RD 02RO	0	1	2.05927705765	None	None	None	None	1
2.7	2015_May_08_1318	s	s	5	5	SIC	237	RC	2	2	09VD 02VO 02VC 02MD 02MO 02MC 02RD 02RO	1	0	1.56482505798	285.0	28.0	285	25	1
2.7	2015_May_08_1318	s	s	5	5	SIC	238	ABS	0	1	02VD 02VO 02VC 02MD 02MO 02MC 02RD 10RO	0	1	3.06882309914	None	None	None	None	1
2.7	2015_May_08_1318	s	s	5	5	SIC	239	RC	1	0	02VD 02VO 02VC 02MD 02MO 09MC 02RD 02RO	1	0	1.15289592743	65.0	-213.0	66	-213	1
2.7	2015_May_08_1318	s	s	5	5	SIC	240	ABS	0	2	02VD 02VO 02VC 02MD 02MO 02MC 10RD 02RO	0	1	1.9768538475	None	None	None	None	1
2.7	2015_May_08_1318	s	s	5	5	SIC	241	ABS	1	0	02VD 02VO 02VC 02MD 02MO 10MC 02RD 02RO	0	1	2.33624911308	None	None	None	None	1
2.7	2015_May_08_1318	s	s	5	5	SIC	242	ABS	2	2	10VD 02VO 02VC 02MD 02MO 02MC 02RD 02RO	0	1	1.79469704628	None	None	None	None	1
2.7	2015_May_08_1318	s	s	5	5	SIC	243	ABS	2	1	02VD 10VO 02VC 02MD 02MO 02MC 02RD 02RO	0	1	1.33892703056	None	None	None	None	1
2.7	2015_May_08_1318	s	s	5	5	SIC	244	RC	1	2	02VD 02VO 02VC 09MD 02MO 02MC 02RD 02RO	1	0	1.16459298134	-41.0	-298.0	-41	-306	1
2.7	2015_May_08_1318	s	s	5	5	SIC	245	RC	2	0	02VD 02VO 09VC 02MD 02MO 02MC 02RD 02RO	1	0	1.87078094482	211.0	391.0	210	392	1
2.7	2015_May_08_1318	s	s	5	5	SIC	246	RC	2	1	02VD 09VO 02VC 02MD 02MO 02MC 02RD 02RO	1	0	1.17669010162	244.0	-130.0	248	-132	1
2.7	2015_May_08_1318	s	s	5	5	SIC	247	ABS	1	1	02VD 02VO 02VC 02MD 10MO 02MC 02RD 02RO	0	1	2.34838080406	None	None	None	None	1
2.7	2015_May_08_1318	s	s	5	5	SIC	248	ABS	1	2	02VD 02VO 02VC 10MD 02MO 02MC 02RD 02RO	0	1	2.85440993309	None	None	None	None	1
2.7	2015_May_08_1318	s	s	5	5	SIC	249	RC	1	1	02VD 02VO 02VC 02MD 09MO 02MC 02RD 02RO	1	0	2.06451106071	-342.0	295.0	-340	295	1
2.7	2015_May_08_1318	s	s	5	5	SIC	250	ABS	0	2	02VD 02VO 02VC 02MD 02MO 02MC 10RD 02RO	0	1	3.08333992958	None	None	None	None	1
2.7	2015_May_08_1318	s	s	5	5	SIC	251	RC	2	2	09VD 02VO 02VC 02MD 02MO 02MC 02RD 02RO	1	0	0.817660093307	-166.0	28.0	-160	27	1
2.7	2015_May_08_1318	s	s	5	5	SIC	252	RC	1	0	02VD 02VO 02VC 02MD 02MO 09MC 02RD 02RO	1	0	1.52640509605	175.0	371.0	179	373	1
2.7	2015_May_08_1318	s	s	5	5	SIC	253	RC	0	2	02VD 02VO 02VC 02MD 02MO 02MC 09RD 02RO	1	0	2.96549105644	415.0	-366.0	419	-369	1
2.7	2015_May_08_1318	s	s	5	5	SIC	254	ABS	0	1	02VD 02VO 02VC 02MD 02MO 02MC 02RD 10RO	0	1	2.75359606743	None	None	None	None	1
2.7	2015_May_08_1318	s	s	5	5	SIC	255	ABS	2	0	02VD 02VO 10VC 02MD 02MO 02MC 02RD 02RO	0	1	1.51781511307	None	None	None	None	1
2.7	2015_May_08_1318	s	s	5	5	SIC	256	RC	0	1	02VD 02VO 02VC 02MD 02MO 02MC 02RD 09RO	1	0	1.59738993645	-307.0	-115.0	-310	-121	1
2.7	2015_May_08_1318	s	s	5	5	SIC	257	RC	1	0	02VD 02VO 02VC 02MD 02MO 09MC 02RD 02RO	1	0	1.24207305908	-287.0	335.0	-288	331	1
2.7	2015_May_08_1318	s	s	5	5	SIC	258	RC	2	0	02VD 02VO 09VC 02MD 02MO 02MC 02RD 02RO	1	0	1.29456305504	526.0	116.0	523	120	1
2.7	2015_May_08_1318	s	s	5	5	SIC	259	ABS	1	1	02VD 02VO 02VC 02MD 10MO 02MC 02RD 02RO	0	1	2.55738282204	None	None	None	None	1
2.7	2015_May_08_1318	s	s	5	5	SIC	260	ABS	2	2	10VD 02VO 02VC 02MD 02MO 02MC 02RD 02RO	0	1	1.60694003105	None	None	None	None	1
2.7	2015_May_08_1318	s	s	5	5	SIC	261	ABS	1	2	02VD 02VO 02VC 10MD 02MO 02MC 02RD 02RO	0	1	1.11760115623	None	None	None	None	1
2.7	2015_May_08_1318	s	s	5	5	SIC	262	ABS	0	1	02VD 02VO 02VC 02MD 02MO 02MC 02RD 10RO	0	1	2.68308496475	None	None	None	None	1
2.7	2015_May_08_1318	s	s	5	5	SIC	263	ABS	1	0	02VD 02VO 02VC 02MD 02MO 10MC 02RD 02RO	0	1	1.82380700111	None	None	None	None	1
2.7	2015_May_08_1318	s	s	5	5	SIC	264	RC	2	2	09VD 02VO 02VC 02MD 02MO 02MC 02RD 02RO	1	0	1.78614497185	-208.0	-228.0	-205	-232	1
2.7	2015_May_08_1318	s	s	5	5	SIC	265	RC	2	1	02VD 09VO 02VC 02MD 02MO 02MC 02RD 02RO	1	0	0.677096843719	-238.0	135.0	-240	136	1
2.7	2015_May_08_1318	s	s	5	5	SIC	266	ABS	2	1	02VD 10VO 02VC 02MD 02MO 02MC 02RD 02RO	0	1	1.59560012817	None	None	None	None	1
2.7	2015_May_08_1318	s	s	5	5	SIC	267	ABS	0	2	02VD 02VO 02VC 02MD 02MO 02MC 10RD 02RO	0	1	1.63086485863	None	None	None	None	1
2.7	2015_May_08_1318	s	s	5	5	SIC	268	RC	0	1	02VD 02VO 02VC 02MD 02MO 02MC 02RD 09RO	0	1	5.30777406693	-494.0	104.0	None	None	0
2.7	2015_May_08_1318	s	s	5	5	SIC	269	RC	1	1	02VD 02VO 02VC 02MD 09MO 02MC 02RD 02RO	1	0	1.40966415405	-461.0	62.0	-452	59	1
2.7	2015_May_08_1318	s	s	5	5	SIC	270	RC	0	2	02VD 02VO 02VC 02MD 02MO 02MC 09RD 02RO	1	0	2.12502908707	251.0	230.0	245	228	1
2.7	2015_May_08_1318	s	s	5	5	SIC	271	RC	1	2	02VD 02VO 02VC 09MD 02MO 02MC 02RD 02RO	0	1	1.86861491203	251.0	280.0	None	None	0
2.7	2015_May_08_1318	s	s	5	5	SIC	272	ABS	2	0	02VD 02VO 10VC 02MD 02MO 02MC 02RD 02RO	0	1	1.47056603432	None	None	None	None	1
2.7	2015_May_08_1318	s	s	5	5	SIC	273	ABS	0	2	02VD 02VO 02VC 02MD 02MO 02MC 10RD 02RO	0	1	1.16062688828	None	None	None	None	1
2.7	2015_May_08_1318	s	s	5	5	SIC	274	ABS	0	1	02VD 02VO 02VC 02MD 02MO 02MC 02RD 10RO	0	1	5.21975398064	None	None	None	None	1
2.7	2015_May_08_1318	s	s	5	5	SIC	275	RC	1	0	02VD 02VO 02VC 02MD 02MO 09MC 02RD 02RO	1	0	1.57652592659	-337.0	148.0	-336	156	1
2.7	2015_May_08_1318	s	s	5	5	SIC	276	ABS	2	1	02VD 10VO 02VC 02MD 02MO 02MC 02RD 02RO	0	1	3.25984382629	None	None	None	None	1
2.7	2015_May_08_1318	s	s	5	5	SIC	277	ABS	2	0	02VD 02VO 10VC 02MD 02MO 02MC 02RD 02RO	0	1	2.75140309334	None	None	None	None	1
2.7	2015_May_08_1318	s	s	5	5	SIC	278	ABS	2	2	10VD 02VO 02VC 02MD 02MO 02MC 02RD 02RO	0	1	1.81903982162	None	None	None	None	1
2.7	2015_May_08_1318	s	s	5	5	SIC	279	ABS	1	0	02VD 02VO 02VC 02MD 02MO 10MC 02RD 02RO	0	1	3.91269803047	None	None	None	None	1
2.7	2015_May_08_1318	s	s	5	5	SIC	280	RC	1	1	02VD 02VO 02VC 02MD 09MO 02MC 02RD 02RO	1	0	1.4790520668	-159.0	372.0	-157	372	1
2.7	2015_May_08_1318	s	s	5	5	SIC	281	RC	1	2	02VD 02VO 02VC 09MD 02MO 02MC 02RD 02RO	1	0	1.03909802437	-168.0	157.0	-174	155	1
2.7	2015_May_08_1318	s	s	5	5	SIC	282	RC	2	2	09VD 02VO 02VC 02MD 02MO 02MC 02RD 02RO	1	0	1.48876190186	190.0	122.0	192	126	1
2.7	2015_May_08_1318	s	s	5	5	SIC	283	RC	0	1	02VD 02VO 02VC 02MD 02MO 02MC 02RD 09RO	1	0	0.615211009979	-8.0	64.0	-6	59	1
2.7	2015_May_08_1318	s	s	5	5	SIC	284	ABS	1	2	02VD 02VO 02VC 10MD 02MO 02MC 02RD 02RO	0	1	2.40055894852	None	None	None	None	1
2.7	2015_May_08_1318	s	s	5	5	SIC	285	ABS	1	1	02VD 02VO 02VC 02MD 10MO 02MC 02RD 02RO	0	1	2.11328697205	None	None	None	None	1
2.7	2015_May_08_1318	s	s	5	5	SIC	286	RC	2	0	02VD 02VO 09VC 02MD 02MO 02MC 02RD 02RO	0	1	1.48012185097	-303.0	408.0	None	None	0
2.7	2015_May_08_1318	s	s	5	5	SIC	287	RC	2	1	02VD 09VO 02VC 02MD 02MO 02MC 02RD 02RO	0	1	1.86520791054	-30.0	227.0	None	None	0
2.7	2015_May_08_1318	s	s	5	5	SIC	288	RC	0	2	02VD 02VO 02VC 02MD 02MO 02MC 09RD 02RO	1	0	1.9419708252	183.0	-252.0	180	-253	1
2.7	2015_May_08_1318	s	s	5	5	SIC	289	ABS	0	1	02VD 02VO 02VC 02MD 02MO 02MC 02RD 10RO	0	1	3.49080920219	None	None	None	None	1
2.7	2015_May_08_1318	s	s	5	5	SIC	290	RC	0	2	02VD 02VO 02VC 02MD 02MO 02MC 09RD 02RO	1	0	0.964622974396	142.0	-162.0	145	-159	1
2.7	2015_May_08_1318	s	s	5	5	SIC	291	ABS	2	0	02VD 02VO 10VC 02MD 02MO 02MC 02RD 02RO	0	1	2.15344309807	None	None	None	None	1
2.7	2015_May_08_1318	s	s	5	5	SIC	292	RC	1	2	02VD 02VO 02VC 09MD 02MO 02MC 02RD 02RO	1	0	1.2705039978	299.0	-239.0	294	-241	1
2.7	2015_May_08_1318	s	s	5	5	SIC	293	RC	1	1	02VD 02VO 02VC 02MD 09MO 02MC 02RD 02RO	1	0	2.53004312515	-203.0	-222.0	-198	-223	1
2.7	2015_May_08_1318	s	s	5	5	SIC	294	ABS	2	1	02VD 10VO 02VC 02MD 02MO 02MC 02RD 02RO	0	1	1.85917210579	None	None	None	None	1
2.7	2015_May_08_1318	s	s	5	5	SIC	295	RC	2	1	02VD 09VO 02VC 02MD 02MO 02MC 02RD 02RO	1	0	1.36520290375	-441.0	330.0	-435	330	1
2.7	2015_May_08_1318	s	s	5	5	SIC	296	RC	2	2	09VD 02VO 02VC 02MD 02MO 02MC 02RD 02RO	1	0	1.78319501877	-514.0	361.0	-513	360	1
2.7	2015_May_08_1318	s	s	5	5	SIC	297	ABS	1	0	02VD 02VO 02VC 02MD 02MO 10MC 02RD 02RO	0	1	3.25390791893	None	None	None	None	1
2.7	2015_May_08_1318	s	s	5	5	SIC	298	RC	2	0	02VD 02VO 09VC 02MD 02MO 02MC 02RD 02RO	1	0	1.2432320118	-260.0	125.0	-257	130	1
2.7	2015_May_08_1318	s	s	5	5	SIC	299	RC	1	0	02VD 02VO 02VC 02MD 02MO 09MC 02RD 02RO	1	0	0.782965898514	-237.0	207.0	-235	210	1
2.7	2015_May_08_1318	s	s	5	5	SIC	300	ABS	0	2	02VD 02VO 02VC 02MD 02MO 02MC 10RD 02RO	0	1	1.65900111198	None	None	None	None	1
2.7	2015_May_08_1318	s	s	5	5	SIC	301	ABS	1	1	02VD 02VO 02VC 02MD 10MO 02MC 02RD 02RO	0	1	3.71883702278	None	None	None	None	1
2.7	2015_May_08_1318	s	s	5	5	SIC	302	ABS	2	2	10VD 02VO 02VC 02MD 02MO 02MC 02RD 02RO	0	1	2.0239109993	None	None	None	None	1
2.7	2015_May_08_1318	s	s	5	5	SIC	303	ABS	1	2	02VD 02VO 02VC 10MD 02MO 02MC 02RD 02RO	0	1	2.05919718742	None	None	None	None	1
2.7	2015_May_08_1318	s	s	5	5	SIC	304	RC	0	1	02VD 02VO 02VC 02MD 02MO 02MC 02RD 09RO	1	0	2.04749679565	311.0	-89.0	312	-90	1
2.7	2015_May_08_1318	s	s	5	5	SIC	305	ABS	2	1	02VD 10VO 02VC 02MD 02MO 02MC 02RD 02RO	0	1	1.95331192017	None	None	None	None	1
2.7	2015_May_08_1318	s	s	5	5	SIC	306	RC	1	2	02VD 02VO 02VC 09MD 02MO 02MC 02RD 02RO	1	0	1.10268115997	358.0	-240.0	361	-239	1
2.7	2015_May_08_1318	s	s	5	5	SIC	307	RC	2	2	09VD 02VO 02VC 02MD 02MO 02MC 02RD 02RO	1	0	1.47756791115	161.0	-338.0	166	-336	1
2.7	2015_May_08_1318	s	s	5	5	SIC	308	RC	2	0	02VD 02VO 09VC 02MD 02MO 02MC 02RD 02RO	1	0	1.44152498245	-208.0	-73.0	-204	-67	1
2.7	2015_May_08_1318	s	s	5	5	SIC	309	ABS	2	0	02VD 02VO 10VC 02MD 02MO 02MC 02RD 02RO	0	1	1.80727505684	None	None	None	None	1
2.7	2015_May_08_1318	s	s	5	5	SIC	310	ABS	1	1	02VD 02VO 02VC 02MD 10MO 02MC 02RD 02RO	0	1	2.1769080162	None	None	None	None	1
2.7	2015_May_08_1318	s	s	5	5	SIC	311	RC	2	1	02VD 09VO 02VC 02MD 02MO 02MC 02RD 02RO	1	0	1.31275296211	-252.0	-90.0	-257	-88	1
2.7	2015_May_08_1318	s	s	5	5	SIC	312	ABS	1	0	02VD 02VO 02VC 02MD 02MO 10MC 02RD 02RO	0	1	2.23326206207	None	None	None	None	1
2.7	2015_May_08_1318	s	s	5	5	SIC	313	RC	1	0	02VD 02VO 02VC 02MD 02MO 09MC 02RD 02RO	1	0	1.85910511017	-502.0	-208.0	-502	-213	1
2.7	2015_May_08_1318	s	s	5	5	SIC	314	RC	0	1	02VD 02VO 02VC 02MD 02MO 02MC 02RD 09RO	1	0	2.58410787582	-14.0	304.0	-14	312	1
2.7	2015_May_08_1318	s	s	5	5	SIC	315	ABS	0	1	02VD 02VO 02VC 02MD 02MO 02MC 02RD 10RO	0	1	2.51020312309	None	None	None	None	1
2.7	2015_May_08_1318	s	s	5	5	SIC	316	ABS	0	2	02VD 02VO 02VC 02MD 02MO 02MC 10RD 02RO	0	1	2.47736597061	None	None	None	None	1
2.7	2015_May_08_1318	s	s	5	5	SIC	317	RC	1	1	02VD 02VO 02VC 02MD 09MO 02MC 02RD 02RO	1	0	1.42366886139	-371.0	-405.0	-371	-407	1
2.7	2015_May_08_1318	s	s	5	5	SIC	318	RC	0	2	02VD 02VO 02VC 02MD 02MO 02MC 09RD 02RO	1	0	1.9705529213	407.0	224.0	408	226	1
2.7	2015_May_08_1318	s	s	5	5	SIC	319	ABS	1	2	02VD 02VO 02VC 10MD 02MO 02MC 02RD 02RO	0	1	2.54958796501	None	None	None	None	1
2.7	2015_May_08_1318	s	s	5	5	SIC	320	ABS	2	2	10VD 02VO 02VC 02MD 02MO 02MC 02RD 02RO	0	1	2.32992601395	None	None	None	None	1
2.7	2015_May_08_1318	s	s	5	5	SIC	321	RC	0	2	02VD 02VO 02VC 02MD 02MO 02MC 09RD 02RO	1	0	2.76236605644	425.0	-310.0	422	-311	1
2.7	2015_May_08_1318	s	s	5	5	SIC	322	RC	1	2	02VD 02VO 02VC 09MD 02MO 02MC 02RD 02RO	0	1	3.06893801689	-430.0	363.0	None	None	0
2.7	2015_May_08_1318	s	s	5	5	SIC	323	ABS	1	2	02VD 02VO 02VC 10MD 02MO 02MC 02RD 02RO	0	1	1.92665505409	None	None	None	None	1
2.7	2015_May_08_1318	s	s	5	5	SIC	324	RC	1	0	02VD 02VO 02VC 02MD 02MO 09MC 02RD 02RO	0	1	4.30519890785	-507.0	-170.0	None	None	0
2.7	2015_May_08_1318	s	s	5	5	SIC	325	ABS	1	1	02VD 02VO 02VC 02MD 10MO 02MC 02RD 02RO	0	1	2.75378298759	None	None	None	None	1
2.7	2015_May_08_1318	s	s	5	5	SIC	326	ABS	2	1	02VD 10VO 02VC 02MD 02MO 02MC 02RD 02RO	0	1	1.83568120003	None	None	None	None	1
2.7	2015_May_08_1318	s	s	5	5	SIC	327	ABS	1	0	02VD 02VO 02VC 02MD 02MO 10MC 02RD 02RO	0	1	2.25938487053	None	None	None	None	1
2.7	2015_May_08_1318	s	s	5	5	SIC	328	RC	2	1	02VD 09VO 02VC 02MD 02MO 02MC 02RD 02RO	1	0	2.23013901711	-228.0	-227.0	-228	-233	1
2.7	2015_May_08_1318	s	s	5	5	SIC	329	ABS	2	2	10VD 02VO 02VC 02MD 02MO 02MC 02RD 02RO	0	1	2.03246498108	None	None	None	None	1
2.7	2015_May_08_1318	s	s	5	5	SIC	330	ABS	0	1	02VD 02VO 02VC 02MD 02MO 02MC 02RD 10RO	0	1	5.50566101074	None	None	None	None	1
2.7	2015_May_08_1318	s	s	5	5	SIC	331	RC	2	2	09VD 02VO 02VC 02MD 02MO 02MC 02RD 02RO	1	0	0.985939025879	-428.0	-258.0	-432	-265	1
2.7	2015_May_08_1318	s	s	5	5	SIC	332	ABS	0	2	02VD 02VO 02VC 02MD 02MO 02MC 10RD 02RO	0	1	1.93589997292	None	None	None	None	1
2.7	2015_May_08_1318	s	s	5	5	SIC	333	RC	2	0	02VD 02VO 09VC 02MD 02MO 02MC 02RD 02RO	0	1	1.74126386642	409.0	-345.0	None	None	0
2.7	2015_May_08_1318	s	s	5	5	SIC	334	ABS	2	0	02VD 02VO 10VC 02MD 02MO 02MC 02RD 02RO	0	1	3.69533395767	None	None	None	None	1
2.7	2015_May_08_1318	s	s	5	5	SIC	335	RC	1	1	02VD 02VO 02VC 02MD 09MO 02MC 02RD 02RO	1	0	1.28859305382	404.0	349.0	403	345	1
2.7	2015_May_08_1318	s	s	5	5	SIC	336	RC	0	1	02VD 02VO 02VC 02MD 02MO 02MC 02RD 09RO	1	0	2.58560395241	267.0	-322.0	267	-328	1
2.7	2015_May_08_1318	s	s	5	5	SIC	337	RC	2	0	02VD 02VO 09VC 02MD 02MO 02MC 02RD 02RO	1	0	0.585601091385	122.0	42.0	118	39	1
2.7	2015_May_08_1318	s	s	5	5	SIC	338	RC	0	2	02VD 02VO 02VC 02MD 02MO 02MC 09RD 02RO	1	0	0.830111026764	-250.0	99.0	-250	93	1
2.7	2015_May_08_1318	s	s	5	5	SIC	339	RC	0	1	02VD 02VO 02VC 02MD 02MO 02MC 02RD 09RO	1	0	1.05865907669	-322.0	-174.0	-326	-172	1
2.7	2015_May_08_1318	s	s	5	5	SIC	340	RC	2	1	02VD 09VO 02VC 02MD 02MO 02MC 02RD 02RO	1	0	1.12369799614	-302.0	109.0	-303	109	1
2.7	2015_May_08_1318	s	s	5	5	SIC	341	ABS	2	2	10VD 02VO 02VC 02MD 02MO 02MC 02RD 02RO	0	1	1.74932813644	None	None	None	None	1
2.7	2015_May_08_1318	s	s	5	5	SIC	342	RC	2	2	09VD 02VO 02VC 02MD 02MO 02MC 02RD 02RO	1	0	0.680178880692	152.0	29.0	157	26	1
2.7	2015_May_08_1318	s	s	5	5	SIC	343	RC	1	0	02VD 02VO 02VC 02MD 02MO 09MC 02RD 02RO	1	0	0.561605930328	-71.0	-32.0	-78	-33	1
2.7	2015_May_08_1318	s	s	5	5	SIC	344	RC	1	2	02VD 02VO 02VC 09MD 02MO 02MC 02RD 02RO	1	0	0.794728040695	248.0	-221.0	247	-222	1
2.7	2015_May_08_1318	s	s	5	5	SIC	345	ABS	1	0	02VD 02VO 02VC 02MD 02MO 10MC 02RD 02RO	0	1	2.38883399963	None	None	None	None	1
2.7	2015_May_08_1318	s	s	5	5	SIC	346	ABS	1	1	02VD 02VO 02VC 02MD 10MO 02MC 02RD 02RO	0	1	2.16266703606	None	None	None	None	1
2.7	2015_May_08_1318	s	s	5	5	SIC	347	ABS	2	1	02VD 10VO 02VC 02MD 02MO 02MC 02RD 02RO	0	1	1.61845898628	None	None	None	None	1
2.7	2015_May_08_1318	s	s	5	5	SIC	348	ABS	0	1	02VD 02VO 02VC 02MD 02MO 02MC 02RD 10RO	0	1	2.10633206367	None	None	None	None	1
2.7	2015_May_08_1318	s	s	5	5	SIC	349	RC	1	1	02VD 02VO 02VC 02MD 09MO 02MC 02RD 02RO	1	0	1.76499295235	-280.0	382.0	-280	384	1
2.7	2015_May_08_1318	s	s	5	5	SIC	350	ABS	1	2	02VD 02VO 02VC 10MD 02MO 02MC 02RD 02RO	0	1	1.53612208366	None	None	None	None	1
2.7	2015_May_08_1318	s	s	5	5	SIC	351	ABS	2	0	02VD 02VO 10VC 02MD 02MO 02MC 02RD 02RO	0	1	1.61841988564	None	None	None	None	1
2.7	2015_May_08_1318	s	s	5	5	SIC	352	ABS	0	2	02VD 02VO 02VC 02MD 02MO 02MC 10RD 02RO	0	1	1.45897912979	None	None	None	None	1
2.7	2015_May_08_1318	s	s	5	5	SIC	353	ABS	2	1	02VD 10VO 02VC 02MD 02MO 02MC 02RD 02RO	0	1	1.50615692139	None	None	None	None	1
2.7	2015_May_08_1318	s	s	5	5	SIC	354	ABS	1	2	02VD 02VO 02VC 10MD 02MO 02MC 02RD 02RO	0	1	2.11569404602	None	None	None	None	1
2.7	2015_May_08_1318	s	s	5	5	SIC	355	ABS	1	1	02VD 02VO 02VC 02MD 10MO 02MC 02RD 02RO	0	1	1.90622711182	None	None	None	None	1
2.7	2015_May_08_1318	s	s	5	5	SIC	356	RC	2	1	02VD 09VO 02VC 02MD 02MO 02MC 02RD 02RO	1	0	2.11431908607	194.0	-295.0	192	-292	1
2.7	2015_May_08_1318	s	s	5	5	SIC	357	RC	1	2	02VD 02VO 02VC 09MD 02MO 02MC 02RD 02RO	1	0	1.66573500633	-448.0	164.0	-452	159	1
2.7	2015_May_08_1318	s	s	5	5	SIC	358	RC	1	1	02VD 02VO 02VC 02MD 09MO 02MC 02RD 02RO	1	0	0.735136032104	-277.0	192.0	-275	197	1
2.7	2015_May_08_1318	s	s	5	5	SIC	359	ABS	1	0	02VD 02VO 02VC 02MD 02MO 10MC 02RD 02RO	0	1	3.26930713654	None	None	None	None	1
2.7	2015_May_08_1318	s	s	5	5	SIC	360	RC	1	0	02VD 02VO 02VC 02MD 02MO 09MC 02RD 02RO	1	0	0.726971149445	-265.0	-137.0	-266	-136	1
2.7	2015_May_08_1318	s	s	5	5	SIC	361	ABS	0	1	02VD 02VO 02VC 02MD 02MO 02MC 02RD 10RO	0	1	2.56300806999	None	None	None	None	1
2.7	2015_May_08_1318	s	s	5	5	SIC	362	RC	0	1	02VD 02VO 02VC 02MD 02MO 02MC 02RD 09RO	1	0	3.1422419548	-523.0	85.0	-522	87	1
2.7	2015_May_08_1318	s	s	5	5	SIC	363	RC	2	0	02VD 02VO 09VC 02MD 02MO 02MC 02RD 02RO	1	0	1.81201601028	33.0	298.0	35	305	1
2.7	2015_May_08_1318	s	s	5	5	SIC	364	RC	2	2	09VD 02VO 02VC 02MD 02MO 02MC 02RD 02RO	1	0	2.27099990845	348.0	100.0	360	103	1
2.7	2015_May_08_1318	s	s	5	5	SIC	365	ABS	2	2	10VD 02VO 02VC 02MD 02MO 02MC 02RD 02RO	0	1	1.84505105019	None	None	None	None	1
2.7	2015_May_08_1318	s	s	5	5	SIC	366	ABS	2	0	02VD 02VO 10VC 02MD 02MO 02MC 02RD 02RO	0	1	1.60077500343	None	None	None	None	1
2.7	2015_May_08_1318	s	s	5	5	SIC	367	ABS	0	2	02VD 02VO 02VC 02MD 02MO 02MC 10RD 02RO	0	1	2.84780812263	None	None	None	None	1
2.7	2015_May_08_1318	s	s	5	5	SIC	368	RC	0	2	02VD 02VO 02VC 02MD 02MO 02MC 09RD 02RO	1	0	1.41562509537	532.0	-184.0	533	-183	1
2.7	2015_May_08_1318	s	s	5	5	SIC	369	ABS	2	0	02VD 02VO 10VC 02MD 02MO 02MC 02RD 02RO	0	1	1.64710712433	None	None	None	None	1
2.7	2015_May_08_1318	s	s	5	5	SIC	370	ABS	1	1	02VD 02VO 02VC 02MD 10MO 02MC 02RD 02RO	0	1	1.89195394516	None	None	None	None	1
2.7	2015_May_08_1318	s	s	5	5	SIC	371	RC	1	2	02VD 02VO 02VC 09MD 02MO 02MC 02RD 02RO	1	0	0.900480031967	-134.0	-287.0	-127	-284	1
2.7	2015_May_08_1318	s	s	5	5	SIC	372	RC	1	0	02VD 02VO 02VC 02MD 02MO 09MC 02RD 02RO	1	0	2.27942109108	2.0	247.0	3	249	1
2.7	2015_May_08_1318	s	s	5	5	SIC	373	RC	1	1	02VD 02VO 02VC 02MD 09MO 02MC 02RD 02RO	1	0	0.902975082397	-32.0	-104.0	-29	-108	1
2.7	2015_May_08_1318	s	s	5	5	SIC	374	ABS	2	2	10VD 02VO 02VC 02MD 02MO 02MC 02RD 02RO	0	1	2.39807581902	None	None	None	None	1
2.7	2015_May_08_1318	s	s	5	5	SIC	375	RC	2	2	09VD 02VO 02VC 02MD 02MO 02MC 02RD 02RO	1	0	1.90066099167	-531.0	345.0	-535	349	1
2.7	2015_May_08_1318	s	s	5	5	SIC	376	RC	2	1	02VD 09VO 02VC 02MD 02MO 02MC 02RD 02RO	1	0	0.723927021027	-84.0	94.0	-82	88	1
2.7	2015_May_08_1318	s	s	5	5	SIC	377	RC	0	2	02VD 02VO 02VC 02MD 02MO 02MC 09RD 02RO	1	0	1.376557827	440.0	262.0	443	264	1
2.7	2015_May_08_1318	s	s	5	5	SIC	378	RC	0	1	02VD 02VO 02VC 02MD 02MO 02MC 02RD 09RO	1	0	1.28922319412	-504.0	-172.0	-504	-175	1
2.7	2015_May_08_1318	s	s	5	5	SIC	379	ABS	1	0	02VD 02VO 02VC 02MD 02MO 10MC 02RD 02RO	0	1	4.91469407082	None	None	None	None	1
2.7	2015_May_08_1318	s	s	5	5	SIC	380	ABS	0	2	02VD 02VO 02VC 02MD 02MO 02MC 10RD 02RO	0	1	1.4528028965	None	None	None	None	1
2.7	2015_May_08_1318	s	s	5	5	SIC	381	ABS	2	1	02VD 10VO 02VC 02MD 02MO 02MC 02RD 02RO	0	1	1.4677939415	None	None	None	None	1
2.7	2015_May_08_1318	s	s	5	5	SIC	382	RC	2	0	02VD 02VO 09VC 02MD 02MO 02MC 02RD 02RO	1	0	0.638897895813	-16.0	90.0	-5	96	1
2.7	2015_May_08_1318	s	s	5	5	SIC	383	ABS	0	1	02VD 02VO 02VC 02MD 02MO 02MC 02RD 10RO	0	1	3.28332304955	None	None	None	None	1
2.7	2015_May_08_1318	s	s	5	5	SIC	384	ABS	1	2	02VD 02VO 02VC 10MD 02MO 02MC 02RD 02RO	0	1	1.45912599564	None	None	None	None	1
2.7	2015_May_08_1318	s	s	5	5	SIC	385	ABS	2	1	02VD 10VO 02VC 02MD 02MO 02MC 02RD 02RO	0	1	2.11019587517	None	None	None	None	1
2.7	2015_May_08_1318	s	s	5	5	SIC	386	ABS	2	2	10VD 02VO 02VC 02MD 02MO 02MC 02RD 02RO	0	1	1.842192173	None	None	None	None	1
2.7	2015_May_08_1318	s	s	5	5	SIC	387	RC	2	1	02VD 09VO 02VC 02MD 02MO 02MC 02RD 02RO	1	0	1.05349993706	-352.0	-88.0	-352	-88	1
2.7	2015_May_08_1318	s	s	5	5	SIC	388	RC	0	2	02VD 02VO 02VC 02MD 02MO 02MC 09RD 02RO	1	0	2.03324007988	-528.0	-363.0	-523	-364	1
2.7	2015_May_08_1318	s	s	5	5	SIC	389	RC	1	2	02VD 02VO 02VC 09MD 02MO 02MC 02RD 02RO	1	0	1.52953004837	406.0	-286.0	413	-285	1
2.7	2015_May_08_1318	s	s	5	5	SIC	390	RC	2	2	09VD 02VO 02VC 02MD 02MO 02MC 02RD 02RO	1	0	1.11779713631	119.0	-378.0	120	-373	1
2.7	2015_May_08_1318	s	s	5	5	SIC	391	RC	2	0	02VD 02VO 09VC 02MD 02MO 02MC 02RD 02RO	1	0	2.9514040947	368.0	111.0	364	108	1
2.7	2015_May_08_1318	s	s	5	5	SIC	392	ABS	1	2	02VD 02VO 02VC 10MD 02MO 02MC 02RD 02RO	0	1	1.72725105286	None	None	None	None	1
2.7	2015_May_08_1318	s	s	5	5	SIC	393	RC	0	1	02VD 02VO 02VC 02MD 02MO 02MC 02RD 09RO	1	0	1.47446799278	-97.0	251.0	-98	248	1
2.7	2015_May_08_1318	s	s	5	5	SIC	394	ABS	2	0	02VD 02VO 10VC 02MD 02MO 02MC 02RD 02RO	0	1	1.37187504768	None	None	None	None	1
2.7	2015_May_08_1318	s	s	5	5	SIC	395	RC	1	0	02VD 02VO 02VC 02MD 02MO 09MC 02RD 02RO	1	0	1.99546790123	135.0	-236.0	134	-242	1
2.7	2015_May_08_1318	s	s	5	5	SIC	396	ABS	0	2	02VD 02VO 02VC 02MD 02MO 02MC 10RD 02RO	0	1	2.19767403603	None	None	None	None	1
2.7	2015_May_08_1318	s	s	5	5	SIC	397	RC	1	1	02VD 02VO 02VC 02MD 09MO 02MC 02RD 02RO	1	0	1.75320887566	387.0	-155.0	388	-149	1
2.7	2015_May_08_1318	s	s	5	5	SIC	398	ABS	1	1	02VD 02VO 02VC 02MD 10MO 02MC 02RD 02RO	0	1	1.92717385292	None	None	None	None	1
2.7	2015_May_08_1318	s	s	5	5	SIC	399	ABS	1	0	02VD 02VO 02VC 02MD 02MO 10MC 02RD 02RO	0	1	2.45585823059	None	None	None	None	1
2.7	2015_May_08_1318	s	s	5	5	SIC	400	ABS	0	1	02VD 02VO 02VC 02MD 02MO 02MC 02RD 10RO	0	1	2.76540398598	None	None	None	None	1
2.7	2015_May_08_1318	s	s	5	5	SIC	401	ABS	0	1	02VD 02VO 02VC 02MD 02MO 02MC 02RD 10RO	0	1	2.79592180252	None	None	None	None	1
2.7	2015_May_08_1318	s	s	5	5	SIC	402	RC	1	1	02VD 02VO 02VC 02MD 09MO 02MC 02RD 02RO	1	0	2.3950958252	197.0	399.0	199	392	1
2.7	2015_May_08_1318	s	s	5	5	SIC	403	ABS	1	2	02VD 02VO 02VC 10MD 02MO 02MC 02RD 02RO	0	1	1.63535118103	None	None	None	None	1
2.7	2015_May_08_1318	s	s	5	5	SIC	404	ABS	2	0	02VD 02VO 10VC 02MD 02MO 02MC 02RD 02RO	0	1	1.43535494804	None	None	None	None	1
2.7	2015_May_08_1318	s	s	5	5	SIC	405	ABS	2	2	10VD 02VO 02VC 02MD 02MO 02MC 02RD 02RO	0	1	1.43546104431	None	None	None	None	1
2.7	2015_May_08_1318	s	s	5	5	SIC	406	ABS	1	0	02VD 02VO 02VC 02MD 02MO 10MC 02RD 02RO	0	1	2.15072989464	None	None	None	None	1
2.7	2015_May_08_1318	s	s	5	5	SIC	407	RC	0	2	02VD 02VO 02VC 02MD 02MO 02MC 09RD 02RO	1	0	1.34131002426	-482.0	-256.0	-481	-255	1
2.7	2015_May_08_1318	s	s	5	5	SIC	408	RC	1	2	02VD 02VO 02VC 09MD 02MO 02MC 02RD 02RO	1	0	1.12922811508	-57.0	-352.0	-53	-353	1
2.7	2015_May_08_1318	s	s	5	5	SIC	409	RC	1	0	02VD 02VO 02VC 02MD 02MO 09MC 02RD 02RO	1	0	1.32920098305	-496.0	193.0	-492	197	1
2.7	2015_May_08_1318	s	s	5	5	SIC	410	RC	2	1	02VD 09VO 02VC 02MD 02MO 02MC 02RD 02RO	1	0	1.43910479546	36.0	-259.0	45	-260	1
2.7	2015_May_08_1318	s	s	5	5	SIC	411	RC	0	1	02VD 02VO 02VC 02MD 02MO 02MC 02RD 09RO	1	0	0.800298929214	-442.0	-93.0	266	-55	0
2.7	2015_May_08_1318	s	s	5	5	SIC	412	ABS	2	1	02VD 10VO 02VC 02MD 02MO 02MC 02RD 02RO	0	1	1.44293808937	None	None	None	None	1
2.7	2015_May_08_1318	s	s	5	5	SIC	413	ABS	0	2	02VD 02VO 02VC 02MD 02MO 02MC 10RD 02RO	0	1	1.85409593582	None	None	None	None	1
2.7	2015_May_08_1318	s	s	5	5	SIC	414	RC	2	0	02VD 02VO 09VC 02MD 02MO 02MC 02RD 02RO	1	0	2.35101795197	524.0	267.0	526	267	1
2.7	2015_May_08_1318	s	s	5	5	SIC	415	RC	2	2	09VD 02VO 02VC 02MD 02MO 02MC 02RD 02RO	1	0	0.768092870712	-234.0	-18.0	-236	-14	1
2.7	2015_May_08_1318	s	s	5	5	SIC	416	ABS	1	1	02VD 02VO 02VC 02MD 10MO 02MC 02RD 02RO	0	1	2.90677404404	None	None	None	None	1
2.7	2015_May_08_1318	s	s	5	5	SIC	417	ABS	1	0	02VD 02VO 02VC 02MD 02MO 10MC 02RD 02RO	0	1	2.6192920208	None	None	None	None	1
2.7	2015_May_08_1318	s	s	5	5	SIC	418	ABS	1	1	02VD 02VO 02VC 02MD 10MO 02MC 02RD 02RO	0	1	2.86644816399	None	None	None	None	1
2.7	2015_May_08_1318	s	s	5	5	SIC	419	RC	2	2	09VD 02VO 02VC 02MD 02MO 02MC 02RD 02RO	1	0	2.0283870697	400.0	104.0	394	103	1
2.7	2015_May_08_1318	s	s	5	5	SIC	420	RC	2	0	02VD 02VO 09VC 02MD 02MO 02MC 02RD 02RO	1	0	2.00694108009	536.0	-167.0	537	-163	1
2.7	2015_May_08_1318	s	s	5	5	SIC	421	ABS	0	1	02VD 02VO 02VC 02MD 02MO 02MC 02RD 10RO	0	1	3.45692896843	None	None	None	None	1
2.7	2015_May_08_1318	s	s	5	5	SIC	422	ABS	2	0	02VD 02VO 10VC 02MD 02MO 02MC 02RD 02RO	0	1	1.3412001133	None	None	None	None	1
2.7	2015_May_08_1318	s	s	5	5	SIC	423	RC	1	2	02VD 02VO 02VC 09MD 02MO 02MC 02RD 02RO	1	0	1.77662396431	433.0	359.0	434	360	1
2.7	2015_May_08_1318	s	s	5	5	SIC	424	RC	1	0	02VD 02VO 02VC 02MD 02MO 09MC 02RD 02RO	1	0	0.689476966858	-153.0	-209.0	-148	-211	1
2.7	2015_May_08_1318	s	s	5	5	SIC	425	RC	1	1	02VD 02VO 02VC 02MD 09MO 02MC 02RD 02RO	1	0	0.855740070343	83.0	-28.0	78	-20	1
2.7	2015_May_08_1318	s	s	5	5	SIC	426	RC	0	1	02VD 02VO 02VC 02MD 02MO 02MC 02RD 09RO	1	0	3.09079408646	-528.0	144.0	-528	149	1
2.7	2015_May_08_1318	s	s	5	5	SIC	427	RC	2	1	02VD 09VO 02VC 02MD 02MO 02MC 02RD 02RO	1	0	0.976229906082	-424.0	72.0	-424	73	1
2.7	2015_May_08_1318	s	s	5	5	SIC	428	ABS	2	2	10VD 02VO 02VC 02MD 02MO 02MC 02RD 02RO	0	1	2.17676305771	None	None	None	None	1
2.7	2015_May_08_1318	s	s	5	5	SIC	429	RC	0	2	02VD 02VO 02VC 02MD 02MO 02MC 09RD 02RO	1	0	0.811534166336	-333.0	-172.0	-345	-163	1
2.7	2015_May_08_1318	s	s	5	5	SIC	430	ABS	2	1	02VD 10VO 02VC 02MD 02MO 02MC 02RD 02RO	0	1	2.36104798317	None	None	None	None	1
2.7	2015_May_08_1318	s	s	5	5	SIC	431	ABS	1	2	02VD 02VO 02VC 10MD 02MO 02MC 02RD 02RO	0	1	2.74191212654	None	None	None	None	1
2.7	2015_May_08_1318	s	s	5	5	SIC	432	ABS	0	2	02VD 02VO 02VC 02MD 02MO 02MC 10RD 02RO	0	1	1.63532805443	None	None	None	None	1
2.7	2015_May_08_1318	s	s	5	5	SIC	433	ABS	1	2	02VD 02VO 02VC 10MD 02MO 02MC 02RD 02RO	0	1	2.78562998772	None	None	None	None	1
2.7	2015_May_08_1318	s	s	5	5	SIC	434	ABS	2	2	10VD 02VO 02VC 02MD 02MO 02MC 02RD 02RO	0	1	1.53686690331	None	None	None	None	1
2.7	2015_May_08_1318	s	s	5	5	SIC	435	ABS	1	1	02VD 02VO 02VC 02MD 10MO 02MC 02RD 02RO	0	1	2.81248092651	None	None	None	None	1
2.7	2015_May_08_1318	s	s	5	5	SIC	436	RC	1	1	02VD 02VO 02VC 02MD 09MO 02MC 02RD 02RO	0	1	2.1129488945	-10.0	-270.0	None	None	0
2.7	2015_May_08_1318	s	s	5	5	SIC	437	ABS	0	2	02VD 02VO 02VC 02MD 02MO 02MC 10RD 02RO	0	1	3.02799892426	None	None	None	None	1
2.7	2015_May_08_1318	s	s	5	5	SIC	438	RC	2	0	02VD 02VO 09VC 02MD 02MO 02MC 02RD 02RO	1	0	2.03565692902	-282.0	348.0	-282	341	1
2.7	2015_May_08_1318	s	s	5	5	SIC	439	RC	2	2	09VD 02VO 02VC 02MD 02MO 02MC 02RD 02RO	1	0	2.61235713959	403.0	282.0	397	284	1
2.7	2015_May_08_1318	s	s	5	5	SIC	440	RC	0	1	02VD 02VO 02VC 02MD 02MO 02MC 02RD 09RO	1	0	2.55357599258	378.0	-348.0	385	-353	1
2.7	2015_May_08_1318	s	s	5	5	SIC	441	ABS	1	0	02VD 02VO 02VC 02MD 02MO 10MC 02RD 02RO	0	1	1.81816411018	None	None	None	None	1
2.7	2015_May_08_1318	s	s	5	5	SIC	442	ABS	2	0	02VD 02VO 10VC 02MD 02MO 02MC 02RD 02RO	1	0	1.70608401299	None	None	501	1	0
2.7	2015_May_08_1318	s	s	5	5	SIC	443	RC	2	1	02VD 09VO 02VC 02MD 02MO 02MC 02RD 02RO	1	0	1.16877794266	-195.0	233.0	-192	239	1
2.7	2015_May_08_1318	s	s	5	5	SIC	444	RC	1	0	02VD 02VO 02VC 02MD 02MO 09MC 02RD 02RO	1	0	0.783145904541	-168.0	247.0	-166	243	1
2.7	2015_May_08_1318	s	s	5	5	SIC	445	RC	1	2	02VD 02VO 02VC 09MD 02MO 02MC 02RD 02RO	1	0	1.54772686958	409.0	307.0	402	304	1
2.7	2015_May_08_1318	s	s	5	5	SIC	446	ABS	2	1	02VD 10VO 02VC 02MD 02MO 02MC 02RD 02RO	0	1	1.96523714066	None	None	None	None	1
2.7	2015_May_08_1318	s	s	5	5	SIC	447	ABS	0	1	02VD 02VO 02VC 02MD 02MO 02MC 02RD 10RO	0	1	3.45994496346	None	None	None	None	1
2.7	2015_May_08_1318	s	s	5	5	SIC	448	RC	0	2	02VD 02VO 02VC 02MD 02MO 02MC 09RD 02RO	1	0	0.973915100098	-77.0	-214.0	-81	-215	1
2.7	2015_May_08_1318	s	s	5	5	SIC	449	RC	1	0	02VD 02VO 02VC 02MD 02MO 09MC 02RD 02RO	1	0	0.758680820465	-300.0	21.0	-301	17	1
2.7	2015_May_08_1318	s	s	5	5	SIC	450	ABS	1	2	02VD 02VO 02VC 10MD 02MO 02MC 02RD 02RO	0	1	1.84734511375	None	None	None	None	1
2.7	2015_May_08_1318	s	s	5	5	SIC	451	ABS	2	0	02VD 02VO 10VC 02MD 02MO 02MC 02RD 02RO	0	1	1.81745195389	None	None	None	None	1
2.7	2015_May_08_1318	s	s	5	5	SIC	452	ABS	0	2	02VD 02VO 02VC 02MD 02MO 02MC 10RD 02RO	0	1	1.20634889603	None	None	None	None	1
2.7	2015_May_08_1318	s	s	5	5	SIC	453	ABS	2	1	02VD 10VO 02VC 02MD 02MO 02MC 02RD 02RO	0	1	1.70113801956	None	None	None	None	1
2.7	2015_May_08_1318	s	s	5	5	SIC	454	ABS	0	1	02VD 02VO 02VC 02MD 02MO 02MC 02RD 10RO	0	1	3.93075084686	None	None	None	None	1
2.7	2015_May_08_1318	s	s	5	5	SIC	455	ABS	1	0	02VD 02VO 02VC 02MD 02MO 10MC 02RD 02RO	0	1	2.47154283524	None	None	None	None	1
2.7	2015_May_08_1318	s	s	5	5	SIC	456	RC	1	2	02VD 02VO 02VC 09MD 02MO 02MC 02RD 02RO	1	0	1.32689619064	231.0	-179.0	228	-180	1
2.7	2015_May_08_1318	s	s	5	5	SIC	457	RC	2	2	09VD 02VO 02VC 02MD 02MO 02MC 02RD 02RO	1	0	0.658931970596	91.0	117.0	102	123	1
2.7	2015_May_08_1318	s	s	5	5	SIC	458	RC	2	1	02VD 09VO 02VC 02MD 02MO 02MC 02RD 02RO	1	0	1.18340206146	-342.0	87.0	-346	86	1
2.7	2015_May_08_1318	s	s	5	5	SIC	459	RC	2	0	02VD 02VO 09VC 02MD 02MO 02MC 02RD 02RO	1	0	0.858586072922	-401.0	-345.0	-406	-346	1
2.7	2015_May_08_1318	s	s	5	5	SIC	460	RC	0	1	02VD 02VO 02VC 02MD 02MO 02MC 02RD 09RO	1	0	0.940984010696	40.0	-392.0	44	-391	1
2.7	2015_May_08_1318	s	s	5	5	SIC	461	RC	1	1	02VD 02VO 02VC 02MD 09MO 02MC 02RD 02RO	1	0	2.02013397217	479.0	145.0	487	149	1
2.7	2015_May_08_1318	s	s	5	5	SIC	462	RC	0	2	02VD 02VO 02VC 02MD 02MO 02MC 09RD 02RO	1	0	0.846827983856	306.0	8.0	311	10	1
2.7	2015_May_08_1318	s	s	5	5	SIC	463	ABS	2	2	10VD 02VO 02VC 02MD 02MO 02MC 02RD 02RO	0	1	2.03315901756	None	None	None	None	1
2.7	2015_May_08_1318	s	s	5	5	SIC	464	ABS	1	1	02VD 02VO 02VC 02MD 10MO 02MC 02RD 02RO	0	1	2.31352591515	None	None	None	None	1
2.7	2015_May_08_1318	s	s	5	5	SIC	465	RC	1	0	02VD 02VO 02VC 02MD 02MO 09MC 02RD 02RO	1	0	2.79582905769	355.0	398.0	355	401	1
2.7	2015_May_08_1318	s	s	5	5	SIC	466	RC	0	2	02VD 02VO 02VC 02MD 02MO 02MC 09RD 02RO	0	1	1.99707388878	453.0	-386.0	None	None	0
2.7	2015_May_08_1318	s	s	5	5	SIC	467	ABS	1	0	02VD 02VO 02VC 02MD 02MO 10MC 02RD 02RO	0	1	2.75350785255	None	None	None	None	1
2.7	2015_May_08_1318	s	s	5	5	SIC	468	ABS	1	2	02VD 02VO 02VC 10MD 02MO 02MC 02RD 02RO	0	1	1.88270020485	None	None	None	None	1
2.7	2015_May_08_1318	s	s	5	5	SIC	469	RC	1	1	02VD 02VO 02VC 02MD 09MO 02MC 02RD 02RO	0	1	2.47117900848	-520.0	68.0	None	None	0
2.7	2015_May_08_1318	s	s	5	5	SIC	470	RC	2	1	02VD 09VO 02VC 02MD 02MO 02MC 02RD 02RO	1	0	1.97420692444	-260.0	12.0	-258	14	1
2.7	2015_May_08_1318	s	s	5	5	SIC	471	ABS	2	2	10VD 02VO 02VC 02MD 02MO 02MC 02RD 02RO	0	1	1.57213497162	None	None	None	None	1
2.7	2015_May_08_1318	s	s	5	5	SIC	472	RC	2	2	09VD 02VO 02VC 02MD 02MO 02MC 02RD 02RO	1	0	1.85519504547	208.0	269.0	206	264	1
2.7	2015_May_08_1318	s	s	5	5	SIC	473	ABS	0	1	02VD 02VO 02VC 02MD 02MO 02MC 02RD 10RO	0	1	3.99682307243	None	None	None	None	1
2.7	2015_May_08_1318	s	s	5	5	SIC	474	RC	0	1	02VD 02VO 02VC 02MD 02MO 02MC 02RD 09RO	1	0	0.552578926086	-251.0	-2.0	-250	-5	1
2.7	2015_May_08_1318	s	s	5	5	SIC	475	ABS	1	1	02VD 02VO 02VC 02MD 10MO 02MC 02RD 02RO	0	1	2.02392888069	None	None	None	None	1
2.7	2015_May_08_1318	s	s	5	5	SIC	476	RC	1	2	02VD 02VO 02VC 09MD 02MO 02MC 02RD 02RO	1	0	0.820865869522	-160.0	-112.0	-163	-117	1
2.7	2015_May_08_1318	s	s	5	5	SIC	477	ABS	2	0	02VD 02VO 10VC 02MD 02MO 02MC 02RD 02RO	0	1	1.63314318657	None	None	None	None	1
2.7	2015_May_08_1318	s	s	5	5	SIC	478	ABS	0	2	02VD 02VO 02VC 02MD 02MO 02MC 10RD 02RO	0	1	1.61870789528	None	None	None	None	1
2.7	2015_May_08_1318	s	s	5	5	SIC	479	ABS	2	1	02VD 10VO 02VC 02MD 02MO 02MC 02RD 02RO	0	1	1.91800498962	None	None	None	None	1
2.7	2015_May_08_1318	s	s	5	5	SIC	480	RC	2	0	02VD 02VO 09VC 02MD 02MO 02MC 02RD 02RO	1	0	0.841015100479	-141.0	-345.0	-141	-349	1
