Version	Date	Stimuli	Method	Subject	Session	Condition	Trial	Target	Channel1	Channel2	Distractors	LMouseButton	RMouseButton	RT	TargetX	TargetY	ResponseX	ResponseY	Correct
2.7	2015_May_07_1415	s	s	5	4	Capacity	1	RC	0	1	08RD 15RO	1	0	1.38044691086	-118.0	128.0	-113	126	1
2.7	2015_May_07_1415	s	s	5	4	Capacity	2	RC	0	2	15RD 08RO	1	0	1.84539699554	8.0	340.0	9	344	1
2.7	2015_May_07_1415	s	s	5	4	Capacity	3	ABS	0	1	08RD 16RO	0	1	4.74989318848	None	None	None	None	1
2.7	2015_May_07_1415	s	s	5	4	Capacity	4	ABS	0	2	16RD 08RO	0	1	2.8426117897	None	None	None	None	1
2.7	2015_May_07_1415	s	s	5	4	Capacity	5	RC	0	2	15RD 08RO	1	0	2.4878821373	121.0	-317.0	127	-318	1
2.7	2015_May_07_1415	s	s	5	4	Capacity	6	ABS	0	2	16RD 08RO	0	1	3.71876907349	None	None	None	None	1
2.7	2015_May_07_1415	s	s	5	4	Capacity	7	RC	0	1	08RD 15RO	1	0	3.26991510391	-314.0	-240.0	-316	-237	1
2.7	2015_May_07_1415	s	s	5	4	Capacity	8	ABS	0	1	08RD 16RO	0	1	5.43184709549	None	None	None	None	1
2.7	2015_May_07_1415	s	s	5	4	Capacity	9	ABS	0	2	16RD 08RO	0	1	3.74878787994	None	None	None	None	1
2.7	2015_May_07_1415	s	s	5	4	Capacity	10	RC	0	1	08RD 15RO	1	0	4.14268493652	-102.0	48.0	-103	48	1
2.7	2015_May_07_1415	s	s	5	4	Capacity	11	ABS	0	1	08RD 16RO	0	1	4.00789904594	None	None	None	None	1
2.7	2015_May_07_1415	s	s	5	4	Capacity	12	RC	0	2	15RD 08RO	1	0	2.89222002029	441.0	-41.0	437	-41	1
2.7	2015_May_07_1415	s	s	5	4	Capacity	13	ABS	0	2	16RD 08RO	0	1	2.36527204514	None	None	None	None	1
2.7	2015_May_07_1415	s	s	5	4	Capacity	14	RC	0	1	08RD 15RO	1	0	2.52793192863	251.0	-29.0	247	-31	1
2.7	2015_May_07_1415	s	s	5	4	Capacity	15	ABS	0	1	08RD 16RO	0	1	3.42456316948	None	None	None	None	1
2.7	2015_May_07_1415	s	s	5	4	Capacity	16	RC	0	2	15RD 08RO	1	0	1.18818593025	-269.0	-96.0	-268	-96	1
2.7	2015_May_07_1415	s	s	5	4	Capacity	17	RC	0	1	08RD 15RO	1	0	1.99554085732	-378.0	19.0	-375	23	1
2.7	2015_May_07_1415	s	s	5	4	Capacity	18	ABS	0	2	16RD 08RO	0	1	3.18701791763	None	None	None	None	1
2.7	2015_May_07_1415	s	s	5	4	Capacity	19	RC	0	2	15RD 08RO	1	0	1.21202397346	15.0	364.0	13	365	1
2.7	2015_May_07_1415	s	s	5	4	Capacity	20	ABS	0	1	08RD 16RO	0	1	3.85536503792	None	None	None	None	1
2.7	2015_May_07_1415	s	s	5	4	Capacity	21	ABS	0	2	16RD 08RO	0	1	2.65938806534	None	None	None	None	1
2.7	2015_May_07_1415	s	s	5	4	Capacity	22	RC	0	2	15RD 08RO	1	0	1.4801299572	-516.0	-279.0	-513	-279	1
2.7	2015_May_07_1415	s	s	5	4	Capacity	23	ABS	0	1	08RD 16RO	0	1	4.33097791672	None	None	None	None	1
2.7	2015_May_07_1415	s	s	5	4	Capacity	24	RC	0	1	08RD 15RO	0	1	4.43688702583	-334.0	7.0	None	None	0
2.7	2015_May_07_1415	s	s	5	4	Capacity	25	ABS	0	1	08RD 16RO	0	1	5.03470396996	None	None	None	None	1
2.7	2015_May_07_1415	s	s	5	4	Capacity	26	ABS	0	2	16RD 08RO	0	1	3.36112093925	None	None	None	None	1
2.7	2015_May_07_1415	s	s	5	4	Capacity	27	RC	0	2	15RD 08RO	1	0	1.25458407402	315.0	277.0	318	276	1
2.7	2015_May_07_1415	s	s	5	4	Capacity	28	RC	0	1	08RD 15RO	1	0	3.88351416588	470.0	-108.0	465	-106	1
2.7	2015_May_07_1415	s	s	5	4	Capacity	29	ABS	0	2	16RD 08RO	0	1	2.84364891052	None	None	None	None	1
2.7	2015_May_07_1415	s	s	5	4	Capacity	30	RC	0	2	15RD 08RO	1	0	1.05392408371	-8.0	-110.0	-9	-108	1
2.7	2015_May_07_1415	s	s	5	4	Capacity	31	ABS	0	1	08RD 16RO	0	1	6.02040791512	None	None	None	None	1
2.7	2015_May_07_1415	s	s	5	4	Capacity	32	RC	0	1	08RD 15RO	1	0	2.71610093117	72.0	-341.0	76	-346	1
2.7	2015_May_07_1415	s	s	5	4	Capacity	33	ABS	0	1	08RD 16RO	1	0	4.40841603279	None	None	-42	62	0
2.7	2015_May_07_1415	s	s	5	4	Capacity	34	RC	0	2	15RD 08RO	1	0	1.34111690521	-206.0	-147.0	-209	-148	1
2.7	2015_May_07_1415	s	s	5	4	Capacity	35	RC	0	1	08RD 15RO	1	0	3.92612600327	-318.0	392.0	-318	401	1
2.7	2015_May_07_1415	s	s	5	4	Capacity	36	ABS	0	2	16RD 08RO	0	1	2.96549391747	None	None	None	None	1
2.7	2015_May_07_1415	s	s	5	4	Capacity	37	ABS	0	1	08RD 16RO	0	1	4.16130614281	None	None	None	None	1
2.7	2015_May_07_1415	s	s	5	4	Capacity	38	RC	0	1	08RD 15RO	1	0	0.903532028198	85.0	72.0	85	69	1
2.7	2015_May_07_1415	s	s	5	4	Capacity	39	RC	0	2	15RD 08RO	1	0	1.2705039978	-34.0	-25.0	-34	-26	1
2.7	2015_May_07_1415	s	s	5	4	Capacity	40	ABS	0	2	16RD 08RO	0	1	4.06714105606	None	None	None	None	1
2.7	2015_May_07_1415	s	s	5	4	Capacity	41	RC	0	2	15RD 08RO	1	0	3.11505079269	-43.0	-309.0	-38	-303	1
2.7	2015_May_07_1415	s	s	5	4	Capacity	42	ABS	0	2	16RD 08RO	0	1	3.4244658947	None	None	None	None	1
2.7	2015_May_07_1415	s	s	5	4	Capacity	43	ABS	0	1	08RD 16RO	0	1	4.37303614616	None	None	None	None	1
2.7	2015_May_07_1415	s	s	5	4	Capacity	44	RC	0	1	08RD 15RO	0	1	4.1171810627	-27.0	89.0	None	None	0
2.7	2015_May_07_1415	s	s	5	4	Capacity	45	RC	0	2	15RD 08RO	1	0	1.71582102776	314.0	-321.0	312	-320	1
2.7	2015_May_07_1415	s	s	5	4	Capacity	46	ABS	0	1	08RD 16RO	0	1	4.3608341217	None	None	None	None	1
2.7	2015_May_07_1415	s	s	5	4	Capacity	47	RC	0	1	08RD 15RO	1	0	2.3251581192	483.0	-11.0	483	-9	1
2.7	2015_May_07_1415	s	s	5	4	Capacity	48	ABS	0	2	16RD 08RO	0	1	3.68987488747	None	None	None	None	1
2.7	2015_May_07_1415	s	s	5	4	Capacity	49	RC	0	2	15RD 08RO	1	0	2.83613610268	-328.0	62.0	-326	64	1
2.7	2015_May_07_1415	s	s	5	4	Capacity	50	ABS	0	1	08RD 16RO	0	1	4.14999389648	None	None	None	None	1
2.7	2015_May_07_1415	s	s	5	4	Capacity	51	RC	0	1	08RD 15RO	1	0	4.03673601151	264.0	-53.0	265	-61	1
2.7	2015_May_07_1415	s	s	5	4	Capacity	52	ABS	0	2	16RD 08RO	0	1	5.71988201141	None	None	None	None	1
2.7	2015_May_07_1415	s	s	5	4	Capacity	53	ABS	0	2	16RD 08RO	0	1	3.10286307335	None	None	None	None	1
2.7	2015_May_07_1415	s	s	5	4	Capacity	54	RC	0	1	08RD 15RO	1	0	1.68629908562	-400.0	-23.0	-403	-26	1
2.7	2015_May_07_1415	s	s	5	4	Capacity	55	ABS	0	1	08RD 16RO	0	1	3.43637180328	None	None	None	None	1
2.7	2015_May_07_1415	s	s	5	4	Capacity	56	RC	0	2	15RD 08RO	1	0	1.67801189423	531.0	-299.0	539	-298	1
2.7	2015_May_07_1415	s	s	5	4	Capacity	57	RC	0	1	08RD 15RO	0	1	4.1390709877	-194.0	-184.0	None	None	0
2.7	2015_May_07_1415	s	s	5	4	Capacity	58	ABS	0	1	08RD 16RO	0	1	4.71609592438	None	None	None	None	1
2.7	2015_May_07_1415	s	s	5	4	Capacity	59	ABS	0	2	16RD 08RO	0	1	2.19447994232	None	None	None	None	1
2.7	2015_May_07_1415	s	s	5	4	Capacity	60	RC	0	2	15RD 08RO	1	0	1.65493011475	264.0	353.0	264	349	1
2.7	2015_May_07_1415	s	s	5	4	Capacity	61	ABS	0	1	08RD 16RO	0	1	5.3746278286	None	None	None	None	1
2.7	2015_May_07_1415	s	s	5	4	Capacity	62	RC	0	2	15RD 08RO	0	1	3.18919801712	293.0	-134.0	None	None	0
2.7	2015_May_07_1415	s	s	5	4	Capacity	63	RC	0	1	08RD 15RO	1	0	3.65790510178	118.0	-268.0	117	-269	1
2.7	2015_May_07_1415	s	s	5	4	Capacity	64	ABS	0	2	16RD 08RO	0	1	2.67148804665	None	None	None	None	1
2.7	2015_May_07_1415	s	s	5	4	Capacity	1	ABS	2	0	16VC 08MC	0	1	1.89439082146	None	None	None	None	1
2.7	2015_May_07_1415	s	s	5	4	Capacity	2	RC	1	0	08VC 15MC	1	0	1.7146589756	-146.0	-295.0	-145	-294	1
2.7	2015_May_07_1415	s	s	5	4	Capacity	3	RC	2	0	15VC 08MC	1	0	1.58378219604	-299.0	-401.0	-293	-403	1
2.7	2015_May_07_1415	s	s	5	4	Capacity	4	ABS	1	0	08VC 16MC	0	1	2.48292994499	None	None	None	None	1
2.7	2015_May_07_1415	s	s	5	4	Capacity	5	ABS	2	0	16VC 08MC	0	1	2.34862399101	None	None	None	None	1
2.7	2015_May_07_1415	s	s	5	4	Capacity	6	RC	1	0	08VC 15MC	1	0	1.07674503326	-371.0	172.0	-375	174	1
2.7	2015_May_07_1415	s	s	5	4	Capacity	7	RC	2	0	15VC 08MC	0	1	2.13653492928	431.0	44.0	None	None	0
2.7	2015_May_07_1415	s	s	5	4	Capacity	8	ABS	1	0	08VC 16MC	0	1	3.0636780262	None	None	None	None	1
2.7	2015_May_07_1415	s	s	5	4	Capacity	9	RC	2	0	15VC 08MC	1	0	1.36476302147	257.0	-317.0	260	-316	1
2.7	2015_May_07_1415	s	s	5	4	Capacity	10	ABS	1	0	08VC 16MC	0	1	5.24908590317	None	None	None	None	1
2.7	2015_May_07_1415	s	s	5	4	Capacity	11	ABS	2	0	16VC 08MC	0	1	2.66925191879	None	None	None	None	1
2.7	2015_May_07_1415	s	s	5	4	Capacity	12	RC	1	0	08VC 15MC	1	0	1.04514098167	-303.0	-326.0	-303	-324	1
2.7	2015_May_07_1415	s	s	5	4	Capacity	13	ABS	2	0	16VC 08MC	0	1	3.93754792213	None	None	None	None	1
2.7	2015_May_07_1415	s	s	5	4	Capacity	14	RC	1	0	08VC 15MC	1	0	1.0233399868	-408.0	-138.0	-407	-139	1
2.7	2015_May_07_1415	s	s	5	4	Capacity	15	RC	2	0	15VC 08MC	1	0	0.923871994019	-315.0	368.0	-318	366	1
2.7	2015_May_07_1415	s	s	5	4	Capacity	16	ABS	1	0	08VC 16MC	0	1	2.37689399719	None	None	None	None	1
2.7	2015_May_07_1415	s	s	5	4	Capacity	17	RC	1	0	08VC 15MC	1	0	0.879446983337	-262.0	-185.0	-267	-185	1
2.7	2015_May_07_1415	s	s	5	4	Capacity	18	ABS	2	0	16VC 08MC	0	1	2.46599602699	None	None	None	None	1
2.7	2015_May_07_1415	s	s	5	4	Capacity	19	ABS	1	0	08VC 16MC	0	1	3.74016785622	None	None	None	None	1
2.7	2015_May_07_1415	s	s	5	4	Capacity	20	RC	2	0	15VC 08MC	1	0	1.064057827	268.0	162.0	274	171	1
2.7	2015_May_07_1415	s	s	5	4	Capacity	21	ABS	1	0	08VC 16MC	0	1	4.23679304123	None	None	None	None	1
2.7	2015_May_07_1415	s	s	5	4	Capacity	22	RC	2	0	15VC 08MC	1	0	1.61784386635	503.0	-180.0	507	-182	1
2.7	2015_May_07_1415	s	s	5	4	Capacity	23	RC	1	0	08VC 15MC	1	0	1.48061704636	136.0	319.0	141	318	1
2.7	2015_May_07_1415	s	s	5	4	Capacity	24	ABS	2	0	16VC 08MC	0	1	2.14717388153	None	None	None	None	1
2.7	2015_May_07_1415	s	s	5	4	Capacity	25	ABS	1	0	08VC 16MC	0	1	3.61000609398	None	None	None	None	1
2.7	2015_May_07_1415	s	s	5	4	Capacity	26	ABS	2	0	16VC 08MC	0	1	1.88261508942	None	None	None	None	1
2.7	2015_May_07_1415	s	s	5	4	Capacity	27	RC	2	0	15VC 08MC	1	0	2.3247179985	-251.0	-408.0	-244	-405	1
2.7	2015_May_07_1415	s	s	5	4	Capacity	28	RC	1	0	08VC 15MC	1	0	1.12736678123	-354.0	-251.0	-360	-256	1
2.7	2015_May_07_1415	s	s	5	4	Capacity	29	RC	2	0	15VC 08MC	1	0	1.90621590614	494.0	52.0	493	46	1
2.7	2015_May_07_1415	s	s	5	4	Capacity	30	ABS	2	0	16VC 08MC	0	1	3.09071803093	None	None	None	None	1
2.7	2015_May_07_1415	s	s	5	4	Capacity	31	ABS	1	0	08VC 16MC	0	1	4.56642317772	None	None	None	None	1
2.7	2015_May_07_1415	s	s	5	4	Capacity	32	RC	1	0	08VC 15MC	1	0	0.94725894928	-293.0	-174.0	-296	-173	1
2.7	2015_May_07_1415	s	s	5	4	Capacity	33	RC	1	0	08VC 15MC	0	1	3.24804782867	528.0	-390.0	None	None	0
2.7	2015_May_07_1415	s	s	5	4	Capacity	34	ABS	1	0	08VC 16MC	0	1	3.34912896156	None	None	None	None	1
2.7	2015_May_07_1415	s	s	5	4	Capacity	35	RC	2	0	15VC 08MC	1	0	1.90619492531	-339.0	-357.0	-342	-361	1
2.7	2015_May_07_1415	s	s	5	4	Capacity	36	ABS	2	0	16VC 08MC	0	1	2.77446103096	None	None	None	None	1
2.7	2015_May_07_1415	s	s	5	4	Capacity	37	RC	2	0	15VC 08MC	1	0	0.800145149231	91.0	115.0	86	115	1
2.7	2015_May_07_1415	s	s	5	4	Capacity	38	RC	1	0	08VC 15MC	1	0	0.947375059128	98.0	278.0	96	276	1
2.7	2015_May_07_1415	s	s	5	4	Capacity	39	ABS	1	0	08VC 16MC	0	1	2.32639288902	None	None	None	None	1
2.7	2015_May_07_1415	s	s	5	4	Capacity	40	ABS	2	0	16VC 08MC	0	1	2.80694699287	None	None	None	None	1
2.7	2015_May_07_1415	s	s	5	4	Capacity	41	RC	1	0	08VC 15MC	1	0	2.82471084595	535.0	-23.0	538	-20	1
2.7	2015_May_07_1415	s	s	5	4	Capacity	42	RC	2	0	15VC 08MC	1	0	0.929229974747	44.0	230.0	46	234	1
2.7	2015_May_07_1415	s	s	5	4	Capacity	43	ABS	2	0	16VC 08MC	1	0	4.34266614914	None	None	-103	50	0
2.7	2015_May_07_1415	s	s	5	4	Capacity	44	ABS	1	0	08VC 16MC	0	1	2.6186580658	None	None	None	None	1
2.7	2015_May_07_1415	s	s	5	4	Capacity	45	ABS	1	0	08VC 16MC	0	1	6.38580298424	None	None	None	None	1
2.7	2015_May_07_1415	s	s	5	4	Capacity	46	RC	1	0	08VC 15MC	1	0	2.58526301384	35.0	-108.0	38	-103	1
2.7	2015_May_07_1415	s	s	5	4	Capacity	47	RC	2	0	15VC 08MC	1	0	1.07054901123	86.0	393.0	88	391	1
2.7	2015_May_07_1415	s	s	5	4	Capacity	48	ABS	2	0	16VC 08MC	0	1	2.81993293762	None	None	None	None	1
2.7	2015_May_07_1415	s	s	5	4	Capacity	49	RC	1	0	08VC 15MC	1	0	1.53596186638	79.0	-332.0	81	-338	1
2.7	2015_May_07_1415	s	s	5	4	Capacity	50	RC	2	0	15VC 08MC	1	0	0.927026987076	-300.0	294.0	-303	290	1
2.7	2015_May_07_1415	s	s	5	4	Capacity	51	ABS	1	0	08VC 16MC	0	1	3.01929807663	None	None	None	None	1
2.7	2015_May_07_1415	s	s	5	4	Capacity	52	ABS	2	0	16VC 08MC	0	1	2.76136612892	None	None	None	None	1
2.7	2015_May_07_1415	s	s	5	4	Capacity	53	RC	1	0	08VC 15MC	1	0	1.5862698555	-378.0	-61.0	-379	-63	1
2.7	2015_May_07_1415	s	s	5	4	Capacity	54	ABS	1	0	08VC 16MC	0	1	4.14044594765	None	None	None	None	1
2.7	2015_May_07_1415	s	s	5	4	Capacity	55	RC	2	0	15VC 08MC	1	0	0.700847148895	37.0	-37.0	40	-37	1
2.7	2015_May_07_1415	s	s	5	4	Capacity	56	ABS	2	0	16VC 08MC	0	1	3.1107339859	None	None	None	None	1
2.7	2015_May_07_1415	s	s	5	4	Capacity	57	RC	2	0	15VC 08MC	1	0	0.653712034225	25.0	186.0	29	183	1
2.7	2015_May_07_1415	s	s	5	4	Capacity	58	RC	1	0	08VC 15MC	1	0	2.5148499012	-520.0	402.0	-520	398	1
2.7	2015_May_07_1415	s	s	5	4	Capacity	59	ABS	1	0	08VC 16MC	0	1	4.7164068222	None	None	None	None	1
2.7	2015_May_07_1415	s	s	5	4	Capacity	60	ABS	2	0	16VC 08MC	0	1	2.99542188644	None	None	None	None	1
2.7	2015_May_07_1415	s	s	5	4	Capacity	61	RC	1	0	08VC 15MC	1	0	1.76485395432	180.0	-296.0	183	-298	1
2.7	2015_May_07_1415	s	s	5	4	Capacity	62	ABS	1	0	08VC 16MC	0	1	3.97790384293	None	None	None	None	1
2.7	2015_May_07_1415	s	s	5	4	Capacity	63	ABS	2	0	16VC 08MC	0	1	2.80097913742	None	None	None	None	1
2.7	2015_May_07_1415	s	s	5	4	Capacity	64	RC	2	0	15VC 08MC	1	0	1.01898503304	-186.0	6.0	-190	3	1
2.7	2015_May_07_1415	s	s	5	4	SIC	1	ABS	1	2	02VD 02VO 02VC 10MD 02MO 02MC 02RD 02RO	0	1	2.05265498161	None	None	None	None	1
2.7	2015_May_07_1415	s	s	5	4	SIC	2	ABS	1	0	02VD 02VO 02VC 02MD 02MO 10MC 02RD 02RO	0	1	4.72633910179	None	None	None	None	1
2.7	2015_May_07_1415	s	s	5	4	SIC	3	RC	2	2	09VD 02VO 02VC 02MD 02MO 02MC 02RD 02RO	1	0	1.58823299408	-16.0	-121.0	-14	-118	1
2.7	2015_May_07_1415	s	s	5	4	SIC	4	RC	1	1	02VD 02VO 02VC 02MD 09MO 02MC 02RD 02RO	1	0	1.86591506004	418.0	-24.0	422	-21	1
2.7	2015_May_07_1415	s	s	5	4	SIC	5	RC	2	1	02VD 09VO 02VC 02MD 02MO 02MC 02RD 02RO	1	0	0.782526016235	-52.0	157.0	-53	154	1
2.7	2015_May_07_1415	s	s	5	4	SIC	6	ABS	2	0	02VD 02VO 10VC 02MD 02MO 02MC 02RD 02RO	0	1	2.90278100967	None	None	None	None	1
2.7	2015_May_07_1415	s	s	5	4	SIC	7	ABS	2	1	02VD 10VO 02VC 02MD 02MO 02MC 02RD 02RO	0	1	3.22096014023	None	None	None	None	1
2.7	2015_May_07_1415	s	s	5	4	SIC	8	RC	2	0	02VD 02VO 09VC 02MD 02MO 02MC 02RD 02RO	0	1	2.47102999687	415.0	-260.0	None	None	0
2.7	2015_May_07_1415	s	s	5	4	SIC	9	RC	1	0	02VD 02VO 02VC 02MD 02MO 09MC 02RD 02RO	0	1	2.96006989479	-468.0	270.0	None	None	0
2.7	2015_May_07_1415	s	s	5	4	SIC	10	RC	1	2	02VD 02VO 02VC 09MD 02MO 02MC 02RD 02RO	1	0	1.03078389168	263.0	-395.0	272	-393	1
2.7	2015_May_07_1415	s	s	5	4	SIC	11	ABS	1	1	02VD 02VO 02VC 02MD 10MO 02MC 02RD 02RO	0	1	2.86730194092	None	None	None	None	1
2.7	2015_May_07_1415	s	s	5	4	SIC	12	ABS	0	1	02VD 02VO 02VC 02MD 02MO 02MC 02RD 10RO	0	1	3.78323507309	None	None	None	None	1
2.7	2015_May_07_1415	s	s	5	4	SIC	13	ABS	2	2	10VD 02VO 02VC 02MD 02MO 02MC 02RD 02RO	0	1	2.45927500725	None	None	None	None	1
2.7	2015_May_07_1415	s	s	5	4	SIC	14	ABS	0	2	02VD 02VO 02VC 02MD 02MO 02MC 10RD 02RO	0	1	2.40711808205	None	None	None	None	1
2.7	2015_May_07_1415	s	s	5	4	SIC	15	RC	0	1	02VD 02VO 02VC 02MD 02MO 02MC 02RD 09RO	0	1	3.05483198166	-440.0	161.0	None	None	0
2.7	2015_May_07_1415	s	s	5	4	SIC	16	RC	0	2	02VD 02VO 02VC 02MD 02MO 02MC 09RD 02RO	1	0	1.44500279427	-215.0	-38.0	-218	-38	1
2.7	2015_May_07_1415	s	s	5	4	SIC	17	ABS	0	1	02VD 02VO 02VC 02MD 02MO 02MC 02RD 10RO	0	1	4.19645810127	None	None	None	None	1
2.7	2015_May_07_1415	s	s	5	4	SIC	18	ABS	0	2	02VD 02VO 02VC 02MD 02MO 02MC 10RD 02RO	0	1	2.24316596985	None	None	None	None	1
2.7	2015_May_07_1415	s	s	5	4	SIC	19	RC	1	1	02VD 02VO 02VC 02MD 09MO 02MC 02RD 02RO	1	0	2.47758793831	-193.0	-291.0	-190	-294	1
2.7	2015_May_07_1415	s	s	5	4	SIC	20	ABS	2	0	02VD 02VO 10VC 02MD 02MO 02MC 02RD 02RO	0	1	2.53694796562	None	None	None	None	1
2.7	2015_May_07_1415	s	s	5	4	SIC	21	RC	2	1	02VD 09VO 02VC 02MD 02MO 02MC 02RD 02RO	1	0	1.52627515793	192.0	-309.0	187	-308	1
2.7	2015_May_07_1415	s	s	5	4	SIC	22	RC	1	2	02VD 02VO 02VC 09MD 02MO 02MC 02RD 02RO	1	0	1.71787810326	402.0	-225.0	402	-229	1
2.7	2015_May_07_1415	s	s	5	4	SIC	23	RC	2	0	02VD 02VO 09VC 02MD 02MO 02MC 02RD 02RO	1	0	2.12984704971	109.0	400.0	113	401	1
2.7	2015_May_07_1415	s	s	5	4	SIC	24	ABS	1	0	02VD 02VO 02VC 02MD 02MO 10MC 02RD 02RO	0	1	2.69307804108	None	None	None	None	1
2.7	2015_May_07_1415	s	s	5	4	SIC	25	RC	2	2	09VD 02VO 02VC 02MD 02MO 02MC 02RD 02RO	1	0	1.50601792336	-30.0	301.0	-27	302	1
2.7	2015_May_07_1415	s	s	5	4	SIC	26	ABS	1	2	02VD 02VO 02VC 10MD 02MO 02MC 02RD 02RO	0	1	2.04743003845	None	None	None	None	1
2.7	2015_May_07_1415	s	s	5	4	SIC	27	ABS	1	1	02VD 02VO 02VC 02MD 10MO 02MC 02RD 02RO	0	1	2.83246207237	None	None	None	None	1
2.7	2015_May_07_1415	s	s	5	4	SIC	28	ABS	2	2	10VD 02VO 02VC 02MD 02MO 02MC 02RD 02RO	0	1	2.2541179657	None	None	None	None	1
2.7	2015_May_07_1415	s	s	5	4	SIC	29	RC	0	1	02VD 02VO 02VC 02MD 02MO 02MC 02RD 09RO	1	0	1.96298003197	466.0	-171.0	462	-175	1
2.7	2015_May_07_1415	s	s	5	4	SIC	30	ABS	2	1	02VD 10VO 02VC 02MD 02MO 02MC 02RD 02RO	0	1	7.2242629528	None	None	None	None	1
2.7	2015_May_07_1415	s	s	5	4	SIC	31	RC	1	0	02VD 02VO 02VC 02MD 02MO 09MC 02RD 02RO	1	0	3.62994408607	-252.0	36.0	-252	36	1
2.7	2015_May_07_1415	s	s	5	4	SIC	32	RC	0	2	02VD 02VO 02VC 02MD 02MO 02MC 09RD 02RO	1	0	2.6303961277	483.0	340.0	489	338	1
2.7	2015_May_07_1415	s	s	5	4	SIC	33	RC	1	2	02VD 02VO 02VC 09MD 02MO 02MC 02RD 02RO	1	0	1.19501709938	391.0	383.0	392	382	1
2.7	2015_May_07_1415	s	s	5	4	SIC	34	ABS	1	1	02VD 02VO 02VC 02MD 10MO 02MC 02RD 02RO	0	1	3.19881892204	None	None	None	None	1
2.7	2015_May_07_1415	s	s	5	4	SIC	35	RC	2	2	09VD 02VO 02VC 02MD 02MO 02MC 02RD 02RO	1	0	1.2205760479	-185.0	-192.0	-186	-193	1
2.7	2015_May_07_1415	s	s	5	4	SIC	36	ABS	2	1	02VD 10VO 02VC 02MD 02MO 02MC 02RD 02RO	0	1	1.87127995491	None	None	None	None	1
2.7	2015_May_07_1415	s	s	5	4	SIC	37	ABS	0	2	02VD 02VO 02VC 02MD 02MO 02MC 10RD 02RO	0	1	3.22264099121	None	None	None	None	1
2.7	2015_May_07_1415	s	s	5	4	SIC	38	RC	1	1	02VD 02VO 02VC 02MD 09MO 02MC 02RD 02RO	1	0	1.64729619026	-98.0	-322.0	-94	-318	1
2.7	2015_May_07_1415	s	s	5	4	SIC	39	RC	0	2	02VD 02VO 02VC 02MD 02MO 02MC 09RD 02RO	1	0	0.771320104599	-202.0	231.0	-203	232	1
2.7	2015_May_07_1415	s	s	5	4	SIC	40	RC	2	1	02VD 09VO 02VC 02MD 02MO 02MC 02RD 02RO	1	0	1.83942699432	29.0	-214.0	35	-213	1
2.7	2015_May_07_1415	s	s	5	4	SIC	41	ABS	2	0	02VD 02VO 10VC 02MD 02MO 02MC 02RD 02RO	0	1	1.52420783043	None	None	None	None	1
2.7	2015_May_07_1415	s	s	5	4	SIC	42	ABS	1	0	02VD 02VO 02VC 02MD 02MO 10MC 02RD 02RO	0	1	3.01262402534	None	None	None	None	1
2.7	2015_May_07_1415	s	s	5	4	SIC	43	ABS	1	2	02VD 02VO 02VC 10MD 02MO 02MC 02RD 02RO	0	1	1.96277189255	None	None	None	None	1
2.7	2015_May_07_1415	s	s	5	4	SIC	44	RC	2	0	02VD 02VO 09VC 02MD 02MO 02MC 02RD 02RO	1	0	2.2900891304	-335.0	-250.0	-335	-247	1
2.7	2015_May_07_1415	s	s	5	4	SIC	45	ABS	0	1	02VD 02VO 02VC 02MD 02MO 02MC 02RD 10RO	0	1	3.33438301086	None	None	None	None	1
2.7	2015_May_07_1415	s	s	5	4	SIC	46	RC	1	0	02VD 02VO 02VC 02MD 02MO 09MC 02RD 02RO	1	0	1.34809088707	-92.0	331.0	-90	333	1
2.7	2015_May_07_1415	s	s	5	4	SIC	47	ABS	2	2	10VD 02VO 02VC 02MD 02MO 02MC 02RD 02RO	0	1	1.94992589951	None	None	None	None	1
2.7	2015_May_07_1415	s	s	5	4	SIC	48	RC	0	1	02VD 02VO 02VC 02MD 02MO 02MC 02RD 09RO	1	0	0.994229078293	12.0	67.0	16	61	1
2.7	2015_May_07_1415	s	s	5	4	SIC	49	ABS	1	2	02VD 02VO 02VC 10MD 02MO 02MC 02RD 02RO	0	1	2.49476504326	None	None	None	None	1
2.7	2015_May_07_1415	s	s	5	4	SIC	50	ABS	2	2	10VD 02VO 02VC 02MD 02MO 02MC 02RD 02RO	0	1	2.18608093262	None	None	None	None	1
2.7	2015_May_07_1415	s	s	5	4	SIC	51	ABS	1	0	02VD 02VO 02VC 02MD 02MO 10MC 02RD 02RO	0	1	2.90673613548	None	None	None	None	1
2.7	2015_May_07_1415	s	s	5	4	SIC	52	ABS	0	2	02VD 02VO 02VC 02MD 02MO 02MC 10RD 02RO	0	1	2.69274806976	None	None	None	None	1
2.7	2015_May_07_1415	s	s	5	4	SIC	53	ABS	2	0	02VD 02VO 10VC 02MD 02MO 02MC 02RD 02RO	0	1	2.5849339962	None	None	None	None	1
2.7	2015_May_07_1415	s	s	5	4	SIC	54	ABS	2	1	02VD 10VO 02VC 02MD 02MO 02MC 02RD 02RO	0	1	5.08430600166	None	None	None	None	1
2.7	2015_May_07_1415	s	s	5	4	SIC	55	ABS	1	1	02VD 02VO 02VC 02MD 10MO 02MC 02RD 02RO	0	1	3.30680799484	None	None	None	None	1
2.7	2015_May_07_1415	s	s	5	4	SIC	56	RC	2	1	02VD 09VO 02VC 02MD 02MO 02MC 02RD 02RO	0	1	2.67906594276	-134.0	171.0	None	None	0
2.7	2015_May_07_1415	s	s	5	4	SIC	57	RC	2	0	02VD 02VO 09VC 02MD 02MO 02MC 02RD 02RO	1	0	1.65898418427	476.0	-168.0	467	-170	1
2.7	2015_May_07_1415	s	s	5	4	SIC	58	ABS	0	1	02VD 02VO 02VC 02MD 02MO 02MC 02RD 10RO	0	1	6.4849550724	None	None	None	None	1
2.7	2015_May_07_1415	s	s	5	4	SIC	59	RC	1	1	02VD 02VO 02VC 02MD 09MO 02MC 02RD 02RO	1	0	0.854564189911	67.0	-177.0	70	-183	1
2.7	2015_May_07_1415	s	s	5	4	SIC	60	RC	0	2	02VD 02VO 02VC 02MD 02MO 02MC 09RD 02RO	1	0	1.80023503304	-134.0	356.0	-139	355	1
2.7	2015_May_07_1415	s	s	5	4	SIC	61	RC	1	2	02VD 02VO 02VC 09MD 02MO 02MC 02RD 02RO	1	0	1.373265028	4.0	-297.0	9	-291	1
2.7	2015_May_07_1415	s	s	5	4	SIC	62	RC	1	0	02VD 02VO 02VC 02MD 02MO 09MC 02RD 02RO	1	0	1.42119383812	376.0	-94.0	382	-93	1
2.7	2015_May_07_1415	s	s	5	4	SIC	63	RC	0	1	02VD 02VO 02VC 02MD 02MO 02MC 02RD 09RO	1	0	2.97735309601	484.0	-372.0	483	-370	1
2.7	2015_May_07_1415	s	s	5	4	SIC	64	RC	2	2	09VD 02VO 02VC 02MD 02MO 02MC 02RD 02RO	1	0	0.929315090179	116.0	-149.0	113	-148	1
2.7	2015_May_07_1415	s	s	5	4	SIC	65	ABS	0	2	02VD 02VO 02VC 02MD 02MO 02MC 10RD 02RO	0	1	2.18871498108	None	None	None	None	1
2.7	2015_May_07_1415	s	s	5	4	SIC	66	ABS	0	1	02VD 02VO 02VC 02MD 02MO 02MC 02RD 10RO	0	1	4.38976788521	None	None	None	None	1
2.7	2015_May_07_1415	s	s	5	4	SIC	67	RC	2	2	09VD 02VO 02VC 02MD 02MO 02MC 02RD 02RO	0	1	2.05920410156	343.0	-240.0	None	None	0
2.7	2015_May_07_1415	s	s	5	4	SIC	68	RC	1	2	02VD 02VO 02VC 09MD 02MO 02MC 02RD 02RO	1	0	1.19977402687	-160.0	323.0	-161	322	1
2.7	2015_May_07_1415	s	s	5	4	SIC	69	RC	0	1	02VD 02VO 02VC 02MD 02MO 02MC 02RD 09RO	1	0	1.35957098007	312.0	36.0	306	40	1
2.7	2015_May_07_1415	s	s	5	4	SIC	70	ABS	1	2	02VD 02VO 02VC 10MD 02MO 02MC 02RD 02RO	0	1	2.16036391258	None	None	None	None	1
2.7	2015_May_07_1415	s	s	5	4	SIC	71	ABS	2	1	02VD 10VO 02VC 02MD 02MO 02MC 02RD 02RO	0	1	1.85331892967	None	None	None	None	1
2.7	2015_May_07_1415	s	s	5	4	SIC	72	RC	2	1	02VD 09VO 02VC 02MD 02MO 02MC 02RD 02RO	1	0	1.18415498734	-301.0	88.0	-298	86	1
2.7	2015_May_07_1415	s	s	5	4	SIC	73	ABS	2	0	02VD 02VO 10VC 02MD 02MO 02MC 02RD 02RO	0	1	2.44281601906	None	None	None	None	1
2.7	2015_May_07_1415	s	s	5	4	SIC	74	RC	0	2	02VD 02VO 02VC 02MD 02MO 02MC 09RD 02RO	1	0	2.431224823	494.0	-284.0	494	-285	1
2.7	2015_May_07_1415	s	s	5	4	SIC	75	ABS	2	2	10VD 02VO 02VC 02MD 02MO 02MC 02RD 02RO	0	1	2.84787201881	None	None	None	None	1
2.7	2015_May_07_1415	s	s	5	4	SIC	76	RC	2	0	02VD 02VO 09VC 02MD 02MO 02MC 02RD 02RO	1	0	1.53828692436	-288.0	-111.0	-285	-109	1
2.7	2015_May_07_1415	s	s	5	4	SIC	77	ABS	1	1	02VD 02VO 02VC 02MD 10MO 02MC 02RD 02RO	0	1	2.57714891434	None	None	None	None	1
2.7	2015_May_07_1415	s	s	5	4	SIC	78	ABS	1	0	02VD 02VO 02VC 02MD 02MO 10MC 02RD 02RO	0	1	2.88994598389	None	None	None	None	1
2.7	2015_May_07_1415	s	s	5	4	SIC	79	RC	1	1	02VD 02VO 02VC 02MD 09MO 02MC 02RD 02RO	1	0	1.47065496445	-47.0	295.0	-41	296	1
2.7	2015_May_07_1415	s	s	5	4	SIC	80	RC	1	0	02VD 02VO 02VC 02MD 02MO 09MC 02RD 02RO	1	0	2.18336105347	-328.0	150.0	-329	148	1
2.7	2015_May_07_1415	s	s	5	4	SIC	81	ABS	1	1	02VD 02VO 02VC 02MD 10MO 02MC 02RD 02RO	0	1	2.0119740963	None	None	None	None	1
2.7	2015_May_07_1415	s	s	5	4	SIC	82	ABS	2	0	02VD 02VO 10VC 02MD 02MO 02MC 02RD 02RO	0	1	1.89452791214	None	None	None	None	1
2.7	2015_May_07_1415	s	s	5	4	SIC	83	RC	1	2	02VD 02VO 02VC 09MD 02MO 02MC 02RD 02RO	1	0	1.77192592621	-155.0	31.0	-155	35	1
2.7	2015_May_07_1415	s	s	5	4	SIC	84	RC	1	1	02VD 02VO 02VC 02MD 09MO 02MC 02RD 02RO	1	0	1.95095014572	280.0	-394.0	278	-394	1
2.7	2015_May_07_1415	s	s	5	4	SIC	85	RC	0	1	02VD 02VO 02VC 02MD 02MO 02MC 02RD 09RO	1	0	3.84827017784	229.0	247.0	225	246	1
2.7	2015_May_07_1415	s	s	5	4	SIC	86	ABS	2	1	02VD 10VO 02VC 02MD 02MO 02MC 02RD 02RO	0	1	2.31351304054	None	None	None	None	1
2.7	2015_May_07_1415	s	s	5	4	SIC	87	ABS	2	2	10VD 02VO 02VC 02MD 02MO 02MC 02RD 02RO	0	1	1.57147288322	None	None	None	None	1
2.7	2015_May_07_1415	s	s	5	4	SIC	88	ABS	0	2	02VD 02VO 02VC 02MD 02MO 02MC 10RD 02RO	0	1	2.90194296837	None	None	None	None	1
2.7	2015_May_07_1415	s	s	5	4	SIC	89	RC	1	0	02VD 02VO 02VC 02MD 02MO 09MC 02RD 02RO	1	0	2.78422307968	-164.0	-91.0	-168	-94	1
2.7	2015_May_07_1415	s	s	5	4	SIC	90	RC	2	2	09VD 02VO 02VC 02MD 02MO 02MC 02RD 02RO	1	0	1.41185998917	-135.0	263.0	-135	260	1
2.7	2015_May_07_1415	s	s	5	4	SIC	91	ABS	0	1	02VD 02VO 02VC 02MD 02MO 02MC 02RD 10RO	0	1	3.01972413063	None	None	None	None	1
2.7	2015_May_07_1415	s	s	5	4	SIC	92	ABS	1	0	02VD 02VO 02VC 02MD 02MO 10MC 02RD 02RO	0	1	2.58885598183	None	None	None	None	1
2.7	2015_May_07_1415	s	s	5	4	SIC	93	RC	0	2	02VD 02VO 02VC 02MD 02MO 02MC 09RD 02RO	1	0	1.45377802849	518.0	-124.0	523	-118	1
2.7	2015_May_07_1415	s	s	5	4	SIC	94	RC	2	0	02VD 02VO 09VC 02MD 02MO 02MC 02RD 02RO	1	0	1.37193083763	216.0	-278.0	222	-279	1
2.7	2015_May_07_1415	s	s	5	4	SIC	95	RC	2	1	02VD 09VO 02VC 02MD 02MO 02MC 02RD 02RO	1	0	2.11809802055	-481.0	143.0	-479	138	1
2.7	2015_May_07_1415	s	s	5	4	SIC	96	ABS	1	2	02VD 02VO 02VC 10MD 02MO 02MC 02RD 02RO	0	1	2.04745078087	None	None	None	None	1
2.7	2015_May_07_1415	s	s	5	4	SIC	97	RC	0	2	02VD 02VO 02VC 02MD 02MO 02MC 09RD 02RO	1	0	0.936355829239	66.0	-173.0	60	-173	1
2.7	2015_May_07_1415	s	s	5	4	SIC	98	RC	2	1	02VD 09VO 02VC 02MD 02MO 02MC 02RD 02RO	1	0	0.8585729599	407.0	-47.0	408	-46	1
2.7	2015_May_07_1415	s	s	5	4	SIC	99	RC	2	2	09VD 02VO 02VC 02MD 02MO 02MC 02RD 02RO	0	1	2.65946006775	-256.0	49.0	None	None	0
2.7	2015_May_07_1415	s	s	5	4	SIC	100	ABS	1	2	02VD 02VO 02VC 10MD 02MO 02MC 02RD 02RO	0	1	1.9501888752	None	None	None	None	1
2.7	2015_May_07_1415	s	s	5	4	SIC	101	RC	1	1	02VD 02VO 02VC 02MD 09MO 02MC 02RD 02RO	1	0	1.76190686226	407.0	-224.0	406	-227	1
2.7	2015_May_07_1415	s	s	5	4	SIC	102	ABS	2	0	02VD 02VO 10VC 02MD 02MO 02MC 02RD 02RO	0	1	2.1955871582	None	None	None	None	1
2.7	2015_May_07_1415	s	s	5	4	SIC	103	RC	1	0	02VD 02VO 02VC 02MD 02MO 09MC 02RD 02RO	1	0	1.54796504974	-196.0	-2.0	-201	-1	1
2.7	2015_May_07_1415	s	s	5	4	SIC	104	ABS	1	1	02VD 02VO 02VC 02MD 10MO 02MC 02RD 02RO	0	1	2.71834492683	None	None	None	None	1
2.7	2015_May_07_1415	s	s	5	4	SIC	105	ABS	1	0	02VD 02VO 02VC 02MD 02MO 10MC 02RD 02RO	0	1	2.71388506889	None	None	None	None	1
2.7	2015_May_07_1415	s	s	5	4	SIC	106	ABS	0	2	02VD 02VO 02VC 02MD 02MO 02MC 10RD 02RO	0	1	1.51780986786	None	None	None	None	1
2.7	2015_May_07_1415	s	s	5	4	SIC	107	RC	1	2	02VD 02VO 02VC 09MD 02MO 02MC 02RD 02RO	0	1	2.11335587502	-174.0	-226.0	None	None	0
2.7	2015_May_07_1415	s	s	5	4	SIC	108	RC	2	0	02VD 02VO 09VC 02MD 02MO 02MC 02RD 02RO	1	0	1.18245601654	364.0	-310.0	356	-312	1
2.7	2015_May_07_1415	s	s	5	4	SIC	109	ABS	0	1	02VD 02VO 02VC 02MD 02MO 02MC 02RD 10RO	0	1	3.36611890793	None	None	None	None	1
2.7	2015_May_07_1415	s	s	5	4	SIC	110	ABS	2	2	10VD 02VO 02VC 02MD 02MO 02MC 02RD 02RO	0	1	1.88848900795	None	None	None	None	1
2.7	2015_May_07_1415	s	s	5	4	SIC	111	RC	0	1	02VD 02VO 02VC 02MD 02MO 02MC 02RD 09RO	1	0	1.57699298859	410.0	264.0	409	271	1
2.7	2015_May_07_1415	s	s	5	4	SIC	112	ABS	2	1	02VD 10VO 02VC 02MD 02MO 02MC 02RD 02RO	0	1	2.32515716553	None	None	None	None	1
2.7	2015_May_07_1415	s	s	5	4	SIC	113	ABS	2	2	10VD 02VO 02VC 02MD 02MO 02MC 02RD 02RO	0	1	1.89150691032	None	None	None	None	1
2.7	2015_May_07_1415	s	s	5	4	SIC	114	RC	2	2	09VD 02VO 02VC 02MD 02MO 02MC 02RD 02RO	1	0	1.38295912743	-360.0	-162.0	-357	-166	1
2.7	2015_May_07_1415	s	s	5	4	SIC	115	RC	0	1	02VD 02VO 02VC 02MD 02MO 02MC 02RD 09RO	1	0	1.66556310654	-509.0	-143.0	-507	-147	1
2.7	2015_May_07_1415	s	s	5	4	SIC	116	RC	0	2	02VD 02VO 02VC 02MD 02MO 02MC 09RD 02RO	1	0	1.70402908325	-461.0	-210.0	-458	-213	1
2.7	2015_May_07_1415	s	s	5	4	SIC	117	ABS	0	1	02VD 02VO 02VC 02MD 02MO 02MC 02RD 10RO	0	1	5.1038620472	None	None	None	None	1
2.7	2015_May_07_1415	s	s	5	4	SIC	118	ABS	1	2	02VD 02VO 02VC 10MD 02MO 02MC 02RD 02RO	0	1	1.91247415543	None	None	None	None	1
2.7	2015_May_07_1415	s	s	5	4	SIC	119	ABS	1	0	02VD 02VO 02VC 02MD 02MO 10MC 02RD 02RO	0	1	4.05565690994	None	None	None	None	1
2.7	2015_May_07_1415	s	s	5	4	SIC	120	ABS	2	1	02VD 10VO 02VC 02MD 02MO 02MC 02RD 02RO	0	1	1.39494299889	None	None	None	None	1
2.7	2015_May_07_1415	s	s	5	4	SIC	121	ABS	2	0	02VD 02VO 10VC 02MD 02MO 02MC 02RD 02RO	0	1	1.39683103561	None	None	None	None	1
2.7	2015_May_07_1415	s	s	5	4	SIC	122	RC	1	0	02VD 02VO 02VC 02MD 02MO 09MC 02RD 02RO	1	0	1.78368496895	191.0	391.0	194	397	1
2.7	2015_May_07_1415	s	s	5	4	SIC	123	RC	1	1	02VD 02VO 02VC 02MD 09MO 02MC 02RD 02RO	1	0	1.57186508179	371.0	-224.0	374	-226	1
2.7	2015_May_07_1415	s	s	5	4	SIC	124	RC	2	1	02VD 09VO 02VC 02MD 02MO 02MC 02RD 02RO	1	0	2.57714605331	-123.0	-201.0	-124	-203	1
2.7	2015_May_07_1415	s	s	5	4	SIC	125	ABS	1	1	02VD 02VO 02VC 02MD 10MO 02MC 02RD 02RO	0	1	2.06827998161	None	None	None	None	1
2.7	2015_May_07_1415	s	s	5	4	SIC	126	RC	2	0	02VD 02VO 09VC 02MD 02MO 02MC 02RD 02RO	1	0	0.988045930862	20.0	52.0	22	54	1
2.7	2015_May_07_1415	s	s	5	4	SIC	127	RC	1	2	02VD 02VO 02VC 09MD 02MO 02MC 02RD 02RO	1	0	1.68291115761	347.0	-159.0	350	-154	1
2.7	2015_May_07_1415	s	s	5	4	SIC	128	ABS	0	2	02VD 02VO 02VC 02MD 02MO 02MC 10RD 02RO	0	1	8.96866798401	None	None	None	None	1
2.7	2015_May_07_1415	s	s	5	4	SIC	129	ABS	1	2	02VD 02VO 02VC 10MD 02MO 02MC 02RD 02RO	0	1	3.72798299789	None	None	None	None	1
2.7	2015_May_07_1415	s	s	5	4	SIC	130	ABS	1	1	02VD 02VO 02VC 02MD 10MO 02MC 02RD 02RO	0	1	2.13928985596	None	None	None	None	1
2.7	2015_May_07_1415	s	s	5	4	SIC	131	ABS	2	1	02VD 10VO 02VC 02MD 02MO 02MC 02RD 02RO	0	1	2.79747700691	None	None	None	None	1
2.7	2015_May_07_1415	s	s	5	4	SIC	132	RC	1	0	02VD 02VO 02VC 02MD 02MO 09MC 02RD 02RO	1	0	2.14160704613	-185.0	304.0	-186	306	1
2.7	2015_May_07_1415	s	s	5	4	SIC	133	RC	2	2	09VD 02VO 02VC 02MD 02MO 02MC 02RD 02RO	1	0	1.94176506996	-478.0	50.0	-476	48	1
2.7	2015_May_07_1415	s	s	5	4	SIC	134	ABS	2	2	10VD 02VO 02VC 02MD 02MO 02MC 02RD 02RO	0	1	1.76500487328	None	None	None	None	1
2.7	2015_May_07_1415	s	s	5	4	SIC	135	RC	0	2	02VD 02VO 02VC 02MD 02MO 02MC 09RD 02RO	1	0	1.34118294716	-317.0	347.0	-312	356	1
2.7	2015_May_07_1415	s	s	5	4	SIC	136	ABS	2	0	02VD 02VO 10VC 02MD 02MO 02MC 02RD 02RO	0	1	1.93626189232	None	None	None	None	1
2.7	2015_May_07_1415	s	s	5	4	SIC	137	ABS	1	0	02VD 02VO 02VC 02MD 02MO 10MC 02RD 02RO	0	1	4.00659012794	None	None	None	None	1
2.7	2015_May_07_1415	s	s	5	4	SIC	138	RC	2	1	02VD 09VO 02VC 02MD 02MO 02MC 02RD 02RO	1	0	3.37754702568	-303.0	307.0	-303	307	1
2.7	2015_May_07_1415	s	s	5	4	SIC	139	RC	0	1	02VD 02VO 02VC 02MD 02MO 02MC 02RD 09RO	1	0	3.9258491993	-400.0	-403.0	-398	-405	1
2.7	2015_May_07_1415	s	s	5	4	SIC	140	RC	1	2	02VD 02VO 02VC 09MD 02MO 02MC 02RD 02RO	1	0	1.91582489014	200.0	382.0	200	379	1
2.7	2015_May_07_1415	s	s	5	4	SIC	141	ABS	0	2	02VD 02VO 02VC 02MD 02MO 02MC 10RD 02RO	0	1	1.79521894455	None	None	None	None	1
2.7	2015_May_07_1415	s	s	5	4	SIC	142	RC	2	0	02VD 02VO 09VC 02MD 02MO 02MC 02RD 02RO	1	0	1.05395388603	146.0	-39.0	146	-43	1
2.7	2015_May_07_1415	s	s	5	4	SIC	143	RC	1	1	02VD 02VO 02VC 02MD 09MO 02MC 02RD 02RO	1	0	1.30589199066	-359.0	-14.0	-359	-19	1
2.7	2015_May_07_1415	s	s	5	4	SIC	144	ABS	0	1	02VD 02VO 02VC 02MD 02MO 02MC 02RD 10RO	0	1	3.94923996925	None	None	None	None	1
2.7	2015_May_07_1415	s	s	5	4	SIC	145	ABS	1	1	02VD 02VO 02VC 02MD 10MO 02MC 02RD 02RO	0	1	5.99688982964	None	None	None	None	1
2.7	2015_May_07_1415	s	s	5	4	SIC	146	RC	0	1	02VD 02VO 02VC 02MD 02MO 02MC 02RD 09RO	1	0	2.86528897285	144.0	-167.0	145	-169	1
2.7	2015_May_07_1415	s	s	5	4	SIC	147	ABS	2	2	10VD 02VO 02VC 02MD 02MO 02MC 02RD 02RO	0	1	4.31365895271	None	None	None	None	1
2.7	2015_May_07_1415	s	s	5	4	SIC	148	ABS	2	1	02VD 10VO 02VC 02MD 02MO 02MC 02RD 02RO	0	1	2.37222003937	None	None	None	None	1
2.7	2015_May_07_1415	s	s	5	4	SIC	149	RC	2	2	09VD 02VO 02VC 02MD 02MO 02MC 02RD 02RO	1	0	0.929167032242	-350.0	199.0	-348	202	1
2.7	2015_May_07_1415	s	s	5	4	SIC	150	RC	0	2	02VD 02VO 02VC 02MD 02MO 02MC 09RD 02RO	1	0	1.5272359848	202.0	-45.0	206	-47	1
2.7	2015_May_07_1415	s	s	5	4	SIC	151	ABS	2	0	02VD 02VO 10VC 02MD 02MO 02MC 02RD 02RO	0	1	1.92528796196	None	None	None	None	1
2.7	2015_May_07_1415	s	s	5	4	SIC	152	RC	2	1	02VD 09VO 02VC 02MD 02MO 02MC 02RD 02RO	1	0	0.829127073288	222.0	74.0	224	71	1
2.7	2015_May_07_1415	s	s	5	4	SIC	153	ABS	0	2	02VD 02VO 02VC 02MD 02MO 02MC 10RD 02RO	0	1	2.20047092438	None	None	None	None	1
2.7	2015_May_07_1415	s	s	5	4	SIC	154	ABS	1	2	02VD 02VO 02VC 10MD 02MO 02MC 02RD 02RO	0	1	2.23056197166	None	None	None	None	1
2.7	2015_May_07_1415	s	s	5	4	SIC	155	RC	2	0	02VD 02VO 09VC 02MD 02MO 02MC 02RD 02RO	1	0	1.70134091377	27.0	-122.0	28	-120	1
2.7	2015_May_07_1415	s	s	5	4	SIC	156	RC	1	0	02VD 02VO 02VC 02MD 02MO 09MC 02RD 02RO	0	1	2.96341204643	176.0	333.0	None	None	0
2.7	2015_May_07_1415	s	s	5	4	SIC	157	RC	1	1	02VD 02VO 02VC 02MD 09MO 02MC 02RD 02RO	1	0	1.1411318779	161.0	175.0	160	173	1
2.7	2015_May_07_1415	s	s	5	4	SIC	158	ABS	1	0	02VD 02VO 02VC 02MD 02MO 10MC 02RD 02RO	0	1	2.22211194038	None	None	None	None	1
2.7	2015_May_07_1415	s	s	5	4	SIC	159	RC	1	2	02VD 02VO 02VC 09MD 02MO 02MC 02RD 02RO	1	0	1.65360116959	-170.0	-8.0	-167	-6	1
2.7	2015_May_07_1415	s	s	5	4	SIC	160	ABS	0	1	02VD 02VO 02VC 02MD 02MO 02MC 02RD 10RO	0	1	3.353992939	None	None	None	None	1
2.7	2015_May_07_1415	s	s	5	4	SIC	161	ABS	1	1	02VD 02VO 02VC 02MD 10MO 02MC 02RD 02RO	0	1	7.63847494125	None	None	None	None	1
2.7	2015_May_07_1415	s	s	5	4	SIC	162	RC	0	2	02VD 02VO 02VC 02MD 02MO 02MC 09RD 02RO	0	1	3.57450914383	-394.0	-232.0	None	None	0
2.7	2015_May_07_1415	s	s	5	4	SIC	163	RC	1	2	02VD 02VO 02VC 09MD 02MO 02MC 02RD 02RO	1	0	0.976292133331	-25.0	-389.0	-29	-385	1
2.7	2015_May_07_1415	s	s	5	4	SIC	164	ABS	2	2	10VD 02VO 02VC 02MD 02MO 02MC 02RD 02RO	0	1	4.52762007713	None	None	None	None	1
2.7	2015_May_07_1415	s	s	5	4	SIC	165	ABS	1	2	02VD 02VO 02VC 10MD 02MO 02MC 02RD 02RO	0	1	1.41906714439	None	None	None	None	1
2.7	2015_May_07_1415	s	s	5	4	SIC	166	ABS	2	1	02VD 10VO 02VC 02MD 02MO 02MC 02RD 02RO	0	1	1.5888440609	None	None	None	None	1
2.7	2015_May_07_1415	s	s	5	4	SIC	167	ABS	1	0	02VD 02VO 02VC 02MD 02MO 10MC 02RD 02RO	0	1	2.97197794914	None	None	None	None	1
2.7	2015_May_07_1415	s	s	5	4	SIC	168	RC	2	1	02VD 09VO 02VC 02MD 02MO 02MC 02RD 02RO	1	0	1.16472291946	155.0	-165.0	151	-162	1
2.7	2015_May_07_1415	s	s	5	4	SIC	169	RC	1	0	02VD 02VO 02VC 02MD 02MO 09MC 02RD 02RO	1	0	1.02339696884	-369.0	136.0	-372	138	1
2.7	2015_May_07_1415	s	s	5	4	SIC	170	ABS	2	0	02VD 02VO 10VC 02MD 02MO 02MC 02RD 02RO	0	1	2.38560199738	None	None	None	None	1
2.7	2015_May_07_1415	s	s	5	4	SIC	171	RC	2	0	02VD 02VO 09VC 02MD 02MO 02MC 02RD 02RO	1	0	1.29412817955	-352.0	45.0	-349	42	1
2.7	2015_May_07_1415	s	s	5	4	SIC	172	RC	1	1	02VD 02VO 02VC 02MD 09MO 02MC 02RD 02RO	1	0	1.31753897667	-287.0	-203.0	-283	-205	1
2.7	2015_May_07_1415	s	s	5	4	SIC	173	ABS	0	2	02VD 02VO 02VC 02MD 02MO 02MC 10RD 02RO	0	1	1.32700204849	None	None	None	None	1
2.7	2015_May_07_1415	s	s	5	4	SIC	174	RC	2	2	09VD 02VO 02VC 02MD 02MO 02MC 02RD 02RO	1	0	1.05649185181	345.0	270.0	340	270	1
2.7	2015_May_07_1415	s	s	5	4	SIC	175	ABS	0	1	02VD 02VO 02VC 02MD 02MO 02MC 02RD 10RO	0	1	4.02282810211	None	None	None	None	1
2.7	2015_May_07_1415	s	s	5	4	SIC	176	RC	0	1	02VD 02VO 02VC 02MD 02MO 02MC 02RD 09RO	1	0	1.84734201431	196.0	-378.0	197	-377	1
2.7	2015_May_07_1415	s	s	5	4	SIC	177	RC	1	1	02VD 02VO 02VC 02MD 09MO 02MC 02RD 02RO	1	0	1.12697911263	-11.0	-177.0	-8	-180	1
2.7	2015_May_07_1415	s	s	5	4	SIC	178	ABS	1	2	02VD 02VO 02VC 10MD 02MO 02MC 02RD 02RO	0	1	1.9296901226	None	None	None	None	1
2.7	2015_May_07_1415	s	s	5	4	SIC	179	ABS	0	2	02VD 02VO 02VC 02MD 02MO 02MC 10RD 02RO	0	1	1.95331788063	None	None	None	None	1
2.7	2015_May_07_1415	s	s	5	4	SIC	180	ABS	0	1	02VD 02VO 02VC 02MD 02MO 02MC 02RD 10RO	0	1	5.09139895439	None	None	None	None	1
2.7	2015_May_07_1415	s	s	5	4	SIC	181	RC	0	2	02VD 02VO 02VC 02MD 02MO 02MC 09RD 02RO	1	0	1.06501698494	143.0	-384.0	136	-390	1
2.7	2015_May_07_1415	s	s	5	4	SIC	182	ABS	2	2	10VD 02VO 02VC 02MD 02MO 02MC 02RD 02RO	0	1	1.68952584267	None	None	None	None	1
2.7	2015_May_07_1415	s	s	5	4	SIC	183	RC	2	0	02VD 02VO 09VC 02MD 02MO 02MC 02RD 02RO	1	0	1.09206199646	-159.0	-189.0	-164	-190	1
2.7	2015_May_07_1415	s	s	5	4	SIC	184	RC	2	2	09VD 02VO 02VC 02MD 02MO 02MC 02RD 02RO	1	0	1.55313897133	512.0	17.0	510	14	1
2.7	2015_May_07_1415	s	s	5	4	SIC	185	ABS	2	1	02VD 10VO 02VC 02MD 02MO 02MC 02RD 02RO	0	1	1.47069001198	None	None	None	None	1
2.7	2015_May_07_1415	s	s	5	4	SIC	186	RC	1	2	02VD 02VO 02VC 09MD 02MO 02MC 02RD 02RO	1	0	1.1714630127	-133.0	-111.0	-134	-109	1
2.7	2015_May_07_1415	s	s	5	4	SIC	187	ABS	2	0	02VD 02VO 10VC 02MD 02MO 02MC 02RD 02RO	0	1	1.76142907143	None	None	None	None	1
2.7	2015_May_07_1415	s	s	5	4	SIC	188	RC	2	1	02VD 09VO 02VC 02MD 02MO 02MC 02RD 02RO	1	0	1.30586099625	-144.0	256.0	-143	261	1
2.7	2015_May_07_1415	s	s	5	4	SIC	189	ABS	1	0	02VD 02VO 02VC 02MD 02MO 10MC 02RD 02RO	0	1	2.27156615257	None	None	None	None	1
2.7	2015_May_07_1415	s	s	5	4	SIC	190	RC	0	1	02VD 02VO 02VC 02MD 02MO 02MC 02RD 09RO	1	0	1.62159800529	-94.0	351.0	-87	352	1
2.7	2015_May_07_1415	s	s	5	4	SIC	191	RC	1	0	02VD 02VO 02VC 02MD 02MO 09MC 02RD 02RO	0	1	2.03168511391	-348.0	-317.0	None	None	0
2.7	2015_May_07_1415	s	s	5	4	SIC	192	ABS	1	1	02VD 02VO 02VC 02MD 10MO 02MC 02RD 02RO	0	1	1.61579489708	None	None	None	None	1
2.7	2015_May_07_1415	s	s	5	4	SIC	193	RC	1	0	02VD 02VO 02VC 02MD 02MO 09MC 02RD 02RO	1	0	1.83562207222	525.0	245.0	518	246	1
2.7	2015_May_07_1415	s	s	5	4	SIC	194	ABS	1	2	02VD 02VO 02VC 10MD 02MO 02MC 02RD 02RO	0	1	2.02385902405	None	None	None	None	1
2.7	2015_May_07_1415	s	s	5	4	SIC	195	RC	1	2	02VD 02VO 02VC 09MD 02MO 02MC 02RD 02RO	1	0	1.38830709457	154.0	-181.0	156	-189	1
2.7	2015_May_07_1415	s	s	5	4	SIC	196	ABS	2	0	02VD 02VO 10VC 02MD 02MO 02MC 02RD 02RO	0	1	2.63398504257	None	None	None	None	1
2.7	2015_May_07_1415	s	s	5	4	SIC	197	RC	1	1	02VD 02VO 02VC 02MD 09MO 02MC 02RD 02RO	1	0	1.08906006813	142.0	-165.0	138	-167	1
2.7	2015_May_07_1415	s	s	5	4	SIC	198	RC	2	2	09VD 02VO 02VC 02MD 02MO 02MC 02RD 02RO	1	0	2.40797305107	-513.0	230.0	-514	228	1
2.7	2015_May_07_1415	s	s	5	4	SIC	199	ABS	0	2	02VD 02VO 02VC 02MD 02MO 02MC 10RD 02RO	0	1	2.50659394264	None	None	None	None	1
2.7	2015_May_07_1415	s	s	5	4	SIC	200	RC	0	1	02VD 02VO 02VC 02MD 02MO 02MC 02RD 09RO	0	1	4.99605298042	141.0	284.0	None	None	0
2.7	2015_May_07_1415	s	s	5	4	SIC	201	ABS	2	2	10VD 02VO 02VC 02MD 02MO 02MC 02RD 02RO	0	1	3.277780056	None	None	None	None	1
2.7	2015_May_07_1415	s	s	5	4	SIC	202	RC	2	1	02VD 09VO 02VC 02MD 02MO 02MC 02RD 02RO	1	0	0.724747180939	60.0	135.0	68	140	1
2.7	2015_May_07_1415	s	s	5	4	SIC	203	ABS	0	1	02VD 02VO 02VC 02MD 02MO 02MC 02RD 10RO	0	1	5.36169981956	None	None	None	None	1
2.7	2015_May_07_1415	s	s	5	4	SIC	204	ABS	1	1	02VD 02VO 02VC 02MD 10MO 02MC 02RD 02RO	0	1	3.68351483345	None	None	None	None	1
2.7	2015_May_07_1415	s	s	5	4	SIC	205	RC	2	0	02VD 02VO 09VC 02MD 02MO 02MC 02RD 02RO	1	0	1.64265418053	302.0	-402.0	311	-402	1
2.7	2015_May_07_1415	s	s	5	4	SIC	206	RC	0	2	02VD 02VO 02VC 02MD 02MO 02MC 09RD 02RO	1	0	1.63071703911	500.0	-242.0	502	-244	1
2.7	2015_May_07_1415	s	s	5	4	SIC	207	ABS	1	0	02VD 02VO 02VC 02MD 02MO 10MC 02RD 02RO	0	1	3.61332392693	None	None	None	None	1
2.7	2015_May_07_1415	s	s	5	4	SIC	208	ABS	2	1	02VD 10VO 02VC 02MD 02MO 02MC 02RD 02RO	0	1	2.16072106361	None	None	None	None	1
2.7	2015_May_07_1415	s	s	5	4	SIC	209	RC	1	1	02VD 02VO 02VC 02MD 09MO 02MC 02RD 02RO	1	0	0.882179021835	-11.0	-110.0	-12	-111	1
2.7	2015_May_07_1415	s	s	5	4	SIC	210	ABS	1	1	02VD 02VO 02VC 02MD 10MO 02MC 02RD 02RO	0	1	3.02444386482	None	None	None	None	1
2.7	2015_May_07_1415	s	s	5	4	SIC	211	RC	2	0	02VD 02VO 09VC 02MD 02MO 02MC 02RD 02RO	1	0	0.882166862488	-245.0	154.0	-250	153	1
2.7	2015_May_07_1415	s	s	5	4	SIC	212	ABS	1	0	02VD 02VO 02VC 02MD 02MO 10MC 02RD 02RO	0	1	5.83555197716	None	None	None	None	1
2.7	2015_May_07_1415	s	s	5	4	SIC	213	RC	1	0	02VD 02VO 02VC 02MD 02MO 09MC 02RD 02RO	1	0	1.87091207504	68.0	261.0	66	259	1
2.7	2015_May_07_1415	s	s	5	4	SIC	214	ABS	2	1	02VD 10VO 02VC 02MD 02MO 02MC 02RD 02RO	0	1	5.28007411957	None	None	None	None	1
2.7	2015_May_07_1415	s	s	5	4	SIC	215	RC	0	1	02VD 02VO 02VC 02MD 02MO 02MC 02RD 09RO	0	1	4.67892599106	-91.0	140.0	None	None	0
2.7	2015_May_07_1415	s	s	5	4	SIC	216	RC	1	2	02VD 02VO 02VC 09MD 02MO 02MC 02RD 02RO	0	1	2.26839613914	-48.0	361.0	None	None	0
2.7	2015_May_07_1415	s	s	5	4	SIC	217	RC	2	1	02VD 09VO 02VC 02MD 02MO 02MC 02RD 02RO	1	0	1.05878806114	233.0	-315.0	223	-313	1
2.7	2015_May_07_1415	s	s	5	4	SIC	218	ABS	2	0	02VD 02VO 10VC 02MD 02MO 02MC 02RD 02RO	0	1	2.41950511932	None	None	None	None	1
2.7	2015_May_07_1415	s	s	5	4	SIC	219	RC	2	2	09VD 02VO 02VC 02MD 02MO 02MC 02RD 02RO	1	0	2.0542140007	-248.0	-2.0	-244	4	1
2.7	2015_May_07_1415	s	s	5	4	SIC	220	ABS	2	2	10VD 02VO 02VC 02MD 02MO 02MC 02RD 02RO	0	1	2.6240530014	None	None	None	None	1
2.7	2015_May_07_1415	s	s	5	4	SIC	221	RC	0	2	02VD 02VO 02VC 02MD 02MO 02MC 09RD 02RO	1	0	1.85903787613	-333.0	231.0	-334	230	1
2.7	2015_May_07_1415	s	s	5	4	SIC	222	ABS	0	1	02VD 02VO 02VC 02MD 02MO 02MC 02RD 10RO	0	1	4.62507295609	None	None	None	None	1
2.7	2015_May_07_1415	s	s	5	4	SIC	223	ABS	0	2	02VD 02VO 02VC 02MD 02MO 02MC 10RD 02RO	0	1	2.68309497833	None	None	None	None	1
2.7	2015_May_07_1415	s	s	5	4	SIC	224	ABS	1	2	02VD 02VO 02VC 10MD 02MO 02MC 02RD 02RO	0	1	2.80902194977	None	None	None	None	1
2.7	2015_May_07_1415	s	s	5	4	SIC	225	RC	2	1	02VD 09VO 02VC 02MD 02MO 02MC 02RD 02RO	1	0	1.14784502983	-393.0	-124.0	-390	-129	1
2.7	2015_May_07_1415	s	s	5	4	SIC	226	RC	1	1	02VD 02VO 02VC 02MD 09MO 02MC 02RD 02RO	1	0	1.19975090027	-274.0	67.0	-271	61	1
2.7	2015_May_07_1415	s	s	5	4	SIC	227	RC	0	2	02VD 02VO 02VC 02MD 02MO 02MC 09RD 02RO	1	0	1.91313791275	293.0	-187.0	292	-186	1
2.7	2015_May_07_1415	s	s	5	4	SIC	228	ABS	1	0	02VD 02VO 02VC 02MD 02MO 10MC 02RD 02RO	0	1	4.51438307762	None	None	None	None	1
2.7	2015_May_07_1415	s	s	5	4	SIC	229	RC	1	0	02VD 02VO 02VC 02MD 02MO 09MC 02RD 02RO	1	0	0.835043907166	-41.0	134.0	-40	129	1
2.7	2015_May_07_1415	s	s	5	4	SIC	230	RC	0	1	02VD 02VO 02VC 02MD 02MO 02MC 02RD 09RO	1	0	1.75322008133	-293.0	334.0	-300	337	1
2.7	2015_May_07_1415	s	s	5	4	SIC	231	ABS	1	2	02VD 02VO 02VC 10MD 02MO 02MC 02RD 02RO	0	1	2.09912490845	None	None	None	None	1
2.7	2015_May_07_1415	s	s	5	4	SIC	232	ABS	1	1	02VD 02VO 02VC 02MD 10MO 02MC 02RD 02RO	0	1	3.32588195801	None	None	None	None	1
2.7	2015_May_07_1415	s	s	5	4	SIC	233	ABS	2	0	02VD 02VO 10VC 02MD 02MO 02MC 02RD 02RO	0	1	2.27809810638	None	None	None	None	1
2.7	2015_May_07_1415	s	s	5	4	SIC	234	RC	2	0	02VD 02VO 09VC 02MD 02MO 02MC 02RD 02RO	1	0	1.04680299759	91.0	-313.0	90	-315	1
2.7	2015_May_07_1415	s	s	5	4	SIC	235	ABS	2	1	02VD 10VO 02VC 02MD 02MO 02MC 02RD 02RO	0	1	1.84765100479	None	None	None	None	1
2.7	2015_May_07_1415	s	s	5	4	SIC	236	RC	2	2	09VD 02VO 02VC 02MD 02MO 02MC 02RD 02RO	1	0	2.85981798172	195.0	69.0	192	71	1
2.7	2015_May_07_1415	s	s	5	4	SIC	237	RC	1	2	02VD 02VO 02VC 09MD 02MO 02MC 02RD 02RO	1	0	0.784998178482	305.0	117.0	304	119	1
2.7	2015_May_07_1415	s	s	5	4	SIC	238	ABS	0	2	02VD 02VO 02VC 02MD 02MO 02MC 10RD 02RO	0	1	3.81943511963	None	None	None	None	1
2.7	2015_May_07_1415	s	s	5	4	SIC	239	ABS	2	2	10VD 02VO 02VC 02MD 02MO 02MC 02RD 02RO	0	1	2.41233587265	None	None	None	None	1
2.7	2015_May_07_1415	s	s	5	4	SIC	240	ABS	0	1	02VD 02VO 02VC 02MD 02MO 02MC 02RD 10RO	0	1	4.29060316086	None	None	None	None	1
2.7	2015_May_07_1415	s	s	5	4	SIC	241	ABS	2	0	02VD 02VO 10VC 02MD 02MO 02MC 02RD 02RO	0	1	2.24753785133	None	None	None	None	1
2.7	2015_May_07_1415	s	s	5	4	SIC	242	ABS	1	1	02VD 02VO 02VC 02MD 10MO 02MC 02RD 02RO	0	1	4.77818107605	None	None	None	None	1
2.7	2015_May_07_1415	s	s	5	4	SIC	243	ABS	1	0	02VD 02VO 02VC 02MD 02MO 10MC 02RD 02RO	0	1	3.39590406418	None	None	None	None	1
2.7	2015_May_07_1415	s	s	5	4	SIC	244	ABS	0	2	02VD 02VO 02VC 02MD 02MO 02MC 10RD 02RO	0	1	3.83212089539	None	None	None	None	1
2.7	2015_May_07_1415	s	s	5	4	SIC	245	ABS	2	2	10VD 02VO 02VC 02MD 02MO 02MC 02RD 02RO	0	1	2.68303704262	None	None	None	None	1
2.7	2015_May_07_1415	s	s	5	4	SIC	246	RC	1	0	02VD 02VO 02VC 02MD 02MO 09MC 02RD 02RO	1	0	1.4421069622	-118.0	252.0	-115	250	1
2.7	2015_May_07_1415	s	s	5	4	SIC	247	RC	2	0	02VD 02VO 09VC 02MD 02MO 02MC 02RD 02RO	1	0	2.36527013779	-404.0	-412.0	-404	-411	1
2.7	2015_May_07_1415	s	s	5	4	SIC	248	ABS	2	1	02VD 10VO 02VC 02MD 02MO 02MC 02RD 02RO	0	1	2.3395819664	None	None	None	None	1
2.7	2015_May_07_1415	s	s	5	4	SIC	249	RC	1	2	02VD 02VO 02VC 09MD 02MO 02MC 02RD 02RO	1	0	2.70670986176	466.0	320.0	465	322	1
2.7	2015_May_07_1415	s	s	5	4	SIC	250	RC	0	2	02VD 02VO 02VC 02MD 02MO 02MC 09RD 02RO	1	0	3.86681699753	213.0	180.0	214	179	1
2.7	2015_May_07_1415	s	s	5	4	SIC	251	ABS	1	2	02VD 02VO 02VC 10MD 02MO 02MC 02RD 02RO	0	1	3.04801416397	None	None	None	None	1
2.7	2015_May_07_1415	s	s	5	4	SIC	252	RC	2	2	09VD 02VO 02VC 02MD 02MO 02MC 02RD 02RO	1	0	0.747778892517	267.0	35.0	267	36	1
2.7	2015_May_07_1415	s	s	5	4	SIC	253	RC	1	1	02VD 02VO 02VC 02MD 09MO 02MC 02RD 02RO	1	0	0.726400852203	100.0	-16.0	103	-21	1
2.7	2015_May_07_1415	s	s	5	4	SIC	254	RC	0	1	02VD 02VO 02VC 02MD 02MO 02MC 02RD 09RO	1	0	2.59578704834	164.0	-343.0	169	-347	1
2.7	2015_May_07_1415	s	s	5	4	SIC	255	ABS	0	1	02VD 02VO 02VC 02MD 02MO 02MC 02RD 10RO	1	0	4.77819395065	None	None	-3	-61	0
2.7	2015_May_07_1415	s	s	5	4	SIC	256	RC	2	1	02VD 09VO 02VC 02MD 02MO 02MC 02RD 02RO	1	0	1.43538713455	-104.0	-323.0	-98	-317	1
2.7	2015_May_07_1415	s	s	5	4	SIC	257	RC	0	2	02VD 02VO 02VC 02MD 02MO 02MC 09RD 02RO	1	0	1.70277285576	-382.0	204.0	-381	206	1
2.7	2015_May_07_1415	s	s	5	4	SIC	258	ABS	2	2	10VD 02VO 02VC 02MD 02MO 02MC 02RD 02RO	0	1	2.46701717377	None	None	None	None	1
2.7	2015_May_07_1415	s	s	5	4	SIC	259	RC	2	0	02VD 02VO 09VC 02MD 02MO 02MC 02RD 02RO	0	1	2.6778178215	-338.0	107.0	None	None	0
2.7	2015_May_07_1415	s	s	5	4	SIC	260	RC	2	2	09VD 02VO 02VC 02MD 02MO 02MC 02RD 02RO	1	0	2.74195480347	494.0	-328.0	500	-329	1
2.7	2015_May_07_1415	s	s	5	4	SIC	261	ABS	1	2	02VD 02VO 02VC 10MD 02MO 02MC 02RD 02RO	0	1	3.12551689148	None	None	None	None	1
2.7	2015_May_07_1415	s	s	5	4	SIC	262	ABS	0	2	02VD 02VO 02VC 02MD 02MO 02MC 10RD 02RO	0	1	3.19633102417	None	None	None	None	1
2.7	2015_May_07_1415	s	s	5	4	SIC	263	RC	2	1	02VD 09VO 02VC 02MD 02MO 02MC 02RD 02RO	1	0	1.11758303642	202.0	55.0	199	51	1
2.7	2015_May_07_1415	s	s	5	4	SIC	264	ABS	2	1	02VD 10VO 02VC 02MD 02MO 02MC 02RD 02RO	0	1	3.07173991203	None	None	None	None	1
2.7	2015_May_07_1415	s	s	5	4	SIC	265	RC	1	0	02VD 02VO 02VC 02MD 02MO 09MC 02RD 02RO	1	0	2.05404400826	-385.0	-82.0	-383	-74	1
2.7	2015_May_07_1415	s	s	5	4	SIC	266	ABS	1	0	02VD 02VO 02VC 02MD 02MO 10MC 02RD 02RO	0	1	3.48734498024	None	None	None	None	1
2.7	2015_May_07_1415	s	s	5	4	SIC	267	RC	1	1	02VD 02VO 02VC 02MD 09MO 02MC 02RD 02RO	1	0	2.34159207344	331.0	28.0	330	27	1
2.7	2015_May_07_1415	s	s	5	4	SIC	268	ABS	1	1	02VD 02VO 02VC 02MD 10MO 02MC 02RD 02RO	0	1	3.27913594246	None	None	None	None	1
2.7	2015_May_07_1415	s	s	5	4	SIC	269	ABS	0	1	02VD 02VO 02VC 02MD 02MO 02MC 02RD 10RO	0	1	4.45563292503	None	None	None	None	1
2.7	2015_May_07_1415	s	s	5	4	SIC	270	RC	1	2	02VD 02VO 02VC 09MD 02MO 02MC 02RD 02RO	0	1	2.162555933	-9.0	280.0	None	None	0
2.7	2015_May_07_1415	s	s	5	4	SIC	271	ABS	2	0	02VD 02VO 10VC 02MD 02MO 02MC 02RD 02RO	0	0	-1	None	None	None	None	-1
2.7	2015_May_07_1415	s	s	5	4	SIC	272	RC	0	1	02VD 02VO 02VC 02MD 02MO 02MC 02RD 09RO	1	0	5.07254004478	-3.0	-145.0	0	-143	1
2.7	2015_May_07_1415	s	s	5	4	SIC	273	RC	0	2	02VD 02VO 02VC 02MD 02MO 02MC 09RD 02RO	1	0	1.65891385078	460.0	-168.0	461	-165	1
2.7	2015_May_07_1415	s	s	5	4	SIC	274	ABS	2	0	02VD 02VO 10VC 02MD 02MO 02MC 02RD 02RO	0	1	2.15335297585	None	None	None	None	1
2.7	2015_May_07_1415	s	s	5	4	SIC	275	RC	2	2	09VD 02VO 02VC 02MD 02MO 02MC 02RD 02RO	1	0	1.2116549015	36.0	298.0	38	299	1
2.7	2015_May_07_1415	s	s	5	4	SIC	276	RC	2	1	02VD 09VO 02VC 02MD 02MO 02MC 02RD 02RO	1	0	0.823210954666	-279.0	383.0	-273	385	1
2.7	2015_May_07_1415	s	s	5	4	SIC	277	ABS	2	1	02VD 10VO 02VC 02MD 02MO 02MC 02RD 02RO	0	1	2.76121520996	None	None	None	None	1
2.7	2015_May_07_1415	s	s	5	4	SIC	278	ABS	1	1	02VD 02VO 02VC 02MD 10MO 02MC 02RD 02RO	0	1	3.29555296898	None	None	None	None	1
2.7	2015_May_07_1415	s	s	5	4	SIC	279	ABS	0	2	02VD 02VO 02VC 02MD 02MO 02MC 10RD 02RO	0	1	1.68082714081	None	None	None	None	1
2.7	2015_May_07_1415	s	s	5	4	SIC	280	RC	1	0	02VD 02VO 02VC 02MD 02MO 09MC 02RD 02RO	1	0	1.14108300209	-285.0	-137.0	-286	-143	1
2.7	2015_May_07_1415	s	s	5	4	SIC	281	RC	0	1	02VD 02VO 02VC 02MD 02MO 02MC 02RD 09RO	1	0	2.01599693298	9.0	-71.0	11	-73	1
2.7	2015_May_07_1415	s	s	5	4	SIC	282	RC	2	0	02VD 02VO 09VC 02MD 02MO 02MC 02RD 02RO	1	0	1.29392385483	-200.0	116.0	-203	114	1
2.7	2015_May_07_1415	s	s	5	4	SIC	283	ABS	2	2	10VD 02VO 02VC 02MD 02MO 02MC 02RD 02RO	0	1	2.70430183411	None	None	None	None	1
2.7	2015_May_07_1415	s	s	5	4	SIC	284	ABS	1	0	02VD 02VO 02VC 02MD 02MO 10MC 02RD 02RO	0	1	2.90158104897	None	None	None	None	1
2.7	2015_May_07_1415	s	s	5	4	SIC	285	ABS	1	2	02VD 02VO 02VC 10MD 02MO 02MC 02RD 02RO	0	1	2.12981510162	None	None	None	None	1
2.7	2015_May_07_1415	s	s	5	4	SIC	286	RC	1	2	02VD 02VO 02VC 09MD 02MO 02MC 02RD 02RO	0	1	1.17145299911	31.0	-245.0	None	None	0
2.7	2015_May_07_1415	s	s	5	4	SIC	287	ABS	0	1	02VD 02VO 02VC 02MD 02MO 02MC 02RD 10RO	0	1	3.6953599453	None	None	None	None	1
2.7	2015_May_07_1415	s	s	5	4	SIC	288	RC	1	1	02VD 02VO 02VC 02MD 09MO 02MC 02RD 02RO	1	0	1.21861386299	116.0	-142.0	116	-139	1
2.7	2015_May_07_1415	s	s	5	4	SIC	289	RC	2	2	09VD 02VO 02VC 02MD 02MO 02MC 02RD 02RO	1	0	1.35301208496	-509.0	38.0	-502	38	1
2.7	2015_May_07_1415	s	s	5	4	SIC	290	RC	1	1	02VD 02VO 02VC 02MD 09MO 02MC 02RD 02RO	0	1	4.87235307693	326.0	106.0	None	None	0
2.7	2015_May_07_1415	s	s	5	4	SIC	291	ABS	1	2	02VD 02VO 02VC 10MD 02MO 02MC 02RD 02RO	0	1	3.00557494164	None	None	None	None	1
2.7	2015_May_07_1415	s	s	5	4	SIC	292	RC	2	0	02VD 02VO 09VC 02MD 02MO 02MC 02RD 02RO	0	1	2.06887292862	1.0	-269.0	None	None	0
2.7	2015_May_07_1415	s	s	5	4	SIC	293	ABS	0	1	02VD 02VO 02VC 02MD 02MO 02MC 02RD 10RO	0	1	5.47269511223	None	None	None	None	1
2.7	2015_May_07_1415	s	s	5	4	SIC	294	RC	0	2	02VD 02VO 02VC 02MD 02MO 02MC 09RD 02RO	1	0	1.7384660244	-279.0	108.0	-271	111	1
2.7	2015_May_07_1415	s	s	5	4	SIC	295	ABS	1	0	02VD 02VO 02VC 02MD 02MO 10MC 02RD 02RO	0	1	2.85472798347	None	None	None	None	1
2.7	2015_May_07_1415	s	s	5	4	SIC	296	ABS	1	1	02VD 02VO 02VC 02MD 10MO 02MC 02RD 02RO	0	1	3.37516093254	None	None	None	None	1
2.7	2015_May_07_1415	s	s	5	4	SIC	297	ABS	2	0	02VD 02VO 10VC 02MD 02MO 02MC 02RD 02RO	0	1	5.06698703766	None	None	None	None	1
2.7	2015_May_07_1415	s	s	5	4	SIC	298	ABS	0	2	02VD 02VO 02VC 02MD 02MO 02MC 10RD 02RO	0	1	2.9516711235	None	None	None	None	1
2.7	2015_May_07_1415	s	s	5	4	SIC	299	ABS	2	1	02VD 10VO 02VC 02MD 02MO 02MC 02RD 02RO	0	1	2.32512593269	None	None	None	None	1
2.7	2015_May_07_1415	s	s	5	4	SIC	300	ABS	2	2	10VD 02VO 02VC 02MD 02MO 02MC 02RD 02RO	0	1	2.17471194267	None	None	None	None	1
2.7	2015_May_07_1415	s	s	5	4	SIC	301	RC	1	0	02VD 02VO 02VC 02MD 02MO 09MC 02RD 02RO	1	0	3.07799220085	-192.0	-233.0	-183	-231	1
2.7	2015_May_07_1415	s	s	5	4	SIC	302	RC	1	2	02VD 02VO 02VC 09MD 02MO 02MC 02RD 02RO	1	0	1.77669596672	274.0	-264.0	279	-260	1
2.7	2015_May_07_1415	s	s	5	4	SIC	303	RC	2	1	02VD 09VO 02VC 02MD 02MO 02MC 02RD 02RO	1	0	1.10239911079	215.0	140.0	220	142	1
2.7	2015_May_07_1415	s	s	5	4	SIC	304	RC	0	1	02VD 02VO 02VC 02MD 02MO 02MC 02RD 09RO	1	0	1.78347396851	-128.0	-336.0	-127	-335	1
2.7	2015_May_07_1415	s	s	5	4	SIC	305	RC	2	0	02VD 02VO 09VC 02MD 02MO 02MC 02RD 02RO	0	1	3.02185893059	-181.0	162.0	None	None	0
2.7	2015_May_07_1415	s	s	5	4	SIC	306	ABS	1	1	02VD 02VO 02VC 02MD 10MO 02MC 02RD 02RO	0	1	3.76596403122	None	None	None	None	1
2.7	2015_May_07_1415	s	s	5	4	SIC	307	ABS	2	2	10VD 02VO 02VC 02MD 02MO 02MC 02RD 02RO	0	1	3.66632914543	None	None	None	None	1
2.7	2015_May_07_1415	s	s	5	4	SIC	308	RC	0	2	02VD 02VO 02VC 02MD 02MO 02MC 09RD 02RO	1	0	1.7413880825	343.0	-102.0	348	-108	1
2.7	2015_May_07_1415	s	s	5	4	SIC	309	ABS	1	0	02VD 02VO 02VC 02MD 02MO 10MC 02RD 02RO	0	1	2.29229307175	None	None	None	None	1
2.7	2015_May_07_1415	s	s	5	4	SIC	310	ABS	1	2	02VD 02VO 02VC 10MD 02MO 02MC 02RD 02RO	0	1	2.11500287056	None	None	None	None	1
2.7	2015_May_07_1415	s	s	5	4	SIC	311	ABS	0	1	02VD 02VO 02VC 02MD 02MO 02MC 02RD 10RO	0	1	4.0185520649	None	None	None	None	1
2.7	2015_May_07_1415	s	s	5	4	SIC	312	ABS	0	2	02VD 02VO 02VC 02MD 02MO 02MC 10RD 02RO	0	1	2.33858299255	None	None	None	None	1
2.7	2015_May_07_1415	s	s	5	4	SIC	313	ABS	2	0	02VD 02VO 10VC 02MD 02MO 02MC 02RD 02RO	0	1	2.38655591011	None	None	None	None	1
2.7	2015_May_07_1415	s	s	5	4	SIC	314	RC	0	1	02VD 02VO 02VC 02MD 02MO 02MC 02RD 09RO	1	0	2.33903694153	402.0	-230.0	406	-235	1
2.7	2015_May_07_1415	s	s	5	4	SIC	315	RC	1	1	02VD 02VO 02VC 02MD 09MO 02MC 02RD 02RO	1	0	1.3529779911	240.0	-181.0	238	-177	1
2.7	2015_May_07_1415	s	s	5	4	SIC	316	RC	1	2	02VD 02VO 02VC 09MD 02MO 02MC 02RD 02RO	1	0	1.6708278656	495.0	157.0	490	153	1
2.7	2015_May_07_1415	s	s	5	4	SIC	317	RC	2	1	02VD 09VO 02VC 02MD 02MO 02MC 02RD 02RO	1	0	1.10084199905	-343.0	66.0	-346	63	1
2.7	2015_May_07_1415	s	s	5	4	SIC	318	RC	1	0	02VD 02VO 02VC 02MD 02MO 09MC 02RD 02RO	1	0	0.976274967194	-50.0	341.0	-49	342	1
2.7	2015_May_07_1415	s	s	5	4	SIC	319	ABS	2	1	02VD 10VO 02VC 02MD 02MO 02MC 02RD 02RO	0	1	2.26633095741	None	None	None	None	1
2.7	2015_May_07_1415	s	s	5	4	SIC	320	RC	2	2	09VD 02VO 02VC 02MD 02MO 02MC 02RD 02RO	1	0	1.31310009956	457.0	-160.0	455	-171	1
2.7	2015_May_07_1415	s	s	5	4	SIC	321	RC	0	2	02VD 02VO 02VC 02MD 02MO 02MC 09RD 02RO	1	0	1.64771795273	429.0	-181.0	417	-172	1
2.7	2015_May_07_1415	s	s	5	4	SIC	322	RC	2	0	02VD 02VO 09VC 02MD 02MO 02MC 02RD 02RO	1	0	1.76040792465	-402.0	-186.0	-401	-186	1
2.7	2015_May_07_1415	s	s	5	4	SIC	323	ABS	1	1	02VD 02VO 02VC 02MD 10MO 02MC 02RD 02RO	0	1	3.02446293831	None	None	None	None	1
2.7	2015_May_07_1415	s	s	5	4	SIC	324	RC	1	0	02VD 02VO 02VC 02MD 02MO 09MC 02RD 02RO	1	0	1.34796714783	-294.0	59.0	-291	56	1
2.7	2015_May_07_1415	s	s	5	4	SIC	325	ABS	2	2	10VD 02VO 02VC 02MD 02MO 02MC 02RD 02RO	0	1	2.15907382965	None	None	None	None	1
2.7	2015_May_07_1415	s	s	5	4	SIC	326	ABS	2	0	02VD 02VO 10VC 02MD 02MO 02MC 02RD 02RO	0	1	2.30311107635	None	None	None	None	1
2.7	2015_May_07_1415	s	s	5	4	SIC	327	RC	1	1	02VD 02VO 02VC 02MD 09MO 02MC 02RD 02RO	1	0	0.647093057632	-89.0	47.0	-93	52	1
2.7	2015_May_07_1415	s	s	5	4	SIC	328	ABS	1	0	02VD 02VO 02VC 02MD 02MO 10MC 02RD 02RO	0	1	3.44479298592	None	None	None	None	1
2.7	2015_May_07_1415	s	s	5	4	SIC	329	ABS	0	2	02VD 02VO 02VC 02MD 02MO 02MC 10RD 02RO	0	1	2.82433605194	None	None	None	None	1
2.7	2015_May_07_1415	s	s	5	4	SIC	330	RC	0	1	02VD 02VO 02VC 02MD 02MO 02MC 02RD 09RO	1	0	1.30623292923	135.0	-361.0	133	-362	1
2.7	2015_May_07_1415	s	s	5	4	SIC	331	ABS	0	1	02VD 02VO 02VC 02MD 02MO 02MC 02RD 10RO	0	1	3.44819498062	None	None	None	None	1
2.7	2015_May_07_1415	s	s	5	4	SIC	332	ABS	2	1	02VD 10VO 02VC 02MD 02MO 02MC 02RD 02RO	0	1	1.91260790825	None	None	None	None	1
2.7	2015_May_07_1415	s	s	5	4	SIC	333	RC	1	2	02VD 02VO 02VC 09MD 02MO 02MC 02RD 02RO	1	0	0.959747076035	-178.0	-23.0	-183	-18	1
2.7	2015_May_07_1415	s	s	5	4	SIC	334	RC	2	1	02VD 09VO 02VC 02MD 02MO 02MC 02RD 02RO	1	0	1.44448304176	194.0	-404.0	194	-401	1
2.7	2015_May_07_1415	s	s	5	4	SIC	335	ABS	1	2	02VD 02VO 02VC 10MD 02MO 02MC 02RD 02RO	0	1	1.62408590317	None	None	None	None	1
2.7	2015_May_07_1415	s	s	5	4	SIC	336	RC	2	2	09VD 02VO 02VC 02MD 02MO 02MC 02RD 02RO	1	0	0.83168888092	111.0	174.0	113	171	1
2.7	2015_May_07_1415	s	s	5	4	SIC	337	ABS	2	0	02VD 02VO 10VC 02MD 02MO 02MC 02RD 02RO	0	1	2.04260993004	None	None	None	None	1
2.7	2015_May_07_1415	s	s	5	4	SIC	338	RC	2	2	09VD 02VO 02VC 02MD 02MO 02MC 02RD 02RO	1	0	1.63005614281	364.0	-265.0	366	-259	1
2.7	2015_May_07_1415	s	s	5	4	SIC	339	ABS	1	0	02VD 02VO 02VC 02MD 02MO 10MC 02RD 02RO	0	1	2.12986898422	None	None	None	None	1
2.7	2015_May_07_1415	s	s	5	4	SIC	340	ABS	2	2	10VD 02VO 02VC 02MD 02MO 02MC 02RD 02RO	0	1	1.70079088211	None	None	None	None	1
2.7	2015_May_07_1415	s	s	5	4	SIC	341	ABS	1	1	02VD 02VO 02VC 02MD 10MO 02MC 02RD 02RO	0	1	1.68251419067	None	None	None	None	1
2.7	2015_May_07_1415	s	s	5	4	SIC	342	ABS	0	1	02VD 02VO 02VC 02MD 02MO 02MC 02RD 10RO	0	1	7.25040411949	None	None	None	None	1
2.7	2015_May_07_1415	s	s	5	4	SIC	343	ABS	2	1	02VD 10VO 02VC 02MD 02MO 02MC 02RD 02RO	0	1	5.72740697861	None	None	None	None	1
2.7	2015_May_07_1415	s	s	5	4	SIC	344	RC	0	1	02VD 02VO 02VC 02MD 02MO 02MC 02RD 09RO	1	0	1.88268303871	150.0	-319.0	151	-313	1
2.7	2015_May_07_1415	s	s	5	4	SIC	345	RC	2	1	02VD 09VO 02VC 02MD 02MO 02MC 02RD 02RO	1	0	1.35047912598	-66.0	-384.0	-66	-392	1
2.7	2015_May_07_1415	s	s	5	4	SIC	346	RC	1	1	02VD 02VO 02VC 02MD 09MO 02MC 02RD 02RO	1	0	1.36251187325	-115.0	243.0	-114	247	1
2.7	2015_May_07_1415	s	s	5	4	SIC	347	ABS	0	2	02VD 02VO 02VC 02MD 02MO 02MC 10RD 02RO	0	1	2.46630501747	None	None	None	None	1
2.7	2015_May_07_1415	s	s	5	4	SIC	348	RC	2	0	02VD 02VO 09VC 02MD 02MO 02MC 02RD 02RO	1	0	2.27913689613	504.0	389.0	514	391	1
2.7	2015_May_07_1415	s	s	5	4	SIC	349	RC	1	2	02VD 02VO 02VC 09MD 02MO 02MC 02RD 02RO	1	0	0.818629980087	271.0	250.0	272	255	1
2.7	2015_May_07_1415	s	s	5	4	SIC	350	RC	0	2	02VD 02VO 02VC 02MD 02MO 02MC 09RD 02RO	1	0	0.843635797501	283.0	282.0	288	281	1
2.7	2015_May_07_1415	s	s	5	4	SIC	351	ABS	1	2	02VD 02VO 02VC 10MD 02MO 02MC 02RD 02RO	0	1	1.7832660675	None	None	None	None	1
2.7	2015_May_07_1415	s	s	5	4	SIC	352	RC	1	0	02VD 02VO 02VC 02MD 02MO 09MC 02RD 02RO	1	0	1.84733104706	-15.0	274.0	-13	281	1
2.7	2015_May_07_1415	s	s	5	4	SIC	353	ABS	2	1	02VD 10VO 02VC 02MD 02MO 02MC 02RD 02RO	0	1	1.95128011703	None	None	None	None	1
2.7	2015_May_07_1415	s	s	5	4	SIC	354	RC	1	2	02VD 02VO 02VC 09MD 02MO 02MC 02RD 02RO	1	0	1.34118795395	-170.0	-82.0	-174	-90	1
2.7	2015_May_07_1415	s	s	5	4	SIC	355	RC	1	0	02VD 02VO 02VC 02MD 02MO 09MC 02RD 02RO	1	0	1.0074160099	132.0	-70.0	136	-62	1
2.7	2015_May_07_1415	s	s	5	4	SIC	356	ABS	1	1	02VD 02VO 02VC 02MD 10MO 02MC 02RD 02RO	0	1	2.21928787231	None	None	None	None	1
2.7	2015_May_07_1415	s	s	5	4	SIC	357	RC	2	2	09VD 02VO 02VC 02MD 02MO 02MC 02RD 02RO	1	0	1.95329594612	-437.0	-369.0	-431	-368	1
2.7	2015_May_07_1415	s	s	5	4	SIC	358	RC	0	1	02VD 02VO 02VC 02MD 02MO 02MC 02RD 09RO	1	0	3.6246919632	-484.0	248.0	-479	252	1
2.7	2015_May_07_1415	s	s	5	4	SIC	359	ABS	2	2	10VD 02VO 02VC 02MD 02MO 02MC 02RD 02RO	0	1	2.17485785484	None	None	None	None	1
2.7	2015_May_07_1415	s	s	5	4	SIC	360	ABS	2	0	02VD 02VO 10VC 02MD 02MO 02MC 02RD 02RO	0	1	2.01924300194	None	None	None	None	1
2.7	2015_May_07_1415	s	s	5	4	SIC	361	ABS	0	2	02VD 02VO 02VC 02MD 02MO 02MC 10RD 02RO	0	1	2.62412381172	None	None	None	None	1
2.7	2015_May_07_1415	s	s	5	4	SIC	362	ABS	1	0	02VD 02VO 02VC 02MD 02MO 10MC 02RD 02RO	0	1	2.46663403511	None	None	None	None	1
2.7	2015_May_07_1415	s	s	5	4	SIC	363	ABS	1	2	02VD 02VO 02VC 10MD 02MO 02MC 02RD 02RO	0	1	2.34173798561	None	None	None	None	1
2.7	2015_May_07_1415	s	s	5	4	SIC	364	RC	1	1	02VD 02VO 02VC 02MD 09MO 02MC 02RD 02RO	1	0	1.1411190033	268.0	-296.0	271	-291	1
2.7	2015_May_07_1415	s	s	5	4	SIC	365	RC	0	2	02VD 02VO 02VC 02MD 02MO 02MC 09RD 02RO	1	0	1.32716393471	226.0	395.0	224	396	1
2.7	2015_May_07_1415	s	s	5	4	SIC	366	ABS	0	1	02VD 02VO 02VC 02MD 02MO 02MC 02RD 10RO	0	1	3.68135118484	None	None	None	None	1
2.7	2015_May_07_1415	s	s	5	4	SIC	367	RC	2	1	02VD 09VO 02VC 02MD 02MO 02MC 02RD 02RO	1	0	2.05921912193	-340.0	-349.0	-341	-350	1
2.7	2015_May_07_1415	s	s	5	4	SIC	368	RC	2	0	02VD 02VO 09VC 02MD 02MO 02MC 02RD 02RO	1	0	1.60016703606	-351.0	-300.0	-347	-302	1
2.7	2015_May_07_1415	s	s	5	4	SIC	369	ABS	2	0	02VD 02VO 10VC 02MD 02MO 02MC 02RD 02RO	0	1	2.47108006477	None	None	None	None	1
2.7	2015_May_07_1415	s	s	5	4	SIC	370	RC	1	1	02VD 02VO 02VC 02MD 09MO 02MC 02RD 02RO	1	0	0.929214000702	249.0	-184.0	250	-183	1
2.7	2015_May_07_1415	s	s	5	4	SIC	371	ABS	0	1	02VD 02VO 02VC 02MD 02MO 02MC 02RD 10RO	0	1	6.09639382362	None	None	None	None	1
2.7	2015_May_07_1415	s	s	5	4	SIC	372	ABS	2	1	02VD 10VO 02VC 02MD 02MO 02MC 02RD 02RO	0	1	2.56537795067	None	None	None	None	1
2.7	2015_May_07_1415	s	s	5	4	SIC	373	ABS	1	2	02VD 02VO 02VC 10MD 02MO 02MC 02RD 02RO	0	1	3.46591806412	None	None	None	None	1
2.7	2015_May_07_1415	s	s	5	4	SIC	374	RC	1	2	02VD 02VO 02VC 09MD 02MO 02MC 02RD 02RO	0	1	1.92575907707	-424.0	31.0	None	None	0
2.7	2015_May_07_1415	s	s	5	4	SIC	375	RC	2	2	09VD 02VO 02VC 02MD 02MO 02MC 02RD 02RO	1	0	1.45377707481	-477.0	-111.0	-474	-108	1
2.7	2015_May_07_1415	s	s	5	4	SIC	376	RC	2	0	02VD 02VO 09VC 02MD 02MO 02MC 02RD 02RO	1	0	2.30197286606	-189.0	-320.0	-187	-325	1
2.7	2015_May_07_1415	s	s	5	4	SIC	377	RC	0	2	02VD 02VO 02VC 02MD 02MO 02MC 09RD 02RO	1	0	0.762130975723	-50.0	-309.0	-46	-307	1
2.7	2015_May_07_1415	s	s	5	4	SIC	378	RC	1	0	02VD 02VO 02VC 02MD 02MO 09MC 02RD 02RO	1	0	2.3887360096	-213.0	-99.0	-203	-98	1
2.7	2015_May_07_1415	s	s	5	4	SIC	379	RC	0	1	02VD 02VO 02VC 02MD 02MO 02MC 02RD 09RO	1	0	1.14142394066	-1.0	-383.0	4	-383	1
2.7	2015_May_07_1415	s	s	5	4	SIC	380	ABS	2	2	10VD 02VO 02VC 02MD 02MO 02MC 02RD 02RO	0	1	5.36489319801	None	None	None	None	1
2.7	2015_May_07_1415	s	s	5	4	SIC	381	ABS	0	2	02VD 02VO 02VC 02MD 02MO 02MC 10RD 02RO	0	1	2.30329108238	None	None	None	None	1
2.7	2015_May_07_1415	s	s	5	4	SIC	382	RC	2	1	02VD 09VO 02VC 02MD 02MO 02MC 02RD 02RO	1	0	1.96509504318	-270.0	-129.0	-274	-126	1
2.7	2015_May_07_1415	s	s	5	4	SIC	383	ABS	1	1	02VD 02VO 02VC 02MD 10MO 02MC 02RD 02RO	0	1	3.45451998711	None	None	None	None	1
2.7	2015_May_07_1415	s	s	5	4	SIC	384	ABS	1	0	02VD 02VO 02VC 02MD 02MO 10MC 02RD 02RO	0	1	2.88324284554	None	None	None	None	1
2.7	2015_May_07_1415	s	s	5	4	SIC	385	RC	2	1	02VD 09VO 02VC 02MD 02MO 02MC 02RD 02RO	1	0	2.30161905289	299.0	292.0	292	287	1
2.7	2015_May_07_1415	s	s	5	4	SIC	386	ABS	1	0	02VD 02VO 02VC 02MD 02MO 10MC 02RD 02RO	0	1	4.07822394371	None	None	None	None	1
2.7	2015_May_07_1415	s	s	5	4	SIC	387	RC	0	1	02VD 02VO 02VC 02MD 02MO 02MC 02RD 09RO	1	0	1.13796687126	-426.0	-152.0	-423	-153	1
2.7	2015_May_07_1415	s	s	5	4	SIC	388	RC	2	2	09VD 02VO 02VC 02MD 02MO 02MC 02RD 02RO	1	0	1.18806815147	-376.0	150.0	-374	150	1
2.7	2015_May_07_1415	s	s	5	4	SIC	389	ABS	2	0	02VD 02VO 10VC 02MD 02MO 02MC 02RD 02RO	0	1	2.60723495483	None	None	None	None	1
2.7	2015_May_07_1415	s	s	5	4	SIC	390	RC	0	2	02VD 02VO 02VC 02MD 02MO 02MC 09RD 02RO	1	0	1.95306587219	164.0	377.0	169	381	1
2.7	2015_May_07_1415	s	s	5	4	SIC	391	RC	1	0	02VD 02VO 02VC 02MD 02MO 09MC 02RD 02RO	1	0	3.85796999931	-53.0	330.0	-52	327	1
2.7	2015_May_07_1415	s	s	5	4	SIC	392	ABS	1	2	02VD 02VO 02VC 10MD 02MO 02MC 02RD 02RO	0	1	2.23578190804	None	None	None	None	1
2.7	2015_May_07_1415	s	s	5	4	SIC	393	ABS	2	1	02VD 10VO 02VC 02MD 02MO 02MC 02RD 02RO	0	1	3.04267287254	None	None	None	None	1
2.7	2015_May_07_1415	s	s	5	4	SIC	394	ABS	0	1	02VD 02VO 02VC 02MD 02MO 02MC 02RD 10RO	0	1	14.6185369492	None	None	None	None	1
2.7	2015_May_07_1415	s	s	5	4	SIC	395	ABS	1	1	02VD 02VO 02VC 02MD 10MO 02MC 02RD 02RO	0	1	3.36364603043	None	None	None	None	1
2.7	2015_May_07_1415	s	s	5	4	SIC	396	RC	1	1	02VD 02VO 02VC 02MD 09MO 02MC 02RD 02RO	1	0	2.17713212967	206.0	-214.0	215	-213	1
2.7	2015_May_07_1415	s	s	5	4	SIC	397	ABS	2	2	10VD 02VO 02VC 02MD 02MO 02MC 02RD 02RO	0	1	2.05434584618	None	None	None	None	1
2.7	2015_May_07_1415	s	s	5	4	SIC	398	ABS	0	2	02VD 02VO 02VC 02MD 02MO 02MC 10RD 02RO	0	1	3.40916705132	None	None	None	None	1
2.7	2015_May_07_1415	s	s	5	4	SIC	399	RC	2	0	02VD 02VO 09VC 02MD 02MO 02MC 02RD 02RO	0	1	2.49481296539	-3.0	-409.0	None	None	0
2.7	2015_May_07_1415	s	s	5	4	SIC	400	RC	1	2	02VD 02VO 02VC 09MD 02MO 02MC 02RD 02RO	1	0	1.37166380882	359.0	277.0	365	279	1
2.7	2015_May_07_1415	s	s	5	4	SIC	401	ABS	2	2	10VD 02VO 02VC 02MD 02MO 02MC 02RD 02RO	0	1	3.29239797592	None	None	None	None	1
2.7	2015_May_07_1415	s	s	5	4	SIC	402	RC	0	1	02VD 02VO 02VC 02MD 02MO 02MC 02RD 09RO	1	0	2.09456205368	304.0	-364.0	308	-364	1
2.7	2015_May_07_1415	s	s	5	4	SIC	403	ABS	1	1	02VD 02VO 02VC 02MD 10MO 02MC 02RD 02RO	0	1	2.32414102554	None	None	None	None	1
2.7	2015_May_07_1415	s	s	5	4	SIC	404	ABS	1	2	02VD 02VO 02VC 10MD 02MO 02MC 02RD 02RO	0	1	1.86541414261	None	None	None	None	1
2.7	2015_May_07_1415	s	s	5	4	SIC	405	RC	1	0	02VD 02VO 02VC 02MD 02MO 09MC 02RD 02RO	1	0	1.55962204933	-177.0	-202.0	-182	-199	1
2.7	2015_May_07_1415	s	s	5	4	SIC	406	ABS	1	0	02VD 02VO 02VC 02MD 02MO 10MC 02RD 02RO	0	1	2.36526989937	None	None	None	None	1
2.7	2015_May_07_1415	s	s	5	4	SIC	407	ABS	0	2	02VD 02VO 02VC 02MD 02MO 02MC 10RD 02RO	0	1	3.25746917725	None	None	None	None	1
2.7	2015_May_07_1415	s	s	5	4	SIC	408	RC	1	1	02VD 02VO 02VC 02MD 09MO 02MC 02RD 02RO	1	0	2.43590188026	-426.0	-173.0	-422	-172	1
2.7	2015_May_07_1415	s	s	5	4	SIC	409	RC	2	2	09VD 02VO 02VC 02MD 02MO 02MC 02RD 02RO	1	0	1.72683000565	-19.0	-348.0	-14	-350	1
2.7	2015_May_07_1415	s	s	5	4	SIC	410	RC	2	0	02VD 02VO 09VC 02MD 02MO 02MC 02RD 02RO	1	0	1.52398395538	-98.0	-331.0	-97	-329	1
2.7	2015_May_07_1415	s	s	5	4	SIC	411	RC	1	2	02VD 02VO 02VC 09MD 02MO 02MC 02RD 02RO	1	0	1.65371012688	-459.0	114.0	-455	114	1
2.7	2015_May_07_1415	s	s	5	4	SIC	412	ABS	2	0	02VD 02VO 10VC 02MD 02MO 02MC 02RD 02RO	0	1	1.86585402489	None	None	None	None	1
2.7	2015_May_07_1415	s	s	5	4	SIC	413	RC	0	2	02VD 02VO 02VC 02MD 02MO 02MC 09RD 02RO	1	0	1.53821110725	-477.0	385.0	-482	378	1
2.7	2015_May_07_1415	s	s	5	4	SIC	414	ABS	0	1	02VD 02VO 02VC 02MD 02MO 02MC 02RD 10RO	0	1	2.84435296059	None	None	None	None	1
2.7	2015_May_07_1415	s	s	5	4	SIC	415	ABS	2	1	02VD 10VO 02VC 02MD 02MO 02MC 02RD 02RO	0	1	2.21206307411	None	None	None	None	1
2.7	2015_May_07_1415	s	s	5	4	SIC	416	RC	2	1	02VD 09VO 02VC 02MD 02MO 02MC 02RD 02RO	1	0	0.952637910843	-72.0	-245.0	-75	-250	1
2.7	2015_May_07_1415	s	s	5	4	SIC	417	RC	0	1	02VD 02VO 02VC 02MD 02MO 02MC 02RD 09RO	1	0	1.83185005188	253.0	95.0	248	92	1
2.7	2015_May_07_1415	s	s	5	4	SIC	418	ABS	2	2	10VD 02VO 02VC 02MD 02MO 02MC 02RD 02RO	1	0	3.50704908371	None	None	55	40	0
2.7	2015_May_07_1415	s	s	5	4	SIC	419	ABS	1	0	02VD 02VO 02VC 02MD 02MO 10MC 02RD 02RO	0	1	2.45947694778	None	None	None	None	1
2.7	2015_May_07_1415	s	s	5	4	SIC	420	ABS	0	1	02VD 02VO 02VC 02MD 02MO 02MC 02RD 10RO	0	1	4.44636893272	None	None	None	None	1
2.7	2015_May_07_1415	s	s	5	4	SIC	421	RC	2	2	09VD 02VO 02VC 02MD 02MO 02MC 02RD 02RO	1	0	1.51312398911	91.0	-96.0	93	-94	1
2.7	2015_May_07_1415	s	s	5	4	SIC	422	RC	1	1	02VD 02VO 02VC 02MD 09MO 02MC 02RD 02RO	1	0	1.78322291374	-496.0	-364.0	-499	-365	1
2.7	2015_May_07_1415	s	s	5	4	SIC	423	ABS	1	2	02VD 02VO 02VC 10MD 02MO 02MC 02RD 02RO	0	1	1.78874492645	None	None	None	None	1
2.7	2015_May_07_1415	s	s	5	4	SIC	424	ABS	2	0	02VD 02VO 10VC 02MD 02MO 02MC 02RD 02RO	0	1	2.53004002571	None	None	None	None	1
2.7	2015_May_07_1415	s	s	5	4	SIC	425	ABS	2	1	02VD 10VO 02VC 02MD 02MO 02MC 02RD 02RO	0	1	2.18912005424	None	None	None	None	1
2.7	2015_May_07_1415	s	s	5	4	SIC	426	ABS	1	1	02VD 02VO 02VC 02MD 10MO 02MC 02RD 02RO	0	1	1.93943095207	None	None	None	None	1
2.7	2015_May_07_1415	s	s	5	4	SIC	427	RC	2	0	02VD 02VO 09VC 02MD 02MO 02MC 02RD 02RO	1	0	1.48251008987	-197.0	-248.0	-199	-247	1
2.7	2015_May_07_1415	s	s	5	4	SIC	428	RC	1	2	02VD 02VO 02VC 09MD 02MO 02MC 02RD 02RO	1	0	1.40812301636	292.0	-214.0	293	-208	1
2.7	2015_May_07_1415	s	s	5	4	SIC	429	RC	1	0	02VD 02VO 02VC 02MD 02MO 09MC 02RD 02RO	1	0	2.32823419571	240.0	-233.0	243	-231	1
2.7	2015_May_07_1415	s	s	5	4	SIC	430	ABS	0	2	02VD 02VO 02VC 02MD 02MO 02MC 10RD 02RO	0	1	2.67790102959	None	None	None	None	1
2.7	2015_May_07_1415	s	s	5	4	SIC	431	RC	2	1	02VD 09VO 02VC 02MD 02MO 02MC 02RD 02RO	1	0	2.54180216789	32.0	-164.0	30	-168	1
2.7	2015_May_07_1415	s	s	5	4	SIC	432	RC	0	2	02VD 02VO 02VC 02MD 02MO 02MC 09RD 02RO	1	0	1.27059197426	-368.0	-97.0	-376	-96	1
2.7	2015_May_07_1415	s	s	5	4	SIC	433	ABS	0	2	02VD 02VO 02VC 02MD 02MO 02MC 10RD 02RO	0	1	2.4092130661	None	None	None	None	1
2.7	2015_May_07_1415	s	s	5	4	SIC	434	RC	1	0	02VD 02VO 02VC 02MD 02MO 09MC 02RD 02RO	1	0	4.64397716522	-107.0	233.0	-107	232	1
2.7	2015_May_07_1415	s	s	5	4	SIC	435	RC	0	1	02VD 02VO 02VC 02MD 02MO 02MC 02RD 09RO	1	0	1.0626308918	97.0	52.0	94	55	1
2.7	2015_May_07_1415	s	s	5	4	SIC	436	ABS	1	2	02VD 02VO 02VC 10MD 02MO 02MC 02RD 02RO	0	1	2.97253990173	None	None	None	None	1
2.7	2015_May_07_1415	s	s	5	4	SIC	437	RC	0	2	02VD 02VO 02VC 02MD 02MO 02MC 09RD 02RO	1	0	3.6788649559	-360.0	-85.0	-361	-88	1
2.7	2015_May_07_1415	s	s	5	4	SIC	438	RC	2	0	02VD 02VO 09VC 02MD 02MO 02MC 02RD 02RO	1	0	2.03254389763	-264.0	-271.0	-259	-271	1
2.7	2015_May_07_1415	s	s	5	4	SIC	439	RC	1	2	02VD 02VO 02VC 09MD 02MO 02MC 02RD 02RO	1	0	1.33701109886	-79.0	60.0	-79	66	1
2.7	2015_May_07_1415	s	s	5	4	SIC	440	ABS	2	2	10VD 02VO 02VC 02MD 02MO 02MC 02RD 02RO	0	1	2.00037693977	None	None	None	None	1
2.7	2015_May_07_1415	s	s	5	4	SIC	441	ABS	1	1	02VD 02VO 02VC 02MD 10MO 02MC 02RD 02RO	0	1	2.93014287949	None	None	None	None	1
2.7	2015_May_07_1415	s	s	5	4	SIC	442	ABS	0	1	02VD 02VO 02VC 02MD 02MO 02MC 02RD 10RO	0	1	4.64238405228	None	None	None	None	1
2.7	2015_May_07_1415	s	s	5	4	SIC	443	RC	2	2	09VD 02VO 02VC 02MD 02MO 02MC 02RD 02RO	1	0	2.42085194588	55.0	263.0	55	254	1
2.7	2015_May_07_1415	s	s	5	4	SIC	444	ABS	2	1	02VD 10VO 02VC 02MD 02MO 02MC 02RD 02RO	0	1	2.54175496101	None	None	None	None	1
2.7	2015_May_07_1415	s	s	5	4	SIC	445	ABS	2	0	02VD 02VO 10VC 02MD 02MO 02MC 02RD 02RO	0	1	1.49425506592	None	None	None	None	1
2.7	2015_May_07_1415	s	s	5	4	SIC	446	RC	1	1	02VD 02VO 02VC 02MD 09MO 02MC 02RD 02RO	1	0	1.57353687286	48.0	-26.0	57	-29	1
2.7	2015_May_07_1415	s	s	5	4	SIC	447	ABS	1	0	02VD 02VO 02VC 02MD 02MO 10MC 02RD 02RO	0	1	3.12709188461	None	None	None	None	1
2.7	2015_May_07_1415	s	s	5	4	SIC	448	RC	2	1	02VD 09VO 02VC 02MD 02MO 02MC 02RD 02RO	1	0	1.43533778191	213.0	-381.0	215	-377	1
2.7	2015_May_07_1415	s	s	5	4	SIC	449	ABS	1	2	02VD 02VO 02VC 10MD 02MO 02MC 02RD 02RO	0	1	1.8062479496	None	None	None	None	1
2.7	2015_May_07_1415	s	s	5	4	SIC	450	RC	1	2	02VD 02VO 02VC 09MD 02MO 02MC 02RD 02RO	1	0	1.65280103683	362.0	232.0	357	233	1
2.7	2015_May_07_1415	s	s	5	4	SIC	451	ABS	2	0	02VD 02VO 10VC 02MD 02MO 02MC 02RD 02RO	0	1	1.96287703514	None	None	None	None	1
2.7	2015_May_07_1415	s	s	5	4	SIC	452	ABS	0	1	02VD 02VO 02VC 02MD 02MO 02MC 02RD 10RO	0	1	5.35501909256	None	None	None	None	1
2.7	2015_May_07_1415	s	s	5	4	SIC	453	ABS	2	2	10VD 02VO 02VC 02MD 02MO 02MC 02RD 02RO	0	1	3.91891002655	None	None	None	None	1
2.7	2015_May_07_1415	s	s	5	4	SIC	454	RC	0	2	02VD 02VO 02VC 02MD 02MO 02MC 09RD 02RO	1	0	1.11259102821	2.0	-244.0	0	-244	1
2.7	2015_May_07_1415	s	s	5	4	SIC	455	ABS	0	2	02VD 02VO 02VC 02MD 02MO 02MC 10RD 02RO	0	1	1.68253397942	None	None	None	None	1
2.7	2015_May_07_1415	s	s	5	4	SIC	456	RC	2	0	02VD 02VO 09VC 02MD 02MO 02MC 02RD 02RO	1	0	1.52181196213	417.0	-257.0	424	-256	1
2.7	2015_May_07_1415	s	s	5	4	SIC	457	ABS	2	1	02VD 10VO 02VC 02MD 02MO 02MC 02RD 02RO	0	1	2.02394199371	None	None	None	None	1
2.7	2015_May_07_1415	s	s	5	4	SIC	458	ABS	1	1	02VD 02VO 02VC 02MD 10MO 02MC 02RD 02RO	0	1	3.99899792671	None	None	None	None	1
2.7	2015_May_07_1415	s	s	5	4	SIC	459	ABS	1	0	02VD 02VO 02VC 02MD 02MO 10MC 02RD 02RO	0	1	2.50146102905	None	None	None	None	1
2.7	2015_May_07_1415	s	s	5	4	SIC	460	RC	1	1	02VD 02VO 02VC 02MD 09MO 02MC 02RD 02RO	0	1	3.24583387375	422.0	-15.0	None	None	0
2.7	2015_May_07_1415	s	s	5	4	SIC	461	RC	2	2	09VD 02VO 02VC 02MD 02MO 02MC 02RD 02RO	1	0	1.08225178719	32.0	-47.0	37	-41	1
2.7	2015_May_07_1415	s	s	5	4	SIC	462	RC	0	1	02VD 02VO 02VC 02MD 02MO 02MC 02RD 09RO	0	1	3.90735292435	487.0	340.0	None	None	0
2.7	2015_May_07_1415	s	s	5	4	SIC	463	RC	1	0	02VD 02VO 02VC 02MD 02MO 09MC 02RD 02RO	1	0	1.11753892899	251.0	-58.0	252	-50	1
2.7	2015_May_07_1415	s	s	5	4	SIC	464	RC	2	1	02VD 09VO 02VC 02MD 02MO 02MC 02RD 02RO	1	0	1.44475698471	391.0	-257.0	386	-258	1
2.7	2015_May_07_1415	s	s	5	4	SIC	465	ABS	0	2	02VD 02VO 02VC 02MD 02MO 02MC 10RD 02RO	0	1	1.70122885704	None	None	None	None	1
2.7	2015_May_07_1415	s	s	5	4	SIC	466	RC	1	1	02VD 02VO 02VC 02MD 09MO 02MC 02RD 02RO	1	0	1.02119207382	-51.0	-304.0	-58	-308	1
2.7	2015_May_07_1415	s	s	5	4	SIC	467	ABS	1	0	02VD 02VO 02VC 02MD 02MO 10MC 02RD 02RO	0	1	2.52785205841	None	None	None	None	1
2.7	2015_May_07_1415	s	s	5	4	SIC	468	RC	1	0	02VD 02VO 02VC 02MD 02MO 09MC 02RD 02RO	1	0	0.664870977402	149.0	24.0	149	22	1
2.7	2015_May_07_1415	s	s	5	4	SIC	469	ABS	0	1	02VD 02VO 02VC 02MD 02MO 02MC 02RD 10RO	0	1	2.55352807045	None	None	None	None	1
2.7	2015_May_07_1415	s	s	5	4	SIC	470	ABS	2	2	10VD 02VO 02VC 02MD 02MO 02MC 02RD 02RO	0	1	1.89435386658	None	None	None	None	1
2.7	2015_May_07_1415	s	s	5	4	SIC	471	RC	1	2	02VD 02VO 02VC 09MD 02MO 02MC 02RD 02RO	1	0	1.16458201408	-213.0	359.0	-213	354	1
2.7	2015_May_07_1415	s	s	5	4	SIC	472	ABS	2	0	02VD 02VO 10VC 02MD 02MO 02MC 02RD 02RO	0	1	1.67735290527	None	None	None	None	1
2.7	2015_May_07_1415	s	s	5	4	SIC	473	RC	2	1	02VD 09VO 02VC 02MD 02MO 02MC 02RD 02RO	0	1	2.31816387177	323.0	319.0	None	None	0
2.7	2015_May_07_1415	s	s	5	4	SIC	474	RC	0	1	02VD 02VO 02VC 02MD 02MO 02MC 02RD 09RO	1	0	2.94829106331	-303.0	253.0	-304	252	1
2.7	2015_May_07_1415	s	s	5	4	SIC	475	RC	2	0	02VD 02VO 09VC 02MD 02MO 02MC 02RD 02RO	1	0	1.36469006538	-394.0	-240.0	-391	-234	1
2.7	2015_May_07_1415	s	s	5	4	SIC	476	RC	2	2	09VD 02VO 02VC 02MD 02MO 02MC 02RD 02RO	1	0	1.30274391174	-224.0	-134.0	-227	-127	1
2.7	2015_May_07_1415	s	s	5	4	SIC	477	ABS	1	2	02VD 02VO 02VC 10MD 02MO 02MC 02RD 02RO	0	1	2.20825505257	None	None	None	None	1
2.7	2015_May_07_1415	s	s	5	4	SIC	478	RC	0	2	02VD 02VO 02VC 02MD 02MO 02MC 09RD 02RO	1	0	1.07049608231	135.0	-172.0	142	-176	1
2.7	2015_May_07_1415	s	s	5	4	SIC	479	ABS	1	1	02VD 02VO 02VC 02MD 10MO 02MC 02RD 02RO	0	1	4.11893391609	None	None	None	None	1
2.7	2015_May_07_1415	s	s	5	4	SIC	480	ABS	2	1	02VD 10VO 02VC 02MD 02MO 02MC 02RD 02RO	0	1	2.67833805084	None	None	None	None	1
