Version	Date	Stimuli	Method	Subject	Session	Condition	Trial	Target	Channel1	Channel2	Distractors	LMouseButton	RMouseButton	RT	TargetX	TargetY	ResponseX	ResponseY	Correct
2.7	2015_May_08_1446	s	s	6	5	Capacity	1	RC	0	2	15RD 08RO	1	0	0.623143911362	-150.0	366.0	-140	365	1
2.7	2015_May_08_1446	s	s	6	5	Capacity	2	ABS	0	1	08RD 16RO	0	1	3.61320900917	None	None	None	None	1
2.7	2015_May_08_1446	s	s	6	5	Capacity	3	ABS	0	2	16RD 08RO	0	1	2.41233205795	None	None	None	None	1
2.7	2015_May_08_1446	s	s	6	5	Capacity	4	RC	0	1	08RD 15RO	1	0	1.15935206413	-510.0	355.0	-513	354	1
2.7	2015_May_08_1446	s	s	6	5	Capacity	5	ABS	0	1	08RD 16RO	0	1	3.50698804855	None	None	None	None	1
2.7	2015_May_08_1446	s	s	6	5	Capacity	6	ABS	0	2	16RD 08RO	0	1	2.25930595398	None	None	None	None	1
2.7	2015_May_08_1446	s	s	6	5	Capacity	7	RC	0	1	08RD 15RO	1	0	2.00722408295	445.0	-237.0	449	-235	1
2.7	2015_May_08_1446	s	s	6	5	Capacity	8	RC	0	2	15RD 08RO	1	0	0.917438983917	-338.0	-36.0	-334	-46	1
2.7	2015_May_08_1446	s	s	6	5	Capacity	9	RC	0	1	08RD 15RO	1	0	3.17426085472	536.0	-180.0	541	-179	1
2.7	2015_May_08_1446	s	s	6	5	Capacity	10	ABS	0	1	08RD 16RO	0	1	4.81345295906	None	None	None	None	1
2.7	2015_May_08_1446	s	s	6	5	Capacity	11	ABS	0	2	16RD 08RO	0	1	2.71349096298	None	None	None	None	1
2.7	2015_May_08_1446	s	s	6	5	Capacity	12	RC	0	2	15RD 08RO	1	0	1.24703907967	-219.0	-192.0	-218	-197	1
2.7	2015_May_08_1446	s	s	6	5	Capacity	13	RC	0	1	08RD 15RO	1	0	0.962323188782	207.0	-261.0	208	-265	1
2.7	2015_May_08_1446	s	s	6	5	Capacity	14	ABS	0	2	16RD 08RO	0	1	2.48030090332	None	None	None	None	1
2.7	2015_May_08_1446	s	s	6	5	Capacity	15	ABS	0	1	08RD 16RO	0	1	6.17335796356	None	None	None	None	1
2.7	2015_May_08_1446	s	s	6	5	Capacity	16	RC	0	2	15RD 08RO	1	0	1.37423419952	421.0	-216.0	426	-226	1
2.7	2015_May_08_1446	s	s	6	5	Capacity	17	ABS	0	2	16RD 08RO	0	1	2.65951609612	None	None	None	None	1
2.7	2015_May_08_1446	s	s	6	5	Capacity	18	RC	0	1	08RD 15RO	1	0	2.28286290169	537.0	14.0	527	19	1
2.7	2015_May_08_1446	s	s	6	5	Capacity	19	RC	0	2	15RD 08RO	1	0	0.599620103836	220.0	335.0	220	336	1
2.7	2015_May_08_1446	s	s	6	5	Capacity	20	ABS	0	1	08RD 16RO	0	1	3.97774291039	None	None	None	None	1
2.7	2015_May_08_1446	s	s	6	5	Capacity	21	RC	0	1	08RD 15RO	1	0	0.830451011658	439.0	209.0	440	209	1
2.7	2015_May_08_1446	s	s	6	5	Capacity	22	ABS	0	1	08RD 16RO	0	1	3.91145014763	None	None	None	None	1
2.7	2015_May_08_1446	s	s	6	5	Capacity	23	RC	0	2	15RD 08RO	1	0	1.11276507378	-125.0	85.0	-136	94	1
2.7	2015_May_08_1446	s	s	6	5	Capacity	24	ABS	0	2	16RD 08RO	0	1	2.92512488365	None	None	None	None	1
2.7	2015_May_08_1446	s	s	6	5	Capacity	25	RC	0	2	15RD 08RO	1	0	1.3530459404	-93.0	-232.0	-89	-242	1
2.7	2015_May_08_1446	s	s	6	5	Capacity	26	RC	0	1	08RD 15RO	1	0	0.573843955994	125.0	347.0	124	338	1
2.7	2015_May_08_1446	s	s	6	5	Capacity	27	ABS	0	2	16RD 08RO	0	1	3.22433996201	None	None	None	None	1
2.7	2015_May_08_1446	s	s	6	5	Capacity	28	ABS	0	1	08RD 16RO	0	1	5.38544797897	None	None	None	None	1
2.7	2015_May_08_1446	s	s	6	5	Capacity	29	ABS	0	2	16RD 08RO	0	1	2.71328997612	None	None	None	None	1
2.7	2015_May_08_1446	s	s	6	5	Capacity	30	RC	0	1	08RD 15RO	1	0	0.717284917831	-109.0	23.0	-101	28	1
2.7	2015_May_08_1446	s	s	6	5	Capacity	31	RC	0	2	15RD 08RO	1	0	0.756512880325	146.0	311.0	144	305	1
2.7	2015_May_08_1446	s	s	6	5	Capacity	32	ABS	0	1	08RD 16RO	0	1	4.89093804359	None	None	None	None	1
2.7	2015_May_08_1446	s	s	6	5	Capacity	33	ABS	0	2	16RD 08RO	0	1	2.63598489761	None	None	None	None	1
2.7	2015_May_08_1446	s	s	6	5	Capacity	34	RC	0	2	15RD 08RO	1	0	1.43017506599	290.0	-342.0	295	-347	1
2.7	2015_May_08_1446	s	s	6	5	Capacity	35	ABS	0	1	08RD 16RO	0	1	3.78444099426	None	None	None	None	1
2.7	2015_May_08_1446	s	s	6	5	Capacity	36	RC	0	1	08RD 15RO	1	0	1.00868296623	152.0	-410.0	159	-417	1
2.7	2015_May_08_1446	s	s	6	5	Capacity	37	RC	0	1	08RD 15RO	1	0	3.05701518059	107.0	-1.0	102	7	1
2.7	2015_May_08_1446	s	s	6	5	Capacity	38	ABS	0	2	16RD 08RO	0	1	2.3888168335	None	None	None	None	1
2.7	2015_May_08_1446	s	s	6	5	Capacity	39	RC	0	2	15RD 08RO	1	0	2.24390912056	-504.0	-181.0	-514	-183	1
2.7	2015_May_08_1446	s	s	6	5	Capacity	40	ABS	0	1	08RD 16RO	0	1	4.26705694199	None	None	None	None	1
2.7	2015_May_08_1446	s	s	6	5	Capacity	41	ABS	0	1	08RD 16RO	0	1	3.82174301147	None	None	None	None	1
2.7	2015_May_08_1446	s	s	6	5	Capacity	42	RC	0	1	08RD 15RO	1	0	0.964703083038	325.0	29.0	317	30	1
2.7	2015_May_08_1446	s	s	6	5	Capacity	43	ABS	0	2	16RD 08RO	0	1	2.23090004921	None	None	None	None	1
2.7	2015_May_08_1446	s	s	6	5	Capacity	44	RC	0	2	15RD 08RO	1	0	0.693707942963	276.0	142.0	273	147	1
2.7	2015_May_08_1446	s	s	6	5	Capacity	45	ABS	0	2	16RD 08RO	0	1	2.36029887199	None	None	None	None	1
2.7	2015_May_08_1446	s	s	6	5	Capacity	46	ABS	0	1	08RD 16RO	0	1	3.15388321877	None	None	None	None	1
2.7	2015_May_08_1446	s	s	6	5	Capacity	47	RC	0	1	08RD 15RO	1	0	2.1602139473	-193.0	220.0	-196	228	1
2.7	2015_May_08_1446	s	s	6	5	Capacity	48	RC	0	2	15RD 08RO	1	0	1.03518891335	358.0	2.0	358	4	1
2.7	2015_May_08_1446	s	s	6	5	Capacity	49	ABS	0	2	16RD 08RO	0	1	2.18849205971	None	None	None	None	1
2.7	2015_May_08_1446	s	s	6	5	Capacity	50	RC	0	1	08RD 15RO	1	0	0.877804994583	227.0	332.0	233	330	1
2.7	2015_May_08_1446	s	s	6	5	Capacity	51	ABS	0	1	08RD 16RO	0	1	4.12597203255	None	None	None	None	1
2.7	2015_May_08_1446	s	s	6	5	Capacity	52	RC	0	2	15RD 08RO	1	0	2.18872094154	12.0	389.0	14	387	1
2.7	2015_May_08_1446	s	s	6	5	Capacity	53	RC	0	1	08RD 15RO	1	0	1.30274105072	224.0	-144.0	217	-142	1
2.7	2015_May_08_1446	s	s	6	5	Capacity	54	RC	0	2	15RD 08RO	1	0	2.62410211563	-368.0	-173.0	-372	-168	1
2.7	2015_May_08_1446	s	s	6	5	Capacity	55	ABS	0	1	08RD 16RO	0	1	3.96270608902	None	None	None	None	1
2.7	2015_May_08_1446	s	s	6	5	Capacity	56	ABS	0	2	16RD 08RO	0	1	2.4570748806	None	None	None	None	1
2.7	2015_May_08_1446	s	s	6	5	Capacity	57	ABS	0	2	16RD 08RO	0	1	2.37703990936	None	None	None	None	1
2.7	2015_May_08_1446	s	s	6	5	Capacity	58	ABS	0	1	08RD 16RO	0	1	3.85773587227	None	None	None	None	1
2.7	2015_May_08_1446	s	s	6	5	Capacity	59	RC	0	1	08RD 15RO	1	0	2.34953808784	-355.0	-32.0	-357	-31	1
2.7	2015_May_08_1446	s	s	6	5	Capacity	60	RC	0	2	15RD 08RO	1	0	2.82431507111	-485.0	-332.0	-483	-330	1
2.7	2015_May_08_1446	s	s	6	5	Capacity	61	RC	0	1	08RD 15RO	1	0	1.93677616119	-253.0	-183.0	-251	-196	1
2.7	2015_May_08_1446	s	s	6	5	Capacity	62	ABS	0	2	16RD 08RO	0	1	1.94149708748	None	None	None	None	1
2.7	2015_May_08_1446	s	s	6	5	Capacity	63	ABS	0	1	08RD 16RO	0	1	4.34271502495	None	None	None	None	1
2.7	2015_May_08_1446	s	s	6	5	Capacity	64	RC	0	2	15RD 08RO	1	0	0.911551952362	237.0	131.0	237	133	1
2.7	2015_May_08_1446	s	s	6	5	Capacity	1	RC	2	0	15VC 08MC	1	0	0.713840961456	524.0	106.0	531	106	1
2.7	2015_May_08_1446	s	s	6	5	Capacity	2	ABS	2	0	16VC 08MC	0	1	1.77681207657	None	None	None	None	1
2.7	2015_May_08_1446	s	s	6	5	Capacity	3	ABS	1	0	08VC 16MC	0	1	2.36525917053	None	None	None	None	1
2.7	2015_May_08_1446	s	s	6	5	Capacity	4	RC	1	0	08VC 15MC	1	0	0.740948915482	-59.0	149.0	-73	156	1
2.7	2015_May_08_1446	s	s	6	5	Capacity	5	ABS	2	0	16VC 08MC	0	1	1.8002178669	None	None	None	None	1
2.7	2015_May_08_1446	s	s	6	5	Capacity	6	ABS	1	0	08VC 16MC	0	1	2.15338397026	None	None	None	None	1
2.7	2015_May_08_1446	s	s	6	5	Capacity	7	RC	1	0	08VC 15MC	1	0	0.740911960602	-185.0	212.0	-187	209	1
2.7	2015_May_08_1446	s	s	6	5	Capacity	8	RC	2	0	15VC 08MC	1	0	1.2422170639	-516.0	151.0	-522	156	1
2.7	2015_May_08_1446	s	s	6	5	Capacity	9	RC	1	0	08VC 15MC	1	0	1.05388212204	456.0	-380.0	445	-379	1
2.7	2015_May_08_1446	s	s	6	5	Capacity	10	ABS	1	0	08VC 16MC	0	1	1.97683596611	None	None	None	None	1
2.7	2015_May_08_1446	s	s	6	5	Capacity	11	ABS	2	0	16VC 08MC	0	1	1.64239597321	None	None	None	None	1
2.7	2015_May_08_1446	s	s	6	5	Capacity	12	RC	2	0	15VC 08MC	1	0	0.781897068024	62.0	339.0	72	339	1
2.7	2015_May_08_1446	s	s	6	5	Capacity	13	ABS	1	0	08VC 16MC	0	1	2.25447797775	None	None	None	None	1
2.7	2015_May_08_1446	s	s	6	5	Capacity	14	RC	2	0	15VC 08MC	1	0	1.04666686058	321.0	-98.0	315	-93	1
2.7	2015_May_08_1446	s	s	6	5	Capacity	15	ABS	2	0	16VC 08MC	0	1	2.93029308319	None	None	None	None	1
2.7	2015_May_08_1446	s	s	6	5	Capacity	16	RC	1	0	08VC 15MC	1	0	0.537689208984	179.0	32.0	171	35	1
2.7	2015_May_08_1446	s	s	6	5	Capacity	17	RC	1	0	08VC 15MC	1	0	1.4235470295	-80.0	-190.0	-78	-187	1
2.7	2015_May_08_1446	s	s	6	5	Capacity	18	RC	2	0	15VC 08MC	1	0	1.03121590614	-90.0	399.0	-99	404	1
2.7	2015_May_08_1446	s	s	6	5	Capacity	19	ABS	2	0	16VC 08MC	0	1	2.4199450016	None	None	None	None	1
2.7	2015_May_08_1446	s	s	6	5	Capacity	20	ABS	1	0	08VC 16MC	0	1	1.79495787621	None	None	None	None	1
2.7	2015_May_08_1446	s	s	6	5	Capacity	21	RC	2	0	15VC 08MC	1	0	1.01148796082	-473.0	40.0	-476	45	1
2.7	2015_May_08_1446	s	s	6	5	Capacity	22	ABS	2	0	16VC 08MC	0	1	1.41971707344	None	None	None	None	1
2.7	2015_May_08_1446	s	s	6	5	Capacity	23	ABS	1	0	08VC 16MC	0	1	2.16504406929	None	None	None	None	1
2.7	2015_May_08_1446	s	s	6	5	Capacity	24	RC	1	0	08VC 15MC	1	0	0.641855955124	53.0	206.0	50	210	1
2.7	2015_May_08_1446	s	s	6	5	Capacity	25	RC	1	0	08VC 15MC	1	0	0.750574827194	438.0	-168.0	446	-170	1
2.7	2015_May_08_1446	s	s	6	5	Capacity	26	ABS	1	0	08VC 16MC	0	1	2.35731720924	None	None	None	None	1
2.7	2015_May_08_1446	s	s	6	5	Capacity	27	RC	2	0	15VC 08MC	1	0	0.489868164062	59.0	115.0	60	108	1
2.7	2015_May_08_1446	s	s	6	5	Capacity	28	ABS	2	0	16VC 08MC	0	1	2.21914696693	None	None	None	None	1
2.7	2015_May_08_1446	s	s	6	5	Capacity	29	RC	2	0	15VC 08MC	1	0	0.926129102707	-359.0	-29.0	-355	-32	1
2.7	2015_May_08_1446	s	s	6	5	Capacity	30	ABS	1	0	08VC 16MC	0	1	1.99723100662	None	None	None	None	1
2.7	2015_May_08_1446	s	s	6	5	Capacity	31	ABS	2	0	16VC 08MC	0	1	2.15373110771	None	None	None	None	1
2.7	2015_May_08_1446	s	s	6	5	Capacity	32	RC	1	0	08VC 15MC	1	0	0.935388088226	-503.0	165.0	-499	168	1
2.7	2015_May_08_1446	s	s	6	5	Capacity	33	ABS	1	0	08VC 16MC	0	1	1.49425005913	None	None	None	None	1
2.7	2015_May_08_1446	s	s	6	5	Capacity	34	RC	1	0	08VC 15MC	1	0	1.48245310783	380.0	-405.0	388	-404	1
2.7	2015_May_08_1446	s	s	6	5	Capacity	35	RC	2	0	15VC 08MC	1	0	0.808116912842	-180.0	-245.0	-173	-249	1
2.7	2015_May_08_1446	s	s	6	5	Capacity	36	ABS	2	0	16VC 08MC	0	1	1.40008187294	None	None	None	None	1
2.7	2015_May_08_1446	s	s	6	5	Capacity	37	RC	1	0	08VC 15MC	1	0	0.747761964798	185.0	-253.0	186	-244	1
2.7	2015_May_08_1446	s	s	6	5	Capacity	38	RC	2	0	15VC 08MC	1	0	0.711874961853	-115.0	337.0	-119	334	1
2.7	2015_May_08_1446	s	s	6	5	Capacity	39	ABS	2	0	16VC 08MC	0	1	2.42034292221	None	None	None	None	1
2.7	2015_May_08_1446	s	s	6	5	Capacity	40	ABS	1	0	08VC 16MC	0	1	2.57699298859	None	None	None	None	1
2.7	2015_May_08_1446	s	s	6	5	Capacity	41	ABS	2	0	16VC 08MC	1	0	0.858553886414	None	None	-221	-111	0
2.7	2015_May_08_1446	s	s	6	5	Capacity	42	ABS	1	0	08VC 16MC	0	1	4.47217607498	None	None	None	None	1
2.7	2015_May_08_1446	s	s	6	5	Capacity	43	RC	2	0	15VC 08MC	1	0	0.524189949036	-41.0	67.0	-49	72	1
2.7	2015_May_08_1446	s	s	6	5	Capacity	44	RC	1	0	08VC 15MC	1	0	0.7503490448	355.0	371.0	354	379	1
2.7	2015_May_08_1446	s	s	6	5	Capacity	45	ABS	1	0	08VC 16MC	0	1	1.94143390656	None	None	None	None	1
2.7	2015_May_08_1446	s	s	6	5	Capacity	46	ABS	2	0	16VC 08MC	0	1	3.8013010025	None	None	None	None	1
2.7	2015_May_08_1446	s	s	6	5	Capacity	47	RC	1	0	08VC 15MC	1	0	0.889055013657	-462.0	2.0	-458	7	1
2.7	2015_May_08_1446	s	s	6	5	Capacity	48	RC	2	0	15VC 08MC	1	0	1.20379495621	425.0	374.0	425	371	1
2.7	2015_May_08_1446	s	s	6	5	Capacity	49	RC	2	0	15VC 08MC	1	0	0.72710609436	118.0	310.0	123	304	1
2.7	2015_May_08_1446	s	s	6	5	Capacity	50	ABS	2	0	16VC 08MC	0	1	1.4187810421	None	None	None	None	1
2.7	2015_May_08_1446	s	s	6	5	Capacity	51	RC	1	0	08VC 15MC	1	0	0.705554962158	-5.0	386.0	-2	386	1
2.7	2015_May_08_1446	s	s	6	5	Capacity	52	ABS	1	0	08VC 16MC	0	1	1.78620576859	None	None	None	None	1
2.7	2015_May_08_1446	s	s	6	5	Capacity	53	RC	1	0	08VC 15MC	1	0	0.811504840851	522.0	-140.0	532	-136	1
2.7	2015_May_08_1446	s	s	6	5	Capacity	54	ABS	2	0	16VC 08MC	0	1	1.50390005112	None	None	None	None	1
2.7	2015_May_08_1446	s	s	6	5	Capacity	55	ABS	1	0	08VC 16MC	0	1	2.72602796555	None	None	None	None	1
2.7	2015_May_08_1446	s	s	6	5	Capacity	56	RC	2	0	15VC 08MC	1	0	0.677207946777	366.0	-224.0	366	-226	1
2.7	2015_May_08_1446	s	s	6	5	Capacity	57	ABS	1	0	08VC 16MC	0	1	2.16313910484	None	None	None	None	1
2.7	2015_May_08_1446	s	s	6	5	Capacity	58	ABS	2	0	16VC 08MC	0	1	3.52828288078	None	None	None	None	1
2.7	2015_May_08_1446	s	s	6	5	Capacity	59	RC	1	0	08VC 15MC	1	0	2.24535894394	-525.0	-12.0	-540	-6	1
2.7	2015_May_08_1446	s	s	6	5	Capacity	60	RC	2	0	15VC 08MC	1	0	1.48880791664	-75.0	-202.0	-69	-202	1
2.7	2015_May_08_1446	s	s	6	5	Capacity	61	RC	1	0	08VC 15MC	1	0	0.787967920303	-197.0	112.0	-200	105	1
2.7	2015_May_08_1446	s	s	6	5	Capacity	62	ABS	1	0	08VC 16MC	0	1	1.77447485924	None	None	None	None	1
2.7	2015_May_08_1446	s	s	6	5	Capacity	63	RC	2	0	15VC 08MC	1	0	0.964530944824	498.0	-194.0	507	-188	1
2.7	2015_May_08_1446	s	s	6	5	Capacity	64	ABS	2	0	16VC 08MC	0	1	1.53641986847	None	None	None	None	1
2.7	2015_May_08_1446	s	s	6	5	SIC	1	ABS	0	2	02VD 02VO 02VC 02MD 02MO 02MC 10RD 02RO	0	1	2.5103468895	None	None	None	None	1
2.7	2015_May_08_1446	s	s	6	5	SIC	2	RC	0	2	02VD 02VO 02VC 02MD 02MO 02MC 09RD 02RO	1	0	1.3245279789	220.0	-285.0	218	-282	1
2.7	2015_May_08_1446	s	s	6	5	SIC	3	ABS	2	0	02VD 02VO 10VC 02MD 02MO 02MC 02RD 02RO	0	1	1.98308706284	None	None	None	None	1
2.7	2015_May_08_1446	s	s	6	5	SIC	4	RC	0	1	02VD 02VO 02VC 02MD 02MO 02MC 02RD 09RO	1	0	1.76528096199	-441.0	165.0	-440	162	1
2.7	2015_May_08_1446	s	s	6	5	SIC	5	RC	1	1	02VD 02VO 02VC 02MD 09MO 02MC 02RD 02RO	1	0	0.618487119675	99.0	122.0	105	125	1
2.7	2015_May_08_1446	s	s	6	5	SIC	6	ABS	0	1	02VD 02VO 02VC 02MD 02MO 02MC 02RD 10RO	0	1	3.04793691635	None	None	None	None	1
2.7	2015_May_08_1446	s	s	6	5	SIC	7	ABS	2	1	02VD 10VO 02VC 02MD 02MO 02MC 02RD 02RO	0	1	1.5247900486	None	None	None	None	1
2.7	2015_May_08_1446	s	s	6	5	SIC	8	RC	2	0	02VD 02VO 09VC 02MD 02MO 02MC 02RD 02RO	1	0	0.882024049759	414.0	188.0	416	186	1
2.7	2015_May_08_1446	s	s	6	5	SIC	9	ABS	1	2	02VD 02VO 02VC 10MD 02MO 02MC 02RD 02RO	0	1	1.24701309204	None	None	None	None	1
2.7	2015_May_08_1446	s	s	6	5	SIC	10	RC	2	2	09VD 02VO 02VC 02MD 02MO 02MC 02RD 02RO	1	0	0.823747158051	171.0	404.0	169	399	1
2.7	2015_May_08_1446	s	s	6	5	SIC	11	RC	2	1	02VD 09VO 02VC 02MD 02MO 02MC 02RD 02RO	1	0	1.52151894569	-430.0	-41.0	-435	-41	1
2.7	2015_May_08_1446	s	s	6	5	SIC	12	ABS	1	1	02VD 02VO 02VC 02MD 10MO 02MC 02RD 02RO	0	1	2.20740795135	None	None	None	None	1
2.7	2015_May_08_1446	s	s	6	5	SIC	13	RC	1	0	02VD 02VO 02VC 02MD 02MO 09MC 02RD 02RO	1	0	1.97176289558	-352.0	-293.0	-348	-294	1
2.7	2015_May_08_1446	s	s	6	5	SIC	14	RC	1	2	02VD 02VO 02VC 09MD 02MO 02MC 02RD 02RO	1	0	0.80660700798	-260.0	202.0	-266	200	1
2.7	2015_May_08_1446	s	s	6	5	SIC	15	ABS	2	2	10VD 02VO 02VC 02MD 02MO 02MC 02RD 02RO	0	1	1.60017704964	None	None	None	None	1
2.7	2015_May_08_1446	s	s	6	5	SIC	16	ABS	1	0	02VD 02VO 02VC 02MD 02MO 10MC 02RD 02RO	0	1	2.53691101074	None	None	None	None	1
2.7	2015_May_08_1446	s	s	6	5	SIC	17	RC	2	2	09VD 02VO 02VC 02MD 02MO 02MC 02RD 02RO	1	0	1.51439499855	-99.0	-251.0	-97	-245	1
2.7	2015_May_08_1446	s	s	6	5	SIC	18	ABS	2	1	02VD 10VO 02VC 02MD 02MO 02MC 02RD 02RO	0	1	1.4941971302	None	None	None	None	1
2.7	2015_May_08_1446	s	s	6	5	SIC	19	RC	2	1	02VD 09VO 02VC 02MD 02MO 02MC 02RD 02RO	1	0	0.914851903915	330.0	-173.0	328	-169	1
2.7	2015_May_08_1446	s	s	6	5	SIC	20	ABS	2	0	02VD 02VO 10VC 02MD 02MO 02MC 02RD 02RO	0	1	1.32469105721	None	None	None	None	1
2.7	2015_May_08_1446	s	s	6	5	SIC	21	RC	1	0	02VD 02VO 02VC 02MD 02MO 09MC 02RD 02RO	1	0	0.539182186127	15.0	191.0	4	199	1
2.7	2015_May_08_1446	s	s	6	5	SIC	22	RC	1	2	02VD 02VO 02VC 09MD 02MO 02MC 02RD 02RO	1	0	0.512368917465	101.0	166.0	99	161	1
2.7	2015_May_08_1446	s	s	6	5	SIC	23	RC	0	2	02VD 02VO 02VC 02MD 02MO 02MC 09RD 02RO	1	0	1.28923010826	417.0	221.0	420	215	1
2.7	2015_May_08_1446	s	s	6	5	SIC	24	RC	1	1	02VD 02VO 02VC 02MD 09MO 02MC 02RD 02RO	1	0	1.15059494972	-328.0	-221.0	-328	-231	1
2.7	2015_May_08_1446	s	s	6	5	SIC	25	ABS	0	2	02VD 02VO 02VC 02MD 02MO 02MC 10RD 02RO	0	1	1.13558387756	None	None	None	None	1
2.7	2015_May_08_1446	s	s	6	5	SIC	26	ABS	1	1	02VD 02VO 02VC 02MD 10MO 02MC 02RD 02RO	0	1	2.07097911835	None	None	None	None	1
2.7	2015_May_08_1446	s	s	6	5	SIC	27	ABS	0	1	02VD 02VO 02VC 02MD 02MO 02MC 02RD 10RO	0	1	3.38706183434	None	None	None	None	1
2.7	2015_May_08_1446	s	s	6	5	SIC	28	RC	0	1	02VD 02VO 02VC 02MD 02MO 02MC 02RD 09RO	1	0	1.15288496017	501.0	-86.0	500	-84	1
2.7	2015_May_08_1446	s	s	6	5	SIC	29	ABS	2	2	10VD 02VO 02VC 02MD 02MO 02MC 02RD 02RO	0	1	1.92491483688	None	None	None	None	1
2.7	2015_May_08_1446	s	s	6	5	SIC	30	ABS	1	2	02VD 02VO 02VC 10MD 02MO 02MC 02RD 02RO	0	1	1.67751383781	None	None	None	None	1
2.7	2015_May_08_1446	s	s	6	5	SIC	31	ABS	1	0	02VD 02VO 02VC 02MD 02MO 10MC 02RD 02RO	0	1	2.65950894356	None	None	None	None	1
2.7	2015_May_08_1446	s	s	6	5	SIC	32	RC	2	0	02VD 02VO 09VC 02MD 02MO 02MC 02RD 02RO	1	0	0.700737953186	-162.0	305.0	-167	297	1
2.7	2015_May_08_1446	s	s	6	5	SIC	33	ABS	2	1	02VD 10VO 02VC 02MD 02MO 02MC 02RD 02RO	0	1	2.22438287735	None	None	None	None	1
2.7	2015_May_08_1446	s	s	6	5	SIC	34	ABS	2	2	10VD 02VO 02VC 02MD 02MO 02MC 02RD 02RO	0	1	1.62376189232	None	None	None	None	1
2.7	2015_May_08_1446	s	s	6	5	SIC	35	ABS	0	2	02VD 02VO 02VC 02MD 02MO 02MC 10RD 02RO	0	1	2.259526968	None	None	None	None	1
2.7	2015_May_08_1446	s	s	6	5	SIC	36	ABS	1	2	02VD 02VO 02VC 10MD 02MO 02MC 02RD 02RO	0	1	1.98366308212	None	None	None	None	1
2.7	2015_May_08_1446	s	s	6	5	SIC	37	ABS	1	0	02VD 02VO 02VC 02MD 02MO 10MC 02RD 02RO	0	1	3.3728787899	None	None	None	None	1
2.7	2015_May_08_1446	s	s	6	5	SIC	38	ABS	0	1	02VD 02VO 02VC 02MD 02MO 02MC 02RD 10RO	0	1	4.349640131	None	None	None	None	1
2.7	2015_May_08_1446	s	s	6	5	SIC	39	RC	1	1	02VD 02VO 02VC 02MD 09MO 02MC 02RD 02RO	1	0	0.53288602829	-130.0	126.0	-130	119	1
2.7	2015_May_08_1446	s	s	6	5	SIC	40	RC	1	2	02VD 02VO 02VC 09MD 02MO 02MC 02RD 02RO	1	0	1.28236103058	378.0	350.0	375	349	1
2.7	2015_May_08_1446	s	s	6	5	SIC	41	RC	0	2	02VD 02VO 02VC 02MD 02MO 02MC 09RD 02RO	1	0	0.832688808441	-143.0	-133.0	-140	-134	1
2.7	2015_May_08_1446	s	s	6	5	SIC	42	ABS	1	1	02VD 02VO 02VC 02MD 10MO 02MC 02RD 02RO	0	1	3.07148790359	None	None	None	None	1
2.7	2015_May_08_1446	s	s	6	5	SIC	43	RC	1	0	02VD 02VO 02VC 02MD 02MO 09MC 02RD 02RO	1	0	0.653580188751	131.0	296.0	141	296	1
2.7	2015_May_08_1446	s	s	6	5	SIC	44	ABS	2	0	02VD 02VO 10VC 02MD 02MO 02MC 02RD 02RO	0	1	1.86882805824	None	None	None	None	1
2.7	2015_May_08_1446	s	s	6	5	SIC	45	RC	2	0	02VD 02VO 09VC 02MD 02MO 02MC 02RD 02RO	1	0	0.794801950455	-128.0	-243.0	-134	-242	1
2.7	2015_May_08_1446	s	s	6	5	SIC	46	RC	2	1	02VD 09VO 02VC 02MD 02MO 02MC 02RD 02RO	1	0	0.634917020798	135.0	48.0	144	55	1
2.7	2015_May_08_1446	s	s	6	5	SIC	47	RC	0	1	02VD 02VO 02VC 02MD 02MO 02MC 02RD 09RO	1	0	1.74806499481	-502.0	-15.0	-495	-18	1
2.7	2015_May_08_1446	s	s	6	5	SIC	48	RC	2	2	09VD 02VO 02VC 02MD 02MO 02MC 02RD 02RO	1	0	0.891101121902	379.0	-40.0	377	-42	1
2.7	2015_May_08_1446	s	s	6	5	SIC	49	ABS	2	0	02VD 02VO 10VC 02MD 02MO 02MC 02RD 02RO	0	1	1.81204390526	None	None	None	None	1
2.7	2015_May_08_1446	s	s	6	5	SIC	50	RC	2	1	02VD 09VO 02VC 02MD 02MO 02MC 02RD 02RO	1	0	1.02351307869	-512.0	-174.0	-504	-176	1
2.7	2015_May_08_1446	s	s	6	5	SIC	51	ABS	1	0	02VD 02VO 02VC 02MD 02MO 10MC 02RD 02RO	0	1	2.19564390182	None	None	None	None	1
2.7	2015_May_08_1446	s	s	6	5	SIC	52	RC	2	2	09VD 02VO 02VC 02MD 02MO 02MC 02RD 02RO	1	0	1.58291697502	-512.0	-179.0	-501	-179	1
2.7	2015_May_08_1446	s	s	6	5	SIC	53	RC	1	2	02VD 02VO 02VC 09MD 02MO 02MC 02RD 02RO	1	0	0.552556037903	-164.0	17.0	-170	26	1
2.7	2015_May_08_1446	s	s	6	5	SIC	54	ABS	0	1	02VD 02VO 02VC 02MD 02MO 02MC 02RD 10RO	0	1	3.58453392982	None	None	None	None	1
2.7	2015_May_08_1446	s	s	6	5	SIC	55	ABS	2	1	02VD 10VO 02VC 02MD 02MO 02MC 02RD 02RO	0	1	2.85963606834	None	None	None	None	1
2.7	2015_May_08_1446	s	s	6	5	SIC	56	ABS	1	2	02VD 02VO 02VC 10MD 02MO 02MC 02RD 02RO	0	1	2.55363488197	None	None	None	None	1
2.7	2015_May_08_1446	s	s	6	5	SIC	57	ABS	2	2	10VD 02VO 02VC 02MD 02MO 02MC 02RD 02RO	0	1	1.85914087296	None	None	None	None	1
2.7	2015_May_08_1446	s	s	6	5	SIC	58	ABS	1	1	02VD 02VO 02VC 02MD 10MO 02MC 02RD 02RO	0	1	3.16340303421	None	None	None	None	1
2.7	2015_May_08_1446	s	s	6	5	SIC	59	ABS	0	2	02VD 02VO 02VC 02MD 02MO 02MC 10RD 02RO	0	1	2.818816185	None	None	None	None	1
2.7	2015_May_08_1446	s	s	6	5	SIC	60	RC	2	0	02VD 02VO 09VC 02MD 02MO 02MC 02RD 02RO	1	0	1.6088321209	346.0	-161.0	350	-161	1
2.7	2015_May_08_1446	s	s	6	5	SIC	61	RC	0	1	02VD 02VO 02VC 02MD 02MO 02MC 02RD 09RO	1	0	0.60654091835	103.0	84.0	93	82	1
2.7	2015_May_08_1446	s	s	6	5	SIC	62	RC	0	2	02VD 02VO 02VC 02MD 02MO 02MC 09RD 02RO	1	0	1.58351182938	-129.0	-269.0	-131	-267	1
2.7	2015_May_08_1446	s	s	6	5	SIC	63	RC	1	1	02VD 02VO 02VC 02MD 09MO 02MC 02RD 02RO	1	0	0.832834005356	-31.0	271.0	-23	272	1
2.7	2015_May_08_1446	s	s	6	5	SIC	64	RC	1	0	02VD 02VO 02VC 02MD 02MO 09MC 02RD 02RO	1	0	1.04245209694	30.0	-72.0	31	-81	1
2.7	2015_May_08_1446	s	s	6	5	SIC	65	ABS	2	0	02VD 02VO 10VC 02MD 02MO 02MC 02RD 02RO	0	1	2.04726219177	None	None	None	None	1
2.7	2015_May_08_1446	s	s	6	5	SIC	66	ABS	1	0	02VD 02VO 02VC 02MD 02MO 10MC 02RD 02RO	0	1	2.31820011139	None	None	None	None	1
2.7	2015_May_08_1446	s	s	6	5	SIC	67	ABS	1	2	02VD 02VO 02VC 10MD 02MO 02MC 02RD 02RO	0	1	1.45407104492	None	None	None	None	1
2.7	2015_May_08_1446	s	s	6	5	SIC	68	ABS	1	1	02VD 02VO 02VC 02MD 10MO 02MC 02RD 02RO	0	1	3.12345409393	None	None	None	None	1
2.7	2015_May_08_1446	s	s	6	5	SIC	69	ABS	0	2	02VD 02VO 02VC 02MD 02MO 02MC 10RD 02RO	0	1	2.39580082893	None	None	None	None	1
2.7	2015_May_08_1446	s	s	6	5	SIC	70	RC	2	2	09VD 02VO 02VC 02MD 02MO 02MC 02RD 02RO	1	0	0.63010597229	-146.0	8.0	-143	11	1
2.7	2015_May_08_1446	s	s	6	5	SIC	71	RC	1	2	02VD 02VO 02VC 09MD 02MO 02MC 02RD 02RO	1	0	0.523787975311	240.0	247.0	251	255	1
2.7	2015_May_08_1446	s	s	6	5	SIC	72	ABS	2	1	02VD 10VO 02VC 02MD 02MO 02MC 02RD 02RO	0	1	2.01960706711	None	None	None	None	1
2.7	2015_May_08_1446	s	s	6	5	SIC	73	ABS	0	1	02VD 02VO 02VC 02MD 02MO 02MC 02RD 10RO	0	1	3.75868678093	None	None	None	None	1
2.7	2015_May_08_1446	s	s	6	5	SIC	74	RC	1	0	02VD 02VO 02VC 02MD 02MO 09MC 02RD 02RO	1	0	1.16466712952	-242.0	-80.0	-239	-85	1
2.7	2015_May_08_1446	s	s	6	5	SIC	75	RC	2	1	02VD 09VO 02VC 02MD 02MO 02MC 02RD 02RO	1	0	0.6554479599	69.0	274.0	70	276	1
2.7	2015_May_08_1446	s	s	6	5	SIC	76	RC	2	0	02VD 02VO 09VC 02MD 02MO 02MC 02RD 02RO	1	0	0.783214092255	401.0	373.0	401	377	1
2.7	2015_May_08_1446	s	s	6	5	SIC	77	ABS	2	2	10VD 02VO 02VC 02MD 02MO 02MC 02RD 02RO	0	1	2.32989478111	None	None	None	None	1
2.7	2015_May_08_1446	s	s	6	5	SIC	78	RC	0	2	02VD 02VO 02VC 02MD 02MO 02MC 09RD 02RO	1	0	1.60058999062	-116.0	-312.0	-114	-315	1
2.7	2015_May_08_1446	s	s	6	5	SIC	79	RC	0	1	02VD 02VO 02VC 02MD 02MO 02MC 02RD 09RO	1	0	0.529428005219	190.0	179.0	194	187	1
2.7	2015_May_08_1446	s	s	6	5	SIC	80	RC	1	1	02VD 02VO 02VC 02MD 09MO 02MC 02RD 02RO	1	0	2.05919098854	-261.0	-386.0	-252	-389	1
2.7	2015_May_08_1446	s	s	6	5	SIC	81	RC	2	1	02VD 09VO 02VC 02MD 02MO 02MC 02RD 02RO	1	0	1.28238105774	414.0	-125.0	417	-133	1
2.7	2015_May_08_1446	s	s	6	5	SIC	82	ABS	1	0	02VD 02VO 02VC 02MD 02MO 10MC 02RD 02RO	0	1	3.23139691353	None	None	None	None	1
2.7	2015_May_08_1446	s	s	6	5	SIC	83	RC	0	2	02VD 02VO 02VC 02MD 02MO 02MC 09RD 02RO	1	0	0.717314958572	-328.0	-96.0	-330	-97	1
2.7	2015_May_08_1446	s	s	6	5	SIC	84	ABS	2	0	02VD 02VO 10VC 02MD 02MO 02MC 02RD 02RO	0	1	2.37708497047	None	None	None	None	1
2.7	2015_May_08_1446	s	s	6	5	SIC	85	RC	1	1	02VD 02VO 02VC 02MD 09MO 02MC 02RD 02RO	1	0	0.905627965927	401.0	-34.0	393	-39	1
2.7	2015_May_08_1446	s	s	6	5	SIC	86	RC	2	0	02VD 02VO 09VC 02MD 02MO 02MC 02RD 02RO	1	0	0.587962865829	-90.0	264.0	-92	273	1
2.7	2015_May_08_1446	s	s	6	5	SIC	87	ABS	0	1	02VD 02VO 02VC 02MD 02MO 02MC 02RD 10RO	0	1	3.8787651062	None	None	None	None	1
2.7	2015_May_08_1446	s	s	6	5	SIC	88	ABS	1	1	02VD 02VO 02VC 02MD 10MO 02MC 02RD 02RO	0	1	2.20042896271	None	None	None	None	1
2.7	2015_May_08_1446	s	s	6	5	SIC	89	RC	1	0	02VD 02VO 02VC 02MD 02MO 09MC 02RD 02RO	1	0	1.91795897484	145.0	-227.0	145	-223	1
2.7	2015_May_08_1446	s	s	6	5	SIC	90	RC	1	2	02VD 02VO 02VC 09MD 02MO 02MC 02RD 02RO	1	0	0.952734947205	10.0	-351.0	5	-356	1
2.7	2015_May_08_1446	s	s	6	5	SIC	91	RC	0	1	02VD 02VO 02VC 02MD 02MO 02MC 02RD 09RO	1	0	3.41270804405	-135.0	283.0	-138	277	1
2.7	2015_May_08_1446	s	s	6	5	SIC	92	RC	2	2	09VD 02VO 02VC 02MD 02MO 02MC 02RD 02RO	1	0	0.783247947693	-390.0	-20.0	-403	-11	1
2.7	2015_May_08_1446	s	s	6	5	SIC	93	ABS	1	2	02VD 02VO 02VC 10MD 02MO 02MC 02RD 02RO	0	1	2.43348383904	None	None	None	None	1
2.7	2015_May_08_1446	s	s	6	5	SIC	94	ABS	2	1	02VD 10VO 02VC 02MD 02MO 02MC 02RD 02RO	0	1	1.92974495888	None	None	None	None	1
2.7	2015_May_08_1446	s	s	6	5	SIC	95	ABS	2	2	10VD 02VO 02VC 02MD 02MO 02MC 02RD 02RO	0	1	1.74128293991	None	None	None	None	1
2.7	2015_May_08_1446	s	s	6	5	SIC	96	ABS	0	2	02VD 02VO 02VC 02MD 02MO 02MC 10RD 02RO	0	1	2.33833408356	None	None	None	None	1
2.7	2015_May_08_1446	s	s	6	5	SIC	97	ABS	1	2	02VD 02VO 02VC 10MD 02MO 02MC 02RD 02RO	0	1	1.73632907867	None	None	None	None	1
2.7	2015_May_08_1446	s	s	6	5	SIC	98	ABS	0	2	02VD 02VO 02VC 02MD 02MO 02MC 10RD 02RO	0	1	2.09006595612	None	None	None	None	1
2.7	2015_May_08_1446	s	s	6	5	SIC	99	ABS	2	1	02VD 10VO 02VC 02MD 02MO 02MC 02RD 02RO	0	1	1.55306196213	None	None	None	None	1
2.7	2015_May_08_1446	s	s	6	5	SIC	100	ABS	1	0	02VD 02VO 02VC 02MD 02MO 10MC 02RD 02RO	0	1	2.60746312141	None	None	None	None	1
2.7	2015_May_08_1446	s	s	6	5	SIC	101	RC	1	1	02VD 02VO 02VC 02MD 09MO 02MC 02RD 02RO	1	0	2.05966997147	-424.0	-268.0	-434	-264	1
2.7	2015_May_08_1446	s	s	6	5	SIC	102	RC	2	0	02VD 02VO 09VC 02MD 02MO 02MC 02RD 02RO	1	0	0.715047836304	304.0	2.0	315	2	1
2.7	2015_May_08_1446	s	s	6	5	SIC	103	RC	2	1	02VD 09VO 02VC 02MD 02MO 02MC 02RD 02RO	1	0	0.72912311554	383.0	103.0	389	103	1
2.7	2015_May_08_1446	s	s	6	5	SIC	104	RC	2	2	09VD 02VO 02VC 02MD 02MO 02MC 02RD 02RO	1	0	0.535932064056	-18.0	148.0	-13	141	1
2.7	2015_May_08_1446	s	s	6	5	SIC	105	RC	1	0	02VD 02VO 02VC 02MD 02MO 09MC 02RD 02RO	1	0	0.867468118668	-200.0	63.0	-208	66	1
2.7	2015_May_08_1446	s	s	6	5	SIC	106	RC	1	2	02VD 02VO 02VC 09MD 02MO 02MC 02RD 02RO	1	0	1.34985613823	46.0	-258.0	54	-262	1
2.7	2015_May_08_1446	s	s	6	5	SIC	107	ABS	2	2	10VD 02VO 02VC 02MD 02MO 02MC 02RD 02RO	0	1	1.83552384377	None	None	None	None	1
2.7	2015_May_08_1446	s	s	6	5	SIC	108	ABS	1	1	02VD 02VO 02VC 02MD 10MO 02MC 02RD 02RO	0	1	2.8311290741	None	None	None	None	1
2.7	2015_May_08_1446	s	s	6	5	SIC	109	RC	0	2	02VD 02VO 02VC 02MD 02MO 02MC 09RD 02RO	1	0	1.39516496658	-443.0	-56.0	-448	-53	1
2.7	2015_May_08_1446	s	s	6	5	SIC	110	ABS	2	0	02VD 02VO 10VC 02MD 02MO 02MC 02RD 02RO	0	1	1.90133905411	None	None	None	None	1
2.7	2015_May_08_1446	s	s	6	5	SIC	111	RC	0	1	02VD 02VO 02VC 02MD 02MO 02MC 02RD 09RO	1	0	1.07695198059	529.0	129.0	524	135	1
2.7	2015_May_08_1446	s	s	6	5	SIC	112	ABS	0	1	02VD 02VO 02VC 02MD 02MO 02MC 02RD 10RO	0	1	3.70712184906	None	None	None	None	1
2.7	2015_May_08_1446	s	s	6	5	SIC	113	RC	0	2	02VD 02VO 02VC 02MD 02MO 02MC 09RD 02RO	1	0	1.48248195648	530.0	159.0	529	158	1
2.7	2015_May_08_1446	s	s	6	5	SIC	114	ABS	1	2	02VD 02VO 02VC 10MD 02MO 02MC 02RD 02RO	0	1	1.98350405693	None	None	None	None	1
2.7	2015_May_08_1446	s	s	6	5	SIC	115	ABS	1	0	02VD 02VO 02VC 02MD 02MO 10MC 02RD 02RO	0	1	6.16702699661	None	None	None	None	1
2.7	2015_May_08_1446	s	s	6	5	SIC	116	RC	2	0	02VD 02VO 09VC 02MD 02MO 02MC 02RD 02RO	1	0	0.687783956528	-63.0	163.0	-69	166	1
2.7	2015_May_08_1446	s	s	6	5	SIC	117	ABS	0	2	02VD 02VO 02VC 02MD 02MO 02MC 10RD 02RO	0	1	1.76150202751	None	None	None	None	1
2.7	2015_May_08_1446	s	s	6	5	SIC	118	ABS	2	0	02VD 02VO 10VC 02MD 02MO 02MC 02RD 02RO	0	1	2.35391807556	None	None	None	None	1
2.7	2015_May_08_1446	s	s	6	5	SIC	119	RC	1	2	02VD 02VO 02VC 09MD 02MO 02MC 02RD 02RO	1	0	0.688956022263	-99.0	288.0	-107	295	1
2.7	2015_May_08_1446	s	s	6	5	SIC	120	RC	1	1	02VD 02VO 02VC 02MD 09MO 02MC 02RD 02RO	1	0	1.49419999123	390.0	-57.0	384	-60	1
2.7	2015_May_08_1446	s	s	6	5	SIC	121	ABS	2	1	02VD 10VO 02VC 02MD 02MO 02MC 02RD 02RO	0	1	2.1299071312	None	None	None	None	1
2.7	2015_May_08_1446	s	s	6	5	SIC	122	RC	0	1	02VD 02VO 02VC 02MD 02MO 02MC 02RD 09RO	1	0	1.25653195381	-215.0	-21.0	-216	-31	1
2.7	2015_May_08_1446	s	s	6	5	SIC	123	ABS	2	2	10VD 02VO 02VC 02MD 02MO 02MC 02RD 02RO	0	1	2.41233301163	None	None	None	None	1
2.7	2015_May_08_1446	s	s	6	5	SIC	124	ABS	1	1	02VD 02VO 02VC 02MD 10MO 02MC 02RD 02RO	0	1	2.14854598045	None	None	None	None	1
2.7	2015_May_08_1446	s	s	6	5	SIC	125	ABS	0	1	02VD 02VO 02VC 02MD 02MO 02MC 02RD 10RO	0	1	3.4079990387	None	None	None	None	1
2.7	2015_May_08_1446	s	s	6	5	SIC	126	RC	2	2	09VD 02VO 02VC 02MD 02MO 02MC 02RD 02RO	1	0	0.627033948898	108.0	94.0	116	92	1
2.7	2015_May_08_1446	s	s	6	5	SIC	127	RC	1	0	02VD 02VO 02VC 02MD 02MO 09MC 02RD 02RO	1	0	1.64498400688	-535.0	30.0	-536	29	1
2.7	2015_May_08_1446	s	s	6	5	SIC	128	RC	2	1	02VD 09VO 02VC 02MD 02MO 02MC 02RD 02RO	1	0	0.958490133286	272.0	256.0	269	250	1
2.7	2015_May_08_1446	s	s	6	5	SIC	129	RC	2	0	02VD 02VO 09VC 02MD 02MO 02MC 02RD 02RO	1	0	0.537701845169	51.0	21.0	48	17	1
2.7	2015_May_08_1446	s	s	6	5	SIC	130	ABS	2	2	10VD 02VO 02VC 02MD 02MO 02MC 02RD 02RO	0	1	1.8943798542	None	None	None	None	1
2.7	2015_May_08_1446	s	s	6	5	SIC	131	ABS	0	1	02VD 02VO 02VC 02MD 02MO 02MC 02RD 10RO	0	1	3.0244410038	None	None	None	None	1
2.7	2015_May_08_1446	s	s	6	5	SIC	132	RC	0	2	02VD 02VO 02VC 02MD 02MO 02MC 09RD 02RO	1	0	0.853586912155	-293.0	9.0	-293	5	1
2.7	2015_May_08_1446	s	s	6	5	SIC	133	ABS	2	0	02VD 02VO 10VC 02MD 02MO 02MC 02RD 02RO	0	1	2.47808599472	None	None	None	None	1
2.7	2015_May_08_1446	s	s	6	5	SIC	134	ABS	1	1	02VD 02VO 02VC 02MD 10MO 02MC 02RD 02RO	0	1	2.61246800423	None	None	None	None	1
2.7	2015_May_08_1446	s	s	6	5	SIC	135	ABS	0	2	02VD 02VO 02VC 02MD 02MO 02MC 10RD 02RO	0	1	2.61238908768	None	None	None	None	1
2.7	2015_May_08_1446	s	s	6	5	SIC	136	ABS	2	1	02VD 10VO 02VC 02MD 02MO 02MC 02RD 02RO	0	1	1.78838205338	None	None	None	None	1
2.7	2015_May_08_1446	s	s	6	5	SIC	137	RC	1	1	02VD 02VO 02VC 02MD 09MO 02MC 02RD 02RO	1	0	0.882130861282	206.0	-194.0	210	-203	1
2.7	2015_May_08_1446	s	s	6	5	SIC	138	ABS	1	2	02VD 02VO 02VC 10MD 02MO 02MC 02RD 02RO	0	1	1.72478795052	None	None	None	None	1
2.7	2015_May_08_1446	s	s	6	5	SIC	139	RC	1	2	02VD 02VO 02VC 09MD 02MO 02MC 02RD 02RO	1	0	1.9865489006	-445.0	-301.0	-457	-299	1
2.7	2015_May_08_1446	s	s	6	5	SIC	140	RC	0	1	02VD 02VO 02VC 02MD 02MO 02MC 02RD 09RO	1	0	1.50285506248	-159.0	-383.0	-149	-385	1
2.7	2015_May_08_1446	s	s	6	5	SIC	141	RC	2	2	09VD 02VO 02VC 02MD 02MO 02MC 02RD 02RO	1	0	1.30091094971	-229.0	-7.0	-229	-11	1
2.7	2015_May_08_1446	s	s	6	5	SIC	142	RC	1	0	02VD 02VO 02VC 02MD 02MO 09MC 02RD 02RO	1	0	1.3598690033	-398.0	-78.0	-405	-83	1
2.7	2015_May_08_1446	s	s	6	5	SIC	143	RC	2	1	02VD 09VO 02VC 02MD 02MO 02MC 02RD 02RO	1	0	1.59995603561	393.0	184.0	390	185	1
2.7	2015_May_08_1446	s	s	6	5	SIC	144	ABS	1	0	02VD 02VO 02VC 02MD 02MO 10MC 02RD 02RO	0	1	3.51391100883	None	None	None	None	1
2.7	2015_May_08_1446	s	s	6	5	SIC	145	RC	2	0	02VD 02VO 09VC 02MD 02MO 02MC 02RD 02RO	1	0	1.06412696838	316.0	-161.0	314	-159	1
2.7	2015_May_08_1446	s	s	6	5	SIC	146	ABS	2	0	02VD 02VO 10VC 02MD 02MO 02MC 02RD 02RO	0	1	2.19501805305	None	None	None	None	1
2.7	2015_May_08_1446	s	s	6	5	SIC	147	ABS	0	1	02VD 02VO 02VC 02MD 02MO 02MC 02RD 10RO	0	1	2.70173811913	None	None	None	None	1
2.7	2015_May_08_1446	s	s	6	5	SIC	148	RC	0	1	02VD 02VO 02VC 02MD 02MO 02MC 02RD 09RO	1	0	2.82232284546	525.0	-411.0	536	-407	1
2.7	2015_May_08_1446	s	s	6	5	SIC	149	RC	1	2	02VD 02VO 02VC 09MD 02MO 02MC 02RD 02RO	1	0	0.972975969315	-298.0	-376.0	-300	-372	1
2.7	2015_May_08_1446	s	s	6	5	SIC	150	RC	2	1	02VD 09VO 02VC 02MD 02MO 02MC 02RD 02RO	1	0	0.677065134048	-244.0	62.0	-238	69	1
2.7	2015_May_08_1446	s	s	6	5	SIC	151	RC	1	1	02VD 02VO 02VC 02MD 09MO 02MC 02RD 02RO	1	0	0.746262073517	299.0	-145.0	293	-150	1
2.7	2015_May_08_1446	s	s	6	5	SIC	152	ABS	2	2	10VD 02VO 02VC 02MD 02MO 02MC 02RD 02RO	0	1	2.15337491035	None	None	None	None	1
2.7	2015_May_08_1446	s	s	6	5	SIC	153	ABS	1	0	02VD 02VO 02VC 02MD 02MO 10MC 02RD 02RO	0	1	2.57710289955	None	None	None	None	1
2.7	2015_May_08_1446	s	s	6	5	SIC	154	RC	0	2	02VD 02VO 02VC 02MD 02MO 02MC 09RD 02RO	1	0	0.818402051926	112.0	369.0	103	370	1
2.7	2015_May_08_1446	s	s	6	5	SIC	155	ABS	0	2	02VD 02VO 02VC 02MD 02MO 02MC 10RD 02RO	0	1	1.74679994583	None	None	None	None	1
2.7	2015_May_08_1446	s	s	6	5	SIC	156	RC	2	2	09VD 02VO 02VC 02MD 02MO 02MC 02RD 02RO	1	0	0.780069112778	-88.0	-86.0	-94	-90	1
2.7	2015_May_08_1446	s	s	6	5	SIC	157	ABS	2	1	02VD 10VO 02VC 02MD 02MO 02MC 02RD 02RO	0	1	1.94160103798	None	None	None	None	1
2.7	2015_May_08_1446	s	s	6	5	SIC	158	ABS	1	2	02VD 02VO 02VC 10MD 02MO 02MC 02RD 02RO	0	1	2.35350203514	None	None	None	None	1
2.7	2015_May_08_1446	s	s	6	5	SIC	159	ABS	1	1	02VD 02VO 02VC 02MD 10MO 02MC 02RD 02RO	0	1	2.30136489868	None	None	None	None	1
2.7	2015_May_08_1446	s	s	6	5	SIC	160	RC	1	0	02VD 02VO 02VC 02MD 02MO 09MC 02RD 02RO	1	0	0.746908903122	327.0	312.0	338	312	1
2.7	2015_May_08_1446	s	s	6	5	SIC	161	ABS	2	1	02VD 10VO 02VC 02MD 02MO 02MC 02RD 02RO	0	1	0.72912979126	None	None	None	None	1
2.7	2015_May_08_1446	s	s	6	5	SIC	162	ABS	1	1	02VD 02VO 02VC 02MD 10MO 02MC 02RD 02RO	0	1	2.57238984108	None	None	None	None	1
2.7	2015_May_08_1446	s	s	6	5	SIC	163	ABS	0	1	02VD 02VO 02VC 02MD 02MO 02MC 02RD 10RO	0	1	3.24808382988	None	None	None	None	1
2.7	2015_May_08_1446	s	s	6	5	SIC	164	ABS	2	0	02VD 02VO 10VC 02MD 02MO 02MC 02RD 02RO	0	1	2.80946111679	None	None	None	None	1
2.7	2015_May_08_1446	s	s	6	5	SIC	165	ABS	1	0	02VD 02VO 02VC 02MD 02MO 10MC 02RD 02RO	0	1	3.93073105812	None	None	None	None	1
2.7	2015_May_08_1446	s	s	6	5	SIC	166	RC	1	2	02VD 02VO 02VC 09MD 02MO 02MC 02RD 02RO	1	0	0.665418863297	92.0	170.0	84	164	1
2.7	2015_May_08_1446	s	s	6	5	SIC	167	RC	2	2	09VD 02VO 02VC 02MD 02MO 02MC 02RD 02RO	1	0	0.665446043015	157.0	-30.0	156	-36	1
2.7	2015_May_08_1446	s	s	6	5	SIC	168	ABS	0	2	02VD 02VO 02VC 02MD 02MO 02MC 10RD 02RO	0	1	1.83333086967	None	None	None	None	1
2.7	2015_May_08_1446	s	s	6	5	SIC	169	RC	2	1	02VD 09VO 02VC 02MD 02MO 02MC 02RD 02RO	1	0	1.13886213303	41.0	347.0	49	350	1
2.7	2015_May_08_1446	s	s	6	5	SIC	170	RC	0	1	02VD 02VO 02VC 02MD 02MO 02MC 02RD 09RO	1	0	2.19556498528	-306.0	191.0	-308	195	1
2.7	2015_May_08_1446	s	s	6	5	SIC	171	RC	0	2	02VD 02VO 02VC 02MD 02MO 02MC 09RD 02RO	1	0	0.91739988327	19.0	219.0	16	221	1
2.7	2015_May_08_1446	s	s	6	5	SIC	172	ABS	1	2	02VD 02VO 02VC 10MD 02MO 02MC 02RD 02RO	0	1	1.94837403297	None	None	None	None	1
2.7	2015_May_08_1446	s	s	6	5	SIC	173	ABS	2	2	10VD 02VO 02VC 02MD 02MO 02MC 02RD 02RO	0	1	2.9537858963	None	None	None	None	1
2.7	2015_May_08_1446	s	s	6	5	SIC	174	RC	2	0	02VD 02VO 09VC 02MD 02MO 02MC 02RD 02RO	1	0	0.658536911011	-93.0	-3.0	-81	2	1
2.7	2015_May_08_1446	s	s	6	5	SIC	175	RC	1	0	02VD 02VO 02VC 02MD 02MO 09MC 02RD 02RO	1	0	1.24227809906	44.0	200.0	38	196	1
2.7	2015_May_08_1446	s	s	6	5	SIC	176	RC	1	1	02VD 02VO 02VC 02MD 09MO 02MC 02RD 02RO	1	0	0.830227136612	326.0	218.0	326	206	1
2.7	2015_May_08_1446	s	s	6	5	SIC	177	ABS	2	0	02VD 02VO 10VC 02MD 02MO 02MC 02RD 02RO	0	1	0.10006403923	None	None	None	None	1
2.7	2015_May_08_1446	s	s	6	5	SIC	178	RC	2	1	02VD 09VO 02VC 02MD 02MO 02MC 02RD 02RO	1	0	1.40737485886	499.0	-392.0	501	-383	1
2.7	2015_May_08_1446	s	s	6	5	SIC	179	RC	0	2	02VD 02VO 02VC 02MD 02MO 02MC 09RD 02RO	1	0	1.66593194008	-472.0	-179.0	-468	-179	1
2.7	2015_May_08_1446	s	s	6	5	SIC	180	RC	2	0	02VD 02VO 09VC 02MD 02MO 02MC 02RD 02RO	1	0	0.764428138733	279.0	92.0	273	95	1
2.7	2015_May_08_1446	s	s	6	5	SIC	181	RC	1	1	02VD 02VO 02VC 02MD 09MO 02MC 02RD 02RO	1	0	1.33634710312	386.0	-213.0	381	-218	1
2.7	2015_May_08_1446	s	s	6	5	SIC	182	ABS	0	2	02VD 02VO 02VC 02MD 02MO 02MC 10RD 02RO	0	1	2.31824207306	None	None	None	None	1
2.7	2015_May_08_1446	s	s	6	5	SIC	183	ABS	1	2	02VD 02VO 02VC 10MD 02MO 02MC 02RD 02RO	0	1	2.24269509315	None	None	None	None	1
2.7	2015_May_08_1446	s	s	6	5	SIC	184	RC	0	1	02VD 02VO 02VC 02MD 02MO 02MC 02RD 09RO	1	0	0.641903877258	-105.0	94.0	-104	86	1
2.7	2015_May_08_1446	s	s	6	5	SIC	185	RC	1	2	02VD 02VO 02VC 09MD 02MO 02MC 02RD 02RO	1	0	0.634814023972	114.0	-22.0	120	-26	1
2.7	2015_May_08_1446	s	s	6	5	SIC	186	RC	2	2	09VD 02VO 02VC 02MD 02MO 02MC 02RD 02RO	1	0	0.959636926651	529.0	18.0	526	16	1
2.7	2015_May_08_1446	s	s	6	5	SIC	187	ABS	1	1	02VD 02VO 02VC 02MD 10MO 02MC 02RD 02RO	0	1	2.06612205505	None	None	None	None	1
2.7	2015_May_08_1446	s	s	6	5	SIC	188	ABS	2	2	10VD 02VO 02VC 02MD 02MO 02MC 02RD 02RO	0	1	1.45876002312	None	None	None	None	1
2.7	2015_May_08_1446	s	s	6	5	SIC	189	RC	1	0	02VD 02VO 02VC 02MD 02MO 09MC 02RD 02RO	1	0	0.870414972305	-258.0	-148.0	-256	-144	1
2.7	2015_May_08_1446	s	s	6	5	SIC	190	ABS	0	1	02VD 02VO 02VC 02MD 02MO 02MC 02RD 10RO	0	1	3.78156495094	None	None	None	None	1
2.7	2015_May_08_1446	s	s	6	5	SIC	191	ABS	2	1	02VD 10VO 02VC 02MD 02MO 02MC 02RD 02RO	0	1	1.95995807648	None	None	None	None	1
2.7	2015_May_08_1446	s	s	6	5	SIC	192	ABS	1	0	02VD 02VO 02VC 02MD 02MO 10MC 02RD 02RO	0	1	2.95378518105	None	None	None	None	1
2.7	2015_May_08_1446	s	s	6	5	SIC	193	ABS	0	1	02VD 02VO 02VC 02MD 02MO 02MC 02RD 10RO	0	1	3.45501112938	None	None	None	None	1
2.7	2015_May_08_1446	s	s	6	5	SIC	194	ABS	1	1	02VD 02VO 02VC 02MD 10MO 02MC 02RD 02RO	0	1	3.17258119583	None	None	None	None	1
2.7	2015_May_08_1446	s	s	6	5	SIC	195	RC	0	1	02VD 02VO 02VC 02MD 02MO 02MC 02RD 09RO	1	0	1.29414701462	78.0	-154.0	85	-160	1
2.7	2015_May_08_1446	s	s	6	5	SIC	196	ABS	2	2	10VD 02VO 02VC 02MD 02MO 02MC 02RD 02RO	0	1	1.82379889488	None	None	None	None	1
2.7	2015_May_08_1446	s	s	6	5	SIC	197	ABS	1	2	02VD 02VO 02VC 10MD 02MO 02MC 02RD 02RO	0	1	2.41234183311	None	None	None	None	1
2.7	2015_May_08_1446	s	s	6	5	SIC	198	RC	2	0	02VD 02VO 09VC 02MD 02MO 02MC 02RD 02RO	1	0	0.994961977005	427.0	-118.0	427	-116	1
2.7	2015_May_08_1446	s	s	6	5	SIC	199	RC	1	1	02VD 02VO 02VC 02MD 09MO 02MC 02RD 02RO	1	0	0.529028892517	274.0	115.0	270	108	1
2.7	2015_May_08_1446	s	s	6	5	SIC	200	ABS	1	0	02VD 02VO 02VC 02MD 02MO 10MC 02RD 02RO	0	1	2.81937217712	None	None	None	None	1
2.7	2015_May_08_1446	s	s	6	5	SIC	201	ABS	2	1	02VD 10VO 02VC 02MD 02MO 02MC 02RD 02RO	0	1	2.17377114296	None	None	None	None	1
2.7	2015_May_08_1446	s	s	6	5	SIC	202	RC	0	2	02VD 02VO 02VC 02MD 02MO 02MC 09RD 02RO	1	0	1.10579991341	-147.0	233.0	-152	240	1
2.7	2015_May_08_1446	s	s	6	5	SIC	203	RC	1	0	02VD 02VO 02VC 02MD 02MO 09MC 02RD 02RO	0	1	0.373818159103	-26.0	151.0	None	None	0
2.7	2015_May_08_1446	s	s	6	5	SIC	204	ABS	2	0	02VD 02VO 10VC 02MD 02MO 02MC 02RD 02RO	0	1	2.08970785141	None	None	None	None	1
2.7	2015_May_08_1446	s	s	6	5	SIC	205	ABS	0	2	02VD 02VO 02VC 02MD 02MO 02MC 10RD 02RO	0	1	2.11097383499	None	None	None	None	1
2.7	2015_May_08_1446	s	s	6	5	SIC	206	RC	2	1	02VD 09VO 02VC 02MD 02MO 02MC 02RD 02RO	1	0	1.07053589821	-118.0	-63.0	-111	-62	1
2.7	2015_May_08_1446	s	s	6	5	SIC	207	RC	2	2	09VD 02VO 02VC 02MD 02MO 02MC 02RD 02RO	1	0	1.72962999344	430.0	-359.0	436	-367	1
2.7	2015_May_08_1446	s	s	6	5	SIC	208	RC	1	2	02VD 02VO 02VC 09MD 02MO 02MC 02RD 02RO	1	0	0.784564971924	141.0	70.0	142	66	1
2.7	2015_May_08_1446	s	s	6	5	SIC	209	ABS	2	0	02VD 02VO 10VC 02MD 02MO 02MC 02RD 02RO	0	1	1.59705114365	None	None	None	None	1
2.7	2015_May_08_1446	s	s	6	5	SIC	210	RC	1	1	02VD 02VO 02VC 02MD 09MO 02MC 02RD 02RO	1	0	1.76487708092	-179.0	-375.0	-188	-375	1
2.7	2015_May_08_1446	s	s	6	5	SIC	211	RC	0	1	02VD 02VO 02VC 02MD 02MO 02MC 02RD 09RO	1	0	1.30586600304	314.0	-181.0	308	-180	1
2.7	2015_May_08_1446	s	s	6	5	SIC	212	RC	2	2	09VD 02VO 02VC 02MD 02MO 02MC 02RD 02RO	1	0	0.794930934906	382.0	304.0	390	301	1
2.7	2015_May_08_1446	s	s	6	5	SIC	213	ABS	2	2	10VD 02VO 02VC 02MD 02MO 02MC 02RD 02RO	0	1	1.90066599846	None	None	None	None	1
2.7	2015_May_08_1446	s	s	6	5	SIC	214	ABS	2	1	02VD 10VO 02VC 02MD 02MO 02MC 02RD 02RO	0	1	2.28972196579	None	None	None	None	1
2.7	2015_May_08_1446	s	s	6	5	SIC	215	ABS	1	2	02VD 02VO 02VC 10MD 02MO 02MC 02RD 02RO	0	1	2.303347826	None	None	None	None	1
2.7	2015_May_08_1446	s	s	6	5	SIC	216	RC	2	0	02VD 02VO 09VC 02MD 02MO 02MC 02RD 02RO	1	0	0.772962808609	424.0	114.0	417	119	1
2.7	2015_May_08_1446	s	s	6	5	SIC	217	RC	0	2	02VD 02VO 02VC 02MD 02MO 02MC 09RD 02RO	1	0	0.936187028885	-143.0	201.0	-141	199	1
2.7	2015_May_08_1446	s	s	6	5	SIC	218	ABS	0	2	02VD 02VO 02VC 02MD 02MO 02MC 10RD 02RO	0	1	1.84732103348	None	None	None	None	1
2.7	2015_May_08_1446	s	s	6	5	SIC	219	ABS	0	1	02VD 02VO 02VC 02MD 02MO 02MC 02RD 10RO	0	1	3.75418806076	None	None	None	None	1
2.7	2015_May_08_1446	s	s	6	5	SIC	220	ABS	1	0	02VD 02VO 02VC 02MD 02MO 10MC 02RD 02RO	0	1	3.58454012871	None	None	None	None	1
2.7	2015_May_08_1446	s	s	6	5	SIC	221	ABS	1	1	02VD 02VO 02VC 02MD 10MO 02MC 02RD 02RO	0	1	2.58931398392	None	None	None	None	1
2.7	2015_May_08_1446	s	s	6	5	SIC	222	RC	1	2	02VD 02VO 02VC 09MD 02MO 02MC 02RD 02RO	1	0	0.594964981079	0.0	65.0	6	56	1
2.7	2015_May_08_1446	s	s	6	5	SIC	223	RC	2	1	02VD 09VO 02VC 02MD 02MO 02MC 02RD 02RO	1	0	0.764406919479	155.0	131.0	159	128	1
2.7	2015_May_08_1446	s	s	6	5	SIC	224	RC	1	0	02VD 02VO 02VC 02MD 02MO 09MC 02RD 02RO	1	0	1.52950000763	27.0	-213.0	27	-205	1
2.7	2015_May_08_1446	s	s	6	5	SIC	225	ABS	0	1	02VD 02VO 02VC 02MD 02MO 02MC 02RD 10RO	0	1	2.93736410141	None	None	None	None	1
2.7	2015_May_08_1446	s	s	6	5	SIC	226	ABS	2	2	10VD 02VO 02VC 02MD 02MO 02MC 02RD 02RO	0	1	1.95995306969	None	None	None	None	1
2.7	2015_May_08_1446	s	s	6	5	SIC	227	RC	0	2	02VD 02VO 02VC 02MD 02MO 02MC 09RD 02RO	1	0	0.550808906555	5.0	90.0	9	94	1
2.7	2015_May_08_1446	s	s	6	5	SIC	228	ABS	1	2	02VD 02VO 02VC 10MD 02MO 02MC 02RD 02RO	0	1	2.09493803978	None	None	None	None	1
2.7	2015_May_08_1446	s	s	6	5	SIC	229	ABS	2	0	02VD 02VO 10VC 02MD 02MO 02MC 02RD 02RO	0	1	1.6947889328	None	None	None	None	1
2.7	2015_May_08_1446	s	s	6	5	SIC	230	RC	2	2	09VD 02VO 02VC 02MD 02MO 02MC 02RD 02RO	1	0	0.552950143814	-76.0	52.0	-79	52	1
2.7	2015_May_08_1446	s	s	6	5	SIC	231	RC	1	2	02VD 02VO 02VC 09MD 02MO 02MC 02RD 02RO	1	0	1.07739090919	-251.0	-316.0	-241	-318	1
2.7	2015_May_08_1446	s	s	6	5	SIC	232	RC	0	1	02VD 02VO 02VC 02MD 02MO 02MC 02RD 09RO	0	1	3.59890508652	-518.0	-367.0	None	None	0
2.7	2015_May_08_1446	s	s	6	5	SIC	233	ABS	1	1	02VD 02VO 02VC 02MD 10MO 02MC 02RD 02RO	0	1	3.04792094231	None	None	None	None	1
2.7	2015_May_08_1446	s	s	6	5	SIC	234	ABS	1	0	02VD 02VO 02VC 02MD 02MO 10MC 02RD 02RO	0	1	2.54842114449	None	None	None	None	1
2.7	2015_May_08_1446	s	s	6	5	SIC	235	RC	2	1	02VD 09VO 02VC 02MD 02MO 02MC 02RD 02RO	1	0	1.39521288872	-70.0	-393.0	-79	-385	1
2.7	2015_May_08_1446	s	s	6	5	SIC	236	RC	2	0	02VD 02VO 09VC 02MD 02MO 02MC 02RD 02RO	1	0	1.33576011658	-514.0	410.0	-524	417	1
2.7	2015_May_08_1446	s	s	6	5	SIC	237	RC	1	0	02VD 02VO 02VC 02MD 02MO 09MC 02RD 02RO	1	0	2.65948319435	523.0	192.0	527	199	1
2.7	2015_May_08_1446	s	s	6	5	SIC	238	ABS	2	1	02VD 10VO 02VC 02MD 02MO 02MC 02RD 02RO	0	1	1.50112700462	None	None	None	None	1
2.7	2015_May_08_1446	s	s	6	5	SIC	239	ABS	0	2	02VD 02VO 02VC 02MD 02MO 02MC 10RD 02RO	0	1	2.24270391464	None	None	None	None	1
2.7	2015_May_08_1446	s	s	6	5	SIC	240	RC	1	1	02VD 02VO 02VC 02MD 09MO 02MC 02RD 02RO	1	0	1.25876498222	43.0	-404.0	42	-403	1
2.7	2015_May_08_1446	s	s	6	5	SIC	241	ABS	1	0	02VD 02VO 02VC 02MD 02MO 10MC 02RD 02RO	0	1	2.79593276978	None	None	None	None	1
2.7	2015_May_08_1446	s	s	6	5	SIC	242	ABS	2	1	02VD 10VO 02VC 02MD 02MO 02MC 02RD 02RO	0	1	2.28974604607	None	None	None	None	1
2.7	2015_May_08_1446	s	s	6	5	SIC	243	RC	1	1	02VD 02VO 02VC 02MD 09MO 02MC 02RD 02RO	1	0	1.37169003487	-82.0	-204.0	-72	-206	1
2.7	2015_May_08_1446	s	s	6	5	SIC	244	ABS	2	2	10VD 02VO 02VC 02MD 02MO 02MC 02RD 02RO	0	1	1.81877708435	None	None	None	None	1
2.7	2015_May_08_1446	s	s	6	5	SIC	245	ABS	1	1	02VD 02VO 02VC 02MD 10MO 02MC 02RD 02RO	0	1	3.29025006294	None	None	None	None	1
2.7	2015_May_08_1446	s	s	6	5	SIC	246	ABS	1	2	02VD 02VO 02VC 10MD 02MO 02MC 02RD 02RO	0	1	2.75003695488	None	None	None	None	1
2.7	2015_May_08_1446	s	s	6	5	SIC	247	RC	2	0	02VD 02VO 09VC 02MD 02MO 02MC 02RD 02RO	1	0	1.81585693359	-387.0	271.0	-395	269	1
2.7	2015_May_08_1446	s	s	6	5	SIC	248	RC	0	1	02VD 02VO 02VC 02MD 02MO 02MC 02RD 09RO	1	0	1.22004413605	466.0	150.0	469	153	1
2.7	2015_May_08_1446	s	s	6	5	SIC	249	RC	2	1	02VD 09VO 02VC 02MD 02MO 02MC 02RD 02RO	1	0	1.27056407928	-399.0	-75.0	-409	-69	1
2.7	2015_May_08_1446	s	s	6	5	SIC	250	RC	1	0	02VD 02VO 02VC 02MD 02MO 09MC 02RD 02RO	1	0	0.831817865372	-188.0	48.0	-185	44	1
2.7	2015_May_08_1446	s	s	6	5	SIC	251	RC	2	2	09VD 02VO 02VC 02MD 02MO 02MC 02RD 02RO	1	0	1.65410709381	402.0	-121.0	398	-117	1
2.7	2015_May_08_1446	s	s	6	5	SIC	252	ABS	2	0	02VD 02VO 10VC 02MD 02MO 02MC 02RD 02RO	0	1	1.47935009003	None	None	None	None	1
2.7	2015_May_08_1446	s	s	6	5	SIC	253	ABS	0	2	02VD 02VO 02VC 02MD 02MO 02MC 10RD 02RO	1	0	1.05866408348	None	None	-7	3	0
2.7	2015_May_08_1446	s	s	6	5	SIC	254	RC	0	2	02VD 02VO 02VC 02MD 02MO 02MC 09RD 02RO	1	0	0.752712965012	-332.0	119.0	-337	120	1
2.7	2015_May_08_1446	s	s	6	5	SIC	255	ABS	0	1	02VD 02VO 02VC 02MD 02MO 02MC 02RD 10RO	0	1	2.6897559166	None	None	None	None	1
2.7	2015_May_08_1446	s	s	6	5	SIC	256	RC	1	2	02VD 02VO 02VC 09MD 02MO 02MC 02RD 02RO	1	0	0.818433046341	457.0	132.0	454	127	1
2.7	2015_May_08_1446	s	s	6	5	SIC	257	ABS	2	1	02VD 10VO 02VC 02MD 02MO 02MC 02RD 02RO	0	1	1.45157384872	None	None	None	None	1
2.7	2015_May_08_1446	s	s	6	5	SIC	258	ABS	0	2	02VD 02VO 02VC 02MD 02MO 02MC 10RD 02RO	0	1	1.67074680328	None	None	None	None	1
2.7	2015_May_08_1446	s	s	6	5	SIC	259	RC	1	1	02VD 02VO 02VC 02MD 09MO 02MC 02RD 02RO	1	0	1.02020382881	-361.0	-73.0	-363	-77	1
2.7	2015_May_08_1446	s	s	6	5	SIC	260	RC	1	0	02VD 02VO 02VC 02MD 02MO 09MC 02RD 02RO	1	0	1.10096001625	229.0	278.0	234	270	1
2.7	2015_May_08_1446	s	s	6	5	SIC	261	RC	0	1	02VD 02VO 02VC 02MD 02MO 02MC 02RD 09RO	1	0	1.50116300583	246.0	-13.0	242	-10	1
2.7	2015_May_08_1446	s	s	6	5	SIC	262	RC	1	2	02VD 02VO 02VC 09MD 02MO 02MC 02RD 02RO	1	0	1.1763780117	49.0	-398.0	56	-395	1
2.7	2015_May_08_1446	s	s	6	5	SIC	263	ABS	0	1	02VD 02VO 02VC 02MD 02MO 02MC 02RD 10RO	0	1	3.13031506538	None	None	None	None	1
2.7	2015_May_08_1446	s	s	6	5	SIC	264	ABS	2	0	02VD 02VO 10VC 02MD 02MO 02MC 02RD 02RO	0	1	2.13652205467	None	None	None	None	1
2.7	2015_May_08_1446	s	s	6	5	SIC	265	ABS	1	1	02VD 02VO 02VC 02MD 10MO 02MC 02RD 02RO	0	1	3.01247501373	None	None	None	None	1
2.7	2015_May_08_1446	s	s	6	5	SIC	266	ABS	1	0	02VD 02VO 02VC 02MD 02MO 10MC 02RD 02RO	0	1	2.93450403214	None	None	None	None	1
2.7	2015_May_08_1446	s	s	6	5	SIC	267	RC	0	2	02VD 02VO 02VC 02MD 02MO 02MC 09RD 02RO	1	0	0.635385036469	83.0	175.0	81	181	1
2.7	2015_May_08_1446	s	s	6	5	SIC	268	ABS	2	2	10VD 02VO 02VC 02MD 02MO 02MC 02RD 02RO	0	1	1.99549603462	None	None	None	None	1
2.7	2015_May_08_1446	s	s	6	5	SIC	269	ABS	1	2	02VD 02VO 02VC 10MD 02MO 02MC 02RD 02RO	0	1	1.67709517479	None	None	None	None	1
2.7	2015_May_08_1446	s	s	6	5	SIC	270	RC	2	2	09VD 02VO 02VC 02MD 02MO 02MC 02RD 02RO	1	0	0.740875959396	98.0	-161.0	101	-162	1
2.7	2015_May_08_1446	s	s	6	5	SIC	271	RC	2	0	02VD 02VO 09VC 02MD 02MO 02MC 02RD 02RO	1	0	3.31380391121	316.0	-382.0	319	-383	1
2.7	2015_May_08_1446	s	s	6	5	SIC	272	RC	2	1	02VD 09VO 02VC 02MD 02MO 02MC 02RD 02RO	1	0	0.677165031433	369.0	144.0	359	143	1
2.7	2015_May_08_1446	s	s	6	5	SIC	273	RC	1	0	02VD 02VO 02VC 02MD 02MO 09MC 02RD 02RO	1	0	2.67127394676	-171.0	-384.0	-170	-392	1
2.7	2015_May_08_1446	s	s	6	5	SIC	274	ABS	0	2	02VD 02VO 02VC 02MD 02MO 02MC 10RD 02RO	0	1	2.57738089561	None	None	None	None	1
2.7	2015_May_08_1446	s	s	6	5	SIC	275	RC	1	1	02VD 02VO 02VC 02MD 09MO 02MC 02RD 02RO	1	0	1.41912698746	-123.0	-329.0	-122	-325	1
2.7	2015_May_08_1446	s	s	6	5	SIC	276	ABS	1	1	02VD 02VO 02VC 02MD 10MO 02MC 02RD 02RO	0	1	2.20049381256	None	None	None	None	1
2.7	2015_May_08_1446	s	s	6	5	SIC	277	RC	0	1	02VD 02VO 02VC 02MD 02MO 02MC 02RD 09RO	1	0	1.34120416641	-292.0	-95.0	-304	-89	1
2.7	2015_May_08_1446	s	s	6	5	SIC	278	RC	2	0	02VD 02VO 09VC 02MD 02MO 02MC 02RD 02RO	1	0	1.22910904884	487.0	309.0	486	303	1
2.7	2015_May_08_1446	s	s	6	5	SIC	279	RC	2	1	02VD 09VO 02VC 02MD 02MO 02MC 02RD 02RO	1	0	0.712562084198	35.0	6.0	28	5	1
2.7	2015_May_08_1446	s	s	6	5	SIC	280	RC	1	2	02VD 02VO 02VC 09MD 02MO 02MC 02RD 02RO	1	0	0.988471984863	483.0	-146.0	477	-148	1
2.7	2015_May_08_1446	s	s	6	5	SIC	281	ABS	2	2	10VD 02VO 02VC 02MD 02MO 02MC 02RD 02RO	0	1	1.66720986366	None	None	None	None	1
2.7	2015_May_08_1446	s	s	6	5	SIC	282	ABS	1	0	02VD 02VO 02VC 02MD 02MO 10MC 02RD 02RO	0	1	3.49002790451	None	None	None	None	1
2.7	2015_May_08_1446	s	s	6	5	SIC	283	ABS	2	0	02VD 02VO 10VC 02MD 02MO 02MC 02RD 02RO	0	1	1.82382512093	None	None	None	None	1
2.7	2015_May_08_1446	s	s	6	5	SIC	284	ABS	1	2	02VD 02VO 02VC 10MD 02MO 02MC 02RD 02RO	0	1	1.85916280746	None	None	None	None	1
2.7	2015_May_08_1446	s	s	6	5	SIC	285	RC	0	2	02VD 02VO 02VC 02MD 02MO 02MC 09RD 02RO	1	0	0.90571308136	-413.0	-134.0	-417	-131	1
2.7	2015_May_08_1446	s	s	6	5	SIC	286	ABS	2	1	02VD 10VO 02VC 02MD 02MO 02MC 02RD 02RO	0	1	2.02388811111	None	None	None	None	1
2.7	2015_May_08_1446	s	s	6	5	SIC	287	ABS	0	1	02VD 02VO 02VC 02MD 02MO 02MC 02RD 10RO	0	1	3.90749001503	None	None	None	None	1
2.7	2015_May_08_1446	s	s	6	5	SIC	288	RC	2	2	09VD 02VO 02VC 02MD 02MO 02MC 02RD 02RO	1	0	1.11403417587	296.0	-160.0	293	-162	1
2.7	2015_May_08_1446	s	s	6	5	SIC	289	ABS	2	1	02VD 10VO 02VC 02MD 02MO 02MC 02RD 02RO	0	1	1.89439487457	None	None	None	None	1
2.7	2015_May_08_1446	s	s	6	5	SIC	290	RC	2	0	02VD 02VO 09VC 02MD 02MO 02MC 02RD 02RO	1	0	0.924383878708	-425.0	-352.0	-413	-344	1
2.7	2015_May_08_1446	s	s	6	5	SIC	291	RC	2	1	02VD 09VO 02VC 02MD 02MO 02MC 02RD 02RO	0	1	0.0228271484375	-466.0	-202.0	None	None	0
2.7	2015_May_08_1446	s	s	6	5	SIC	292	RC	0	1	02VD 02VO 02VC 02MD 02MO 02MC 02RD 09RO	1	0	3.61887097359	219.0	334.0	228	330	1
2.7	2015_May_08_1446	s	s	6	5	SIC	293	ABS	0	1	02VD 02VO 02VC 02MD 02MO 02MC 02RD 10RO	0	1	3.28338694572	None	None	None	None	1
2.7	2015_May_08_1446	s	s	6	5	SIC	294	RC	0	2	02VD 02VO 02VC 02MD 02MO 02MC 09RD 02RO	1	0	1.21177482605	-408.0	-206.0	-413	-207	1
2.7	2015_May_08_1446	s	s	6	5	SIC	295	RC	1	0	02VD 02VO 02VC 02MD 02MO 09MC 02RD 02RO	1	0	0.646766901016	253.0	147.0	259	147	1
2.7	2015_May_08_1446	s	s	6	5	SIC	296	RC	2	2	09VD 02VO 02VC 02MD 02MO 02MC 02RD 02RO	1	0	0.817743062973	-264.0	-102.0	-249	-94	1
2.7	2015_May_08_1446	s	s	6	5	SIC	297	ABS	2	2	10VD 02VO 02VC 02MD 02MO 02MC 02RD 02RO	0	1	1.64234495163	None	None	None	None	1
2.7	2015_May_08_1446	s	s	6	5	SIC	298	ABS	2	0	02VD 02VO 10VC 02MD 02MO 02MC 02RD 02RO	0	1	2.23102807999	None	None	None	None	1
2.7	2015_May_08_1446	s	s	6	5	SIC	299	ABS	0	2	02VD 02VO 02VC 02MD 02MO 02MC 10RD 02RO	0	1	2.00766396523	None	None	None	None	1
2.7	2015_May_08_1446	s	s	6	5	SIC	300	ABS	1	1	02VD 02VO 02VC 02MD 10MO 02MC 02RD 02RO	0	1	2.58400988579	None	None	None	None	1
2.7	2015_May_08_1446	s	s	6	5	SIC	301	ABS	1	0	02VD 02VO 02VC 02MD 02MO 10MC 02RD 02RO	0	1	3.16567802429	None	None	None	None	1
2.7	2015_May_08_1446	s	s	6	5	SIC	302	RC	1	1	02VD 02VO 02VC 02MD 09MO 02MC 02RD 02RO	1	0	1.55282616615	-453.0	66.0	-453	69	1
2.7	2015_May_08_1446	s	s	6	5	SIC	303	RC	1	2	02VD 02VO 02VC 09MD 02MO 02MC 02RD 02RO	1	0	0.853712081909	-370.0	69.0	-365	67	1
2.7	2015_May_08_1446	s	s	6	5	SIC	304	ABS	1	2	02VD 02VO 02VC 10MD 02MO 02MC 02RD 02RO	0	1	1.76010084152	None	None	None	None	1
2.7	2015_May_08_1446	s	s	6	5	SIC	305	ABS	1	2	02VD 02VO 02VC 10MD 02MO 02MC 02RD 02RO	0	1	1.35985803604	None	None	None	None	1
2.7	2015_May_08_1446	s	s	6	5	SIC	306	RC	2	0	02VD 02VO 09VC 02MD 02MO 02MC 02RD 02RO	1	0	1.11757612228	-438.0	-177.0	-441	-176	1
2.7	2015_May_08_1446	s	s	6	5	SIC	307	ABS	0	2	02VD 02VO 02VC 02MD 02MO 02MC 10RD 02RO	0	1	0.641863822937	None	None	None	None	1
2.7	2015_May_08_1446	s	s	6	5	SIC	308	RC	2	1	02VD 09VO 02VC 02MD 02MO 02MC 02RD 02RO	1	0	0.830035924911	-26.0	-94.0	-18	-94	1
2.7	2015_May_08_1446	s	s	6	5	SIC	309	RC	0	2	02VD 02VO 02VC 02MD 02MO 02MC 09RD 02RO	1	0	0.867758989334	-132.0	374.0	-131	367	1
2.7	2015_May_08_1446	s	s	6	5	SIC	310	ABS	2	1	02VD 10VO 02VC 02MD 02MO 02MC 02RD 02RO	0	1	2.38405418396	None	None	None	None	1
2.7	2015_May_08_1446	s	s	6	5	SIC	311	ABS	1	1	02VD 02VO 02VC 02MD 10MO 02MC 02RD 02RO	0	1	2.27837395668	None	None	None	None	1
2.7	2015_May_08_1446	s	s	6	5	SIC	312	RC	1	0	02VD 02VO 02VC 02MD 02MO 09MC 02RD 02RO	1	0	1.50229406357	-191.0	-343.0	-180	-343	1
2.7	2015_May_08_1446	s	s	6	5	SIC	313	ABS	1	0	02VD 02VO 02VC 02MD 02MO 10MC 02RD 02RO	0	1	3.17260408401	None	None	None	None	1
2.7	2015_May_08_1446	s	s	6	5	SIC	314	ABS	2	0	02VD 02VO 10VC 02MD 02MO 02MC 02RD 02RO	0	1	1.72958993912	None	None	None	None	1
2.7	2015_May_08_1446	s	s	6	5	SIC	315	RC	1	1	02VD 02VO 02VC 02MD 09MO 02MC 02RD 02RO	1	0	0.752887010574	-11.0	115.0	-20	124	1
2.7	2015_May_08_1446	s	s	6	5	SIC	316	RC	2	2	09VD 02VO 02VC 02MD 02MO 02MC 02RD 02RO	1	0	0.576169013977	221.0	-101.0	211	-101	1
2.7	2015_May_08_1446	s	s	6	5	SIC	317	RC	1	2	02VD 02VO 02VC 09MD 02MO 02MC 02RD 02RO	1	0	1.58334112167	-350.0	-394.0	-356	-389	1
2.7	2015_May_08_1446	s	s	6	5	SIC	318	ABS	0	1	02VD 02VO 02VC 02MD 02MO 02MC 02RD 10RO	0	1	3.14207601547	None	None	None	None	1
2.7	2015_May_08_1446	s	s	6	5	SIC	319	RC	0	1	02VD 02VO 02VC 02MD 02MO 02MC 02RD 09RO	1	0	1.1149289608	-126.0	397.0	-135	401	1
2.7	2015_May_08_1446	s	s	6	5	SIC	320	ABS	2	2	10VD 02VO 02VC 02MD 02MO 02MC 02RD 02RO	0	1	1.94146513939	None	None	None	None	1
2.7	2015_May_08_1446	s	s	6	5	SIC	321	ABS	2	2	10VD 02VO 02VC 02MD 02MO 02MC 02RD 02RO	0	1	2.10139083862	None	None	None	None	1
2.7	2015_May_08_1446	s	s	6	5	SIC	322	RC	2	1	02VD 09VO 02VC 02MD 02MO 02MC 02RD 02RO	1	0	0.780033826828	147.0	137.0	143	138	1
2.7	2015_May_08_1446	s	s	6	5	SIC	323	RC	2	2	09VD 02VO 02VC 02MD 02MO 02MC 02RD 02RO	1	0	0.53594994545	104.0	271.0	105	264	1
2.7	2015_May_08_1446	s	s	6	5	SIC	324	ABS	1	1	02VD 02VO 02VC 02MD 10MO 02MC 02RD 02RO	0	1	2.99521994591	None	None	None	None	1
2.7	2015_May_08_1446	s	s	6	5	SIC	325	ABS	1	2	02VD 02VO 02VC 10MD 02MO 02MC 02RD 02RO	0	1	1.8354549408	None	None	None	None	1
2.7	2015_May_08_1446	s	s	6	5	SIC	326	ABS	0	1	02VD 02VO 02VC 02MD 02MO 02MC 02RD 10RO	0	1	4.86064004898	None	None	None	None	1
2.7	2015_May_08_1446	s	s	6	5	SIC	327	RC	0	1	02VD 02VO 02VC 02MD 02MO 02MC 02RD 09RO	1	0	1.56001496315	286.0	217.0	281	219	1
2.7	2015_May_08_1446	s	s	6	5	SIC	328	ABS	2	1	02VD 10VO 02VC 02MD 02MO 02MC 02RD 02RO	0	1	4.31606602669	None	None	None	None	1
2.7	2015_May_08_1446	s	s	6	5	SIC	329	RC	0	2	02VD 02VO 02VC 02MD 02MO 02MC 09RD 02RO	1	0	1.58836603165	220.0	-409.0	228	-412	1
2.7	2015_May_08_1446	s	s	6	5	SIC	330	ABS	2	0	02VD 02VO 10VC 02MD 02MO 02MC 02RD 02RO	0	1	2.41266393661	None	None	None	None	1
2.7	2015_May_08_1446	s	s	6	5	SIC	331	RC	1	1	02VD 02VO 02VC 02MD 09MO 02MC 02RD 02RO	1	0	1.67076706886	458.0	45.0	448	46	1
2.7	2015_May_08_1446	s	s	6	5	SIC	332	ABS	1	0	02VD 02VO 02VC 02MD 02MO 10MC 02RD 02RO	0	1	3.08341407776	None	None	None	None	1
2.7	2015_May_08_1446	s	s	6	5	SIC	333	RC	1	2	02VD 02VO 02VC 09MD 02MO 02MC 02RD 02RO	1	0	0.693823814392	60.0	-90.0	67	-85	1
2.7	2015_May_08_1446	s	s	6	5	SIC	334	RC	1	0	02VD 02VO 02VC 02MD 02MO 09MC 02RD 02RO	1	0	1.04131197929	315.0	-323.0	314	-323	1
2.7	2015_May_08_1446	s	s	6	5	SIC	335	RC	2	0	02VD 02VO 09VC 02MD 02MO 02MC 02RD 02RO	1	0	1.16472196579	-238.0	385.0	-244	385	1
2.7	2015_May_08_1446	s	s	6	5	SIC	336	ABS	0	2	02VD 02VO 02VC 02MD 02MO 02MC 10RD 02RO	0	1	2.04301309586	None	None	None	None	1
2.7	2015_May_08_1446	s	s	6	5	SIC	337	ABS	0	2	02VD 02VO 02VC 02MD 02MO 02MC 10RD 02RO	0	1	2.24270415306	None	None	None	None	1
2.7	2015_May_08_1446	s	s	6	5	SIC	338	ABS	2	1	02VD 10VO 02VC 02MD 02MO 02MC 02RD 02RO	0	1	1.46581816673	None	None	None	None	1
2.7	2015_May_08_1446	s	s	6	5	SIC	339	ABS	1	0	02VD 02VO 02VC 02MD 02MO 10MC 02RD 02RO	0	1	3.93066191673	None	None	None	None	1
2.7	2015_May_08_1446	s	s	6	5	SIC	340	ABS	0	1	02VD 02VO 02VC 02MD 02MO 02MC 02RD 10RO	0	1	3.3834540844	None	None	None	None	1
2.7	2015_May_08_1446	s	s	6	5	SIC	341	ABS	2	2	10VD 02VO 02VC 02MD 02MO 02MC 02RD 02RO	0	1	2.70659804344	None	None	None	None	1
2.7	2015_May_08_1446	s	s	6	5	SIC	342	ABS	2	0	02VD 02VO 10VC 02MD 02MO 02MC 02RD 02RO	0	1	2.17202305794	None	None	None	None	1
2.7	2015_May_08_1446	s	s	6	5	SIC	343	RC	1	2	02VD 02VO 02VC 09MD 02MO 02MC 02RD 02RO	1	0	0.64675784111	-84.0	-26.0	-96	-25	1
2.7	2015_May_08_1446	s	s	6	5	SIC	344	RC	2	1	02VD 09VO 02VC 02MD 02MO 02MC 02RD 02RO	1	0	1.72964501381	529.0	282.0	522	291	1
2.7	2015_May_08_1446	s	s	6	5	SIC	345	RC	0	1	02VD 02VO 02VC 02MD 02MO 02MC 02RD 09RO	1	0	1.12700891495	410.0	-151.0	398	-149	1
2.7	2015_May_08_1446	s	s	6	5	SIC	346	RC	2	2	09VD 02VO 02VC 02MD 02MO 02MC 02RD 02RO	1	0	0.84678196907	414.0	-271.0	410	-280	1
2.7	2015_May_08_1446	s	s	6	5	SIC	347	RC	1	0	02VD 02VO 02VC 02MD 02MO 09MC 02RD 02RO	1	0	1.85424494743	523.0	-65.0	523	-56	1
2.7	2015_May_08_1446	s	s	6	5	SIC	348	RC	0	2	02VD 02VO 02VC 02MD 02MO 02MC 09RD 02RO	1	0	2.44257998466	-400.0	-130.0	-403	-128	1
2.7	2015_May_08_1446	s	s	6	5	SIC	349	RC	1	1	02VD 02VO 02VC 02MD 09MO 02MC 02RD 02RO	1	0	0.67029094696	-119.0	186.0	-113	188	1
2.7	2015_May_08_1446	s	s	6	5	SIC	350	RC	2	0	02VD 02VO 09VC 02MD 02MO 02MC 02RD 02RO	1	0	0.865557193756	292.0	241.0	291	246	1
2.7	2015_May_08_1446	s	s	6	5	SIC	351	ABS	1	2	02VD 02VO 02VC 10MD 02MO 02MC 02RD 02RO	0	1	2.10190796852	None	None	None	None	1
2.7	2015_May_08_1446	s	s	6	5	SIC	352	ABS	1	1	02VD 02VO 02VC 02MD 10MO 02MC 02RD 02RO	0	1	2.87122488022	None	None	None	None	1
2.7	2015_May_08_1446	s	s	6	5	SIC	353	RC	1	0	02VD 02VO 02VC 02MD 02MO 09MC 02RD 02RO	1	0	0.818409919739	218.0	29.0	217	35	1
2.7	2015_May_08_1446	s	s	6	5	SIC	354	RC	0	1	02VD 02VO 02VC 02MD 02MO 02MC 02RD 09RO	1	0	2.68309807777	-440.0	-296.0	-438	-287	1
2.7	2015_May_08_1446	s	s	6	5	SIC	355	RC	0	2	02VD 02VO 02VC 02MD 02MO 02MC 09RD 02RO	1	0	2.76313209534	-41.0	336.0	-49	340	1
2.7	2015_May_08_1446	s	s	6	5	SIC	356	ABS	1	2	02VD 02VO 02VC 10MD 02MO 02MC 02RD 02RO	0	1	1.78356790543	None	None	None	None	1
2.7	2015_May_08_1446	s	s	6	5	SIC	357	ABS	2	1	02VD 10VO 02VC 02MD 02MO 02MC 02RD 02RO	0	1	1.79608917236	None	None	None	None	1
2.7	2015_May_08_1446	s	s	6	5	SIC	358	ABS	1	0	02VD 02VO 02VC 02MD 02MO 10MC 02RD 02RO	0	1	4.08380103111	None	None	None	None	1
2.7	2015_May_08_1446	s	s	6	5	SIC	359	ABS	1	1	02VD 02VO 02VC 02MD 10MO 02MC 02RD 02RO	0	1	2.31479406357	None	None	None	None	1
2.7	2015_May_08_1446	s	s	6	5	SIC	360	RC	2	0	02VD 02VO 09VC 02MD 02MO 02MC 02RD 02RO	1	0	0.976344823837	-420.0	-145.0	-432	-144	1
2.7	2015_May_08_1446	s	s	6	5	SIC	361	RC	1	2	02VD 02VO 02VC 09MD 02MO 02MC 02RD 02RO	1	0	0.89400601387	-213.0	116.0	-206	111	1
2.7	2015_May_08_1446	s	s	6	5	SIC	362	ABS	0	1	02VD 02VO 02VC 02MD 02MO 02MC 02RD 10RO	0	1	2.81637501717	None	None	None	None	1
2.7	2015_May_08_1446	s	s	6	5	SIC	363	RC	1	1	02VD 02VO 02VC 02MD 09MO 02MC 02RD 02RO	1	0	0.759601831436	9.0	117.0	-5	123	1
2.7	2015_May_08_1446	s	s	6	5	SIC	364	RC	2	1	02VD 09VO 02VC 02MD 02MO 02MC 02RD 02RO	1	0	0.841368913651	-35.0	-80.0	-24	-79	1
2.7	2015_May_08_1446	s	s	6	5	SIC	365	ABS	2	2	10VD 02VO 02VC 02MD 02MO 02MC 02RD 02RO	0	1	1.80935502052	None	None	None	None	1
2.7	2015_May_08_1446	s	s	6	5	SIC	366	RC	2	2	09VD 02VO 02VC 02MD 02MO 02MC 02RD 02RO	1	0	1.52201390266	-495.0	399.0	-491	395	1
2.7	2015_May_08_1446	s	s	6	5	SIC	367	ABS	2	0	02VD 02VO 10VC 02MD 02MO 02MC 02RD 02RO	0	1	2.12981009483	None	None	None	None	1
2.7	2015_May_08_1446	s	s	6	5	SIC	368	ABS	0	2	02VD 02VO 02VC 02MD 02MO 02MC 10RD 02RO	0	1	1.88030600548	None	None	None	None	1
2.7	2015_May_08_1446	s	s	6	5	SIC	369	RC	2	2	09VD 02VO 02VC 02MD 02MO 02MC 02RD 02RO	1	0	0.947621822357	-519.0	-94.0	-531	-93	1
2.7	2015_May_08_1446	s	s	6	5	SIC	370	ABS	2	2	10VD 02VO 02VC 02MD 02MO 02MC 02RD 02RO	0	1	1.94540190697	None	None	None	None	1
2.7	2015_May_08_1446	s	s	6	5	SIC	371	ABS	1	1	02VD 02VO 02VC 02MD 10MO 02MC 02RD 02RO	0	1	2.11589193344	None	None	None	None	1
2.7	2015_May_08_1446	s	s	6	5	SIC	372	RC	2	1	02VD 09VO 02VC 02MD 02MO 02MC 02RD 02RO	1	0	0.855875015259	-274.0	65.0	-267	61	1
2.7	2015_May_08_1446	s	s	6	5	SIC	373	RC	2	0	02VD 02VO 09VC 02MD 02MO 02MC 02RD 02RO	1	0	1.48246693611	527.0	-9.0	530	-7	1
2.7	2015_May_08_1446	s	s	6	5	SIC	374	ABS	2	1	02VD 10VO 02VC 02MD 02MO 02MC 02RD 02RO	0	1	1.91437315941	None	None	None	None	1
2.7	2015_May_08_1446	s	s	6	5	SIC	375	RC	0	1	02VD 02VO 02VC 02MD 02MO 02MC 02RD 09RO	1	0	1.14798307419	-455.0	-42.0	-451	-36	1
2.7	2015_May_08_1446	s	s	6	5	SIC	376	ABS	2	0	02VD 02VO 10VC 02MD 02MO 02MC 02RD 02RO	0	1	2.34169888496	None	None	None	None	1
2.7	2015_May_08_1446	s	s	6	5	SIC	377	ABS	0	2	02VD 02VO 02VC 02MD 02MO 02MC 10RD 02RO	0	1	2.2593319416	None	None	None	None	1
2.7	2015_May_08_1446	s	s	6	5	SIC	378	RC	1	2	02VD 02VO 02VC 09MD 02MO 02MC 02RD 02RO	1	0	0.915167093277	-326.0	334.0	-330	343	1
2.7	2015_May_08_1446	s	s	6	5	SIC	379	ABS	1	2	02VD 02VO 02VC 10MD 02MO 02MC 02RD 02RO	0	1	1.83240509033	None	None	None	None	1
2.7	2015_May_08_1446	s	s	6	5	SIC	380	RC	0	2	02VD 02VO 02VC 02MD 02MO 02MC 09RD 02RO	1	0	1.67769002914	350.0	-365.0	349	-364	1
2.7	2015_May_08_1446	s	s	6	5	SIC	381	ABS	1	0	02VD 02VO 02VC 02MD 02MO 10MC 02RD 02RO	0	1	3.39616179466	None	None	None	None	1
2.7	2015_May_08_1446	s	s	6	5	SIC	382	RC	1	0	02VD 02VO 02VC 02MD 02MO 09MC 02RD 02RO	1	0	1.94789600372	495.0	-394.0	502	-391	1
2.7	2015_May_08_1446	s	s	6	5	SIC	383	RC	1	1	02VD 02VO 02VC 02MD 09MO 02MC 02RD 02RO	1	0	2.25439810753	143.0	268.0	134	269	1
2.7	2015_May_08_1446	s	s	6	5	SIC	384	ABS	0	1	02VD 02VO 02VC 02MD 02MO 02MC 02RD 10RO	0	1	2.91840291023	None	None	None	None	1
2.7	2015_May_08_1446	s	s	6	5	SIC	385	RC	0	2	02VD 02VO 02VC 02MD 02MO 02MC 09RD 02RO	1	0	0.747792005539	437.0	8.0	449	9	1
2.7	2015_May_08_1446	s	s	6	5	SIC	386	RC	2	2	09VD 02VO 02VC 02MD 02MO 02MC 02RD 02RO	1	0	1.23520994186	538.0	-186.0	529	-180	1
2.7	2015_May_08_1446	s	s	6	5	SIC	387	ABS	1	1	02VD 02VO 02VC 02MD 10MO 02MC 02RD 02RO	0	1	2.52542495728	None	None	None	None	1
2.7	2015_May_08_1446	s	s	6	5	SIC	388	ABS	0	2	02VD 02VO 02VC 02MD 02MO 02MC 10RD 02RO	0	1	1.94976592064	None	None	None	None	1
2.7	2015_May_08_1446	s	s	6	5	SIC	389	RC	0	1	02VD 02VO 02VC 02MD 02MO 02MC 02RD 09RO	1	0	1.7648358345	-4.0	-242.0	0	-237	1
2.7	2015_May_08_1446	s	s	6	5	SIC	390	ABS	2	1	02VD 10VO 02VC 02MD 02MO 02MC 02RD 02RO	0	1	2.47806811333	None	None	None	None	1
2.7	2015_May_08_1446	s	s	6	5	SIC	391	ABS	2	0	02VD 02VO 10VC 02MD 02MO 02MC 02RD 02RO	0	1	1.95973920822	None	None	None	None	1
2.7	2015_May_08_1446	s	s	6	5	SIC	392	ABS	1	2	02VD 02VO 02VC 10MD 02MO 02MC 02RD 02RO	0	1	1.70332312584	None	None	None	None	1
2.7	2015_May_08_1446	s	s	6	5	SIC	393	ABS	2	2	10VD 02VO 02VC 02MD 02MO 02MC 02RD 02RO	0	1	1.84730911255	None	None	None	None	1
2.7	2015_May_08_1446	s	s	6	5	SIC	394	RC	1	0	02VD 02VO 02VC 02MD 02MO 09MC 02RD 02RO	1	0	0.87646985054	454.0	244.0	447	243	1
2.7	2015_May_08_1446	s	s	6	5	SIC	395	RC	2	1	02VD 09VO 02VC 02MD 02MO 02MC 02RD 02RO	1	0	0.806506872177	301.0	392.0	297	391	1
2.7	2015_May_08_1446	s	s	6	5	SIC	396	RC	2	0	02VD 02VO 09VC 02MD 02MO 02MC 02RD 02RO	1	0	0.950353145599	-403.0	170.0	-397	167	1
2.7	2015_May_08_1446	s	s	6	5	SIC	397	RC	1	2	02VD 02VO 02VC 09MD 02MO 02MC 02RD 02RO	1	0	1.01186084747	233.0	-358.0	235	-353	1
2.7	2015_May_08_1446	s	s	6	5	SIC	398	ABS	1	0	02VD 02VO 02VC 02MD 02MO 10MC 02RD 02RO	0	1	2.8428208828	None	None	None	None	1
2.7	2015_May_08_1446	s	s	6	5	SIC	399	RC	1	1	02VD 02VO 02VC 02MD 09MO 02MC 02RD 02RO	1	0	1.03041005135	-331.0	233.0	-343	237	1
2.7	2015_May_08_1446	s	s	6	5	SIC	400	ABS	0	1	02VD 02VO 02VC 02MD 02MO 02MC 02RD 10RO	0	1	3.46654701233	None	None	None	None	1
2.7	2015_May_08_1446	s	s	6	5	SIC	401	RC	1	2	02VD 02VO 02VC 09MD 02MO 02MC 02RD 02RO	1	0	2.3486020565	-523.0	-130.0	-514	-132	1
2.7	2015_May_08_1446	s	s	6	5	SIC	402	RC	1	0	02VD 02VO 02VC 02MD 02MO 09MC 02RD 02RO	1	0	2.76139807701	-341.0	360.0	-333	360	1
2.7	2015_May_08_1446	s	s	6	5	SIC	403	ABS	0	2	02VD 02VO 02VC 02MD 02MO 02MC 10RD 02RO	0	1	1.97438097	None	None	None	None	1
2.7	2015_May_08_1446	s	s	6	5	SIC	404	RC	2	2	09VD 02VO 02VC 02MD 02MO 02MC 02RD 02RO	1	0	0.787935972214	-289.0	234.0	-290	235	1
2.7	2015_May_08_1446	s	s	6	5	SIC	405	ABS	1	0	02VD 02VO 02VC 02MD 02MO 10MC 02RD 02RO	0	1	2.46800208092	None	None	None	None	1
2.7	2015_May_08_1446	s	s	6	5	SIC	406	RC	2	1	02VD 09VO 02VC 02MD 02MO 02MC 02RD 02RO	1	0	1.29408502579	-522.0	158.0	-526	165	1
2.7	2015_May_08_1446	s	s	6	5	SIC	407	ABS	2	2	10VD 02VO 02VC 02MD 02MO 02MC 02RD 02RO	0	1	2.171916008	None	None	None	None	1
2.7	2015_May_08_1446	s	s	6	5	SIC	408	RC	2	0	02VD 02VO 09VC 02MD 02MO 02MC 02RD 02RO	1	0	1.58834910393	533.0	189.0	532	184	1
2.7	2015_May_08_1446	s	s	6	5	SIC	409	ABS	2	1	02VD 10VO 02VC 02MD 02MO 02MC 02RD 02RO	0	1	2.24752688408	None	None	None	None	1
2.7	2015_May_08_1446	s	s	6	5	SIC	410	RC	0	2	02VD 02VO 02VC 02MD 02MO 02MC 09RD 02RO	1	0	0.64671587944	-132.0	339.0	-142	337	1
2.7	2015_May_08_1446	s	s	6	5	SIC	411	ABS	1	2	02VD 02VO 02VC 10MD 02MO 02MC 02RD 02RO	0	1	2.07487201691	None	None	None	None	1
2.7	2015_May_08_1446	s	s	6	5	SIC	412	ABS	2	0	02VD 02VO 10VC 02MD 02MO 02MC 02RD 02RO	0	1	2.34154105186	None	None	None	None	1
2.7	2015_May_08_1446	s	s	6	5	SIC	413	ABS	0	1	02VD 02VO 02VC 02MD 02MO 02MC 02RD 10RO	0	1	3.44008708	None	None	None	None	1
2.7	2015_May_08_1446	s	s	6	5	SIC	414	ABS	1	1	02VD 02VO 02VC 02MD 10MO 02MC 02RD 02RO	0	1	2.45430493355	None	None	None	None	1
2.7	2015_May_08_1446	s	s	6	5	SIC	415	RC	1	1	02VD 02VO 02VC 02MD 09MO 02MC 02RD 02RO	1	0	2.28285098076	227.0	-394.0	216	-387	1
2.7	2015_May_08_1446	s	s	6	5	SIC	416	RC	0	1	02VD 02VO 02VC 02MD 02MO 02MC 02RD 09RO	1	0	2.17201900482	529.0	225.0	520	224	1
2.7	2015_May_08_1446	s	s	6	5	SIC	417	RC	1	2	02VD 02VO 02VC 09MD 02MO 02MC 02RD 02RO	1	0	1.14804410934	-220.0	-90.0	-222	-93	1
2.7	2015_May_08_1446	s	s	6	5	SIC	418	RC	0	1	02VD 02VO 02VC 02MD 02MO 02MC 02RD 09RO	1	0	0.846888065338	170.0	180.0	164	178	1
2.7	2015_May_08_1446	s	s	6	5	SIC	419	RC	2	0	02VD 02VO 09VC 02MD 02MO 02MC 02RD 02RO	1	0	0.697654008865	365.0	316.0	367	311	1
2.7	2015_May_08_1446	s	s	6	5	SIC	420	RC	2	2	09VD 02VO 02VC 02MD 02MO 02MC 02RD 02RO	1	0	0.693790197372	426.0	359.0	431	359	1
2.7	2015_May_08_1446	s	s	6	5	SIC	421	ABS	1	0	02VD 02VO 02VC 02MD 02MO 10MC 02RD 02RO	0	1	3.11499404907	None	None	None	None	1
2.7	2015_May_08_1446	s	s	6	5	SIC	422	ABS	2	1	02VD 10VO 02VC 02MD 02MO 02MC 02RD 02RO	0	1	3.19608306885	None	None	None	None	1
2.7	2015_May_08_1446	s	s	6	5	SIC	423	ABS	0	1	02VD 02VO 02VC 02MD 02MO 02MC 02RD 10RO	0	1	2.6476829052	None	None	None	None	1
2.7	2015_May_08_1446	s	s	6	5	SIC	424	ABS	1	2	02VD 02VO 02VC 10MD 02MO 02MC 02RD 02RO	0	1	2.0592250824	None	None	None	None	1
2.7	2015_May_08_1446	s	s	6	5	SIC	425	RC	2	1	02VD 09VO 02VC 02MD 02MO 02MC 02RD 02RO	1	0	1.0538380146	107.0	-170.0	102	-161	1
2.7	2015_May_08_1446	s	s	6	5	SIC	426	ABS	2	0	02VD 02VO 10VC 02MD 02MO 02MC 02RD 02RO	0	1	2.47124695778	None	None	None	None	1
2.7	2015_May_08_1446	s	s	6	5	SIC	427	RC	1	0	02VD 02VO 02VC 02MD 02MO 09MC 02RD 02RO	1	0	3.14596009254	518.0	-360.0	526	-354	1
2.7	2015_May_08_1446	s	s	6	5	SIC	428	ABS	0	2	02VD 02VO 02VC 02MD 02MO 02MC 10RD 02RO	0	1	1.56477808952	None	None	None	None	1
2.7	2015_May_08_1446	s	s	6	5	SIC	429	ABS	1	1	02VD 02VO 02VC 02MD 10MO 02MC 02RD 02RO	0	1	3.22016906738	None	None	None	None	1
2.7	2015_May_08_1446	s	s	6	5	SIC	430	RC	1	1	02VD 02VO 02VC 02MD 09MO 02MC 02RD 02RO	1	0	0.995412111282	-35.0	56.0	-31	47	1
2.7	2015_May_08_1446	s	s	6	5	SIC	431	RC	0	2	02VD 02VO 02VC 02MD 02MO 02MC 09RD 02RO	1	0	1.68939614296	-398.0	0.0	-404	-2	1
2.7	2015_May_08_1446	s	s	6	5	SIC	432	ABS	2	2	10VD 02VO 02VC 02MD 02MO 02MC 02RD 02RO	0	1	1.93627715111	None	None	None	None	1
2.7	2015_May_08_1446	s	s	6	5	SIC	433	RC	0	1	02VD 02VO 02VC 02MD 02MO 02MC 02RD 09RO	1	0	2.40741586685	454.0	219.0	447	218	1
2.7	2015_May_08_1446	s	s	6	5	SIC	434	RC	2	1	02VD 09VO 02VC 02MD 02MO 02MC 02RD 02RO	1	0	1.00897812843	-91.0	324.0	-89	326	1
2.7	2015_May_08_1446	s	s	6	5	SIC	435	ABS	0	2	02VD 02VO 02VC 02MD 02MO 02MC 10RD 02RO	0	1	1.53576588631	None	None	None	None	1
2.7	2015_May_08_1446	s	s	6	5	SIC	436	ABS	1	1	02VD 02VO 02VC 02MD 10MO 02MC 02RD 02RO	0	1	2.41226291656	None	None	None	None	1
2.7	2015_May_08_1446	s	s	6	5	SIC	437	ABS	2	2	10VD 02VO 02VC 02MD 02MO 02MC 02RD 02RO	0	1	2.4074409008	None	None	None	None	1
2.7	2015_May_08_1446	s	s	6	5	SIC	438	RC	1	1	02VD 02VO 02VC 02MD 09MO 02MC 02RD 02RO	1	0	1.12933087349	-437.0	303.0	-437	300	1
2.7	2015_May_08_1446	s	s	6	5	SIC	439	RC	2	0	02VD 02VO 09VC 02MD 02MO 02MC 02RD 02RO	1	0	0.705600976944	-117.0	44.0	-125	45	1
2.7	2015_May_08_1446	s	s	6	5	SIC	440	RC	0	2	02VD 02VO 02VC 02MD 02MO 02MC 09RD 02RO	1	0	0.959638834	-146.0	90.0	-149	99	1
2.7	2015_May_08_1446	s	s	6	5	SIC	441	ABS	2	1	02VD 10VO 02VC 02MD 02MO 02MC 02RD 02RO	0	1	1.77667307854	None	None	None	None	1
2.7	2015_May_08_1446	s	s	6	5	SIC	442	RC	1	0	02VD 02VO 02VC 02MD 02MO 09MC 02RD 02RO	1	0	1.41943502426	-247.0	-290.0	-247	-292	1
2.7	2015_May_08_1446	s	s	6	5	SIC	443	RC	1	2	02VD 02VO 02VC 09MD 02MO 02MC 02RD 02RO	1	0	1.49420785904	425.0	-369.0	426	-382	1
2.7	2015_May_08_1446	s	s	6	5	SIC	444	RC	2	2	09VD 02VO 02VC 02MD 02MO 02MC 02RD 02RO	1	0	1.22345089912	-304.0	309.0	-303	302	1
2.7	2015_May_08_1446	s	s	6	5	SIC	445	ABS	1	0	02VD 02VO 02VC 02MD 02MO 10MC 02RD 02RO	0	1	3.1420879364	None	None	None	None	1
2.7	2015_May_08_1446	s	s	6	5	SIC	446	ABS	2	0	02VD 02VO 10VC 02MD 02MO 02MC 02RD 02RO	0	1	5.425593853	None	None	None	None	1
2.7	2015_May_08_1446	s	s	6	5	SIC	447	ABS	1	2	02VD 02VO 02VC 10MD 02MO 02MC 02RD 02RO	0	1	2.36028409004	None	None	None	None	1
2.7	2015_May_08_1446	s	s	6	5	SIC	448	ABS	0	1	02VD 02VO 02VC 02MD 02MO 02MC 02RD 10RO	0	1	2.93064904213	None	None	None	None	1
2.7	2015_May_08_1446	s	s	6	5	SIC	449	ABS	2	1	02VD 10VO 02VC 02MD 02MO 02MC 02RD 02RO	0	1	1.83555102348	None	None	None	None	1
2.7	2015_May_08_1446	s	s	6	5	SIC	450	ABS	1	2	02VD 02VO 02VC 10MD 02MO 02MC 02RD 02RO	0	1	1.84220695496	None	None	None	None	1
2.7	2015_May_08_1446	s	s	6	5	SIC	451	ABS	0	1	02VD 02VO 02VC 02MD 02MO 02MC 02RD 10RO	0	1	2.70659399033	None	None	None	None	1
2.7	2015_May_08_1446	s	s	6	5	SIC	452	RC	0	1	02VD 02VO 02VC 02MD 02MO 02MC 02RD 09RO	1	0	1.78402900696	-480.0	251.0	-477	254	1
2.7	2015_May_08_1446	s	s	6	5	SIC	453	ABS	1	1	02VD 02VO 02VC 02MD 10MO 02MC 02RD 02RO	0	1	2.46482110023	None	None	None	None	1
2.7	2015_May_08_1446	s	s	6	5	SIC	454	RC	2	0	02VD 02VO 09VC 02MD 02MO 02MC 02RD 02RO	1	0	0.764437913895	76.0	-132.0	67	-132	1
2.7	2015_May_08_1446	s	s	6	5	SIC	455	ABS	0	2	02VD 02VO 02VC 02MD 02MO 02MC 10RD 02RO	0	1	1.90171909332	None	None	None	None	1
2.7	2015_May_08_1446	s	s	6	5	SIC	456	RC	2	1	02VD 09VO 02VC 02MD 02MO 02MC 02RD 02RO	1	0	0.57611989975	-110.0	133.0	-117	133	1
2.7	2015_May_08_1446	s	s	6	5	SIC	457	ABS	2	2	10VD 02VO 02VC 02MD 02MO 02MC 02RD 02RO	0	1	1.41182398796	None	None	None	None	1
2.7	2015_May_08_1446	s	s	6	5	SIC	458	ABS	2	0	02VD 02VO 10VC 02MD 02MO 02MC 02RD 02RO	0	1	1.53637003899	None	None	None	None	1
2.7	2015_May_08_1446	s	s	6	5	SIC	459	ABS	1	0	02VD 02VO 02VC 02MD 02MO 10MC 02RD 02RO	0	1	3.45508599281	None	None	None	None	1
2.7	2015_May_08_1446	s	s	6	5	SIC	460	RC	1	1	02VD 02VO 02VC 02MD 09MO 02MC 02RD 02RO	1	0	2.18911790848	-398.0	-280.0	-398	-289	1
2.7	2015_May_08_1446	s	s	6	5	SIC	461	RC	1	2	02VD 02VO 02VC 09MD 02MO 02MC 02RD 02RO	1	0	1.06635499001	-375.0	-207.0	-368	-203	1
2.7	2015_May_08_1446	s	s	6	5	SIC	462	RC	2	2	09VD 02VO 02VC 02MD 02MO 02MC 02RD 02RO	1	0	1.04689192772	272.0	-408.0	279	-406	1
2.7	2015_May_08_1446	s	s	6	5	SIC	463	RC	0	2	02VD 02VO 02VC 02MD 02MO 02MC 09RD 02RO	1	0	0.712610006332	164.0	-240.0	161	-245	1
2.7	2015_May_08_1446	s	s	6	5	SIC	464	RC	1	0	02VD 02VO 02VC 02MD 02MO 09MC 02RD 02RO	1	0	2.78892803192	-187.0	350.0	-194	348	1
2.7	2015_May_08_1446	s	s	6	5	SIC	465	ABS	1	1	02VD 02VO 02VC 02MD 10MO 02MC 02RD 02RO	0	1	3.99614095688	None	None	None	None	1
2.7	2015_May_08_1446	s	s	6	5	SIC	466	ABS	1	0	02VD 02VO 02VC 02MD 02MO 10MC 02RD 02RO	0	1	3.88014984131	None	None	None	None	1
2.7	2015_May_08_1446	s	s	6	5	SIC	467	RC	0	2	02VD 02VO 02VC 02MD 02MO 02MC 09RD 02RO	1	0	0.948307991028	164.0	-312.0	171	-306	1
2.7	2015_May_08_1446	s	s	6	5	SIC	468	ABS	2	2	10VD 02VO 02VC 02MD 02MO 02MC 02RD 02RO	0	1	2.10627698898	None	None	None	None	1
2.7	2015_May_08_1446	s	s	6	5	SIC	469	ABS	2	0	02VD 02VO 10VC 02MD 02MO 02MC 02RD 02RO	0	1	2.17204999924	None	None	None	None	1
2.7	2015_May_08_1446	s	s	6	5	SIC	470	RC	2	2	09VD 02VO 02VC 02MD 02MO 02MC 02RD 02RO	1	0	0.776143074036	-209.0	68.0	-202	76	1
2.7	2015_May_08_1446	s	s	6	5	SIC	471	ABS	0	2	02VD 02VO 02VC 02MD 02MO 02MC 10RD 02RO	0	1	1.76005387306	None	None	None	None	1
2.7	2015_May_08_1446	s	s	6	5	SIC	472	RC	1	1	02VD 02VO 02VC 02MD 09MO 02MC 02RD 02RO	1	0	0.715074062347	-123.0	-51.0	-124	-50	1
2.7	2015_May_08_1446	s	s	6	5	SIC	473	RC	0	1	02VD 02VO 02VC 02MD 02MO 02MC 02RD 09RO	1	0	0.521119832993	43.0	50.0	48	46	1
2.7	2015_May_08_1446	s	s	6	5	SIC	474	ABS	1	2	02VD 02VO 02VC 10MD 02MO 02MC 02RD 02RO	0	1	2.60795617104	None	None	None	None	1
2.7	2015_May_08_1446	s	s	6	5	SIC	475	ABS	2	1	02VD 10VO 02VC 02MD 02MO 02MC 02RD 02RO	0	1	2.10138702393	None	None	None	None	1
2.7	2015_May_08_1446	s	s	6	5	SIC	476	RC	2	0	02VD 02VO 09VC 02MD 02MO 02MC 02RD 02RO	1	0	0.818302869797	31.0	-129.0	35	-131	1
2.7	2015_May_08_1446	s	s	6	5	SIC	477	ABS	0	1	02VD 02VO 02VC 02MD 02MO 02MC 02RD 10RO	0	1	3.3539981842	None	None	None	None	1
2.7	2015_May_08_1446	s	s	6	5	SIC	478	RC	2	1	02VD 09VO 02VC 02MD 02MO 02MC 02RD 02RO	1	0	1.25426983833	170.0	331.0	178	328	1
2.7	2015_May_08_1446	s	s	6	5	SIC	479	RC	1	2	02VD 02VO 02VC 09MD 02MO 02MC 02RD 02RO	1	0	0.90075802803	375.0	229.0	381	226	1
2.7	2015_May_08_1446	s	s	6	5	SIC	480	RC	1	0	02VD 02VO 02VC 02MD 02MO 09MC 02RD 02RO	1	0	2.00035905838	-510.0	117.0	-521	119	1
