Version	Date	Stimuli	Method	Subject	Session	Condition	Trial	Target	Channel1	Channel2	Distractors	LMouseButton	RMouseButton	RT	TargetX	TargetY	ResponseX	ResponseY	Correct
2.7	2015_May_04_1505	s	s	6	1	Capacity	1	ABS	0	1	08RD 16RO	0	1	4.84394788742	None	None	None	None	1
2.7	2015_May_04_1505	s	s	6	1	Capacity	2	RC	0	1	08RD 15RO	1	0	2.40065789223	440.0	322.0	443	330	1
2.7	2015_May_04_1505	s	s	6	1	Capacity	3	ABS	0	2	16RD 08RO	0	1	5.45587515831	None	None	None	None	1
2.7	2015_May_04_1505	s	s	6	1	Capacity	4	RC	0	2	15RD 08RO	1	0	2.80077004433	409.0	188.0	417	183	1
2.7	2015_May_04_1505	s	s	6	1	Capacity	5	ABS	0	1	08RD 16RO	0	1	8.35651016235	None	None	None	None	1
2.7	2015_May_04_1505	s	s	6	1	Capacity	6	ABS	0	2	16RD 08RO	0	1	7.72088503838	None	None	None	None	1
2.7	2015_May_04_1505	s	s	6	1	Capacity	7	RC	0	1	08RD 15RO	1	0	2.69121599197	159.0	-96.0	159	-96	1
2.7	2015_May_04_1505	s	s	6	1	Capacity	8	RC	0	2	15RD 08RO	0	1	1.84279108047	528.0	-366.0	None	None	0
2.7	2015_May_04_1505	s	s	6	1	Capacity	9	RC	0	1	08RD 15RO	1	0	2.64778804779	-203.0	312.0	-202	314	1
2.7	2015_May_04_1505	s	s	6	1	Capacity	10	RC	0	2	15RD 08RO	1	0	1.64718794823	-514.0	153.0	-519	157	1
2.7	2015_May_04_1505	s	s	6	1	Capacity	11	ABS	0	2	16RD 08RO	0	1	5.58493995667	None	None	None	None	1
2.7	2015_May_04_1505	s	s	6	1	Capacity	12	ABS	0	1	08RD 16RO	0	1	9.01057600975	None	None	None	None	1
2.7	2015_May_04_1505	s	s	6	1	Capacity	13	RC	0	1	08RD 15RO	1	0	2.68901705742	-360.0	-158.0	-359	-166	1
2.7	2015_May_04_1505	s	s	6	1	Capacity	14	ABS	0	2	16RD 08RO	0	1	5.61397385597	None	None	None	None	1
2.7	2015_May_04_1505	s	s	6	1	Capacity	15	ABS	0	1	08RD 16RO	0	1	9.49820590019	None	None	None	None	1
2.7	2015_May_04_1505	s	s	6	1	Capacity	16	RC	0	2	15RD 08RO	1	0	1.97688984871	122.0	-131.0	130	-134	1
2.7	2015_May_04_1505	s	s	6	1	Capacity	17	RC	0	1	08RD 15RO	1	0	1.60020709038	506.0	-20.0	505	-22	1
2.7	2015_May_04_1505	s	s	6	1	Capacity	18	ABS	0	2	16RD 08RO	0	1	3.84040307999	None	None	None	None	1
2.7	2015_May_04_1505	s	s	6	1	Capacity	19	RC	0	2	15RD 08RO	1	0	1.87086796761	508.0	289.0	515	284	1
2.7	2015_May_04_1505	s	s	6	1	Capacity	20	ABS	0	1	08RD 16RO	0	1	7.2215681076	None	None	None	None	1
2.7	2015_May_04_1505	s	s	6	1	Capacity	21	RC	0	1	08RD 15RO	1	0	3.07702207565	-336.0	339.0	-335	337	1
2.7	2015_May_04_1505	s	s	6	1	Capacity	22	ABS	0	1	08RD 16RO	0	1	6.89688706398	None	None	None	None	1
2.7	2015_May_04_1505	s	s	6	1	Capacity	23	ABS	0	2	16RD 08RO	0	1	3.79614210129	None	None	None	None	1
2.7	2015_May_04_1505	s	s	6	1	Capacity	24	RC	0	2	15RD 08RO	1	0	2.12486791611	457.0	-238.0	465	-242	1
2.7	2015_May_04_1505	s	s	6	1	Capacity	25	RC	0	1	08RD 15RO	1	0	3.57762789726	514.0	223.0	521	217	1
2.7	2015_May_04_1505	s	s	6	1	Capacity	26	RC	0	2	15RD 08RO	1	0	1.51771712303	155.0	-260.0	163	-255	1
2.7	2015_May_04_1505	s	s	6	1	Capacity	27	ABS	0	2	16RD 08RO	0	1	4.35456395149	None	None	None	None	1
2.7	2015_May_04_1505	s	s	6	1	Capacity	28	ABS	0	1	08RD 16RO	0	1	6.00225996971	None	None	None	None	1
2.7	2015_May_04_1505	s	s	6	1	Capacity	29	RC	0	1	08RD 15RO	1	0	3.05599594116	180.0	302.0	171	303	1
2.7	2015_May_04_1505	s	s	6	1	Capacity	30	ABS	0	2	16RD 08RO	0	1	3.70207500458	None	None	None	None	1
2.7	2015_May_04_1505	s	s	6	1	Capacity	31	RC	0	2	15RD 08RO	1	0	3.01012587547	26.0	284.0	27	274	1
2.7	2015_May_04_1505	s	s	6	1	Capacity	32	ABS	0	1	08RD 16RO	0	1	7.20296192169	None	None	None	None	1
2.7	2015_May_04_1505	s	s	6	1	Capacity	33	RC	0	1	08RD 15RO	1	0	2.20057797432	20.0	-63.0	25	-72	1
2.7	2015_May_04_1505	s	s	6	1	Capacity	34	ABS	0	2	16RD 08RO	0	1	3.3224799633	None	None	None	None	1
2.7	2015_May_04_1505	s	s	6	1	Capacity	35	ABS	0	1	08RD 16RO	0	1	6.57119894028	None	None	None	None	1
2.7	2015_May_04_1505	s	s	6	1	Capacity	36	RC	0	2	15RD 08RO	1	0	1.56530308723	374.0	-83.0	374	-87	1
2.7	2015_May_04_1505	s	s	6	1	Capacity	37	RC	0	2	15RD 08RO	1	0	1.35300087929	-144.0	215.0	-148	216	1
2.7	2015_May_04_1505	s	s	6	1	Capacity	38	RC	0	1	08RD 15RO	0	1	7.39507484436	0.0	-36.0	None	None	0
2.7	2015_May_04_1505	s	s	6	1	Capacity	39	ABS	0	2	16RD 08RO	0	1	3.1018819809	None	None	None	None	1
2.7	2015_May_04_1505	s	s	6	1	Capacity	40	ABS	0	1	08RD 16RO	0	1	5.57374191284	None	None	None	None	1
2.7	2015_May_04_1505	s	s	6	1	Capacity	41	RC	0	1	08RD 15RO	1	0	1.65420913696	458.0	-172.0	455	-170	1
2.7	2015_May_04_1505	s	s	6	1	Capacity	42	ABS	0	2	16RD 08RO	0	1	3.54231405258	None	None	None	None	1
2.7	2015_May_04_1505	s	s	6	1	Capacity	43	ABS	0	1	08RD 16RO	0	1	6.60045289993	None	None	None	None	1
2.7	2015_May_04_1505	s	s	6	1	Capacity	44	RC	0	2	15RD 08RO	1	0	2.54598402977	-124.0	-221.0	-115	-219	1
2.7	2015_May_04_1505	s	s	6	1	Capacity	45	ABS	0	2	16RD 08RO	0	1	3.94883799553	None	None	None	None	1
2.7	2015_May_04_1505	s	s	6	1	Capacity	46	RC	0	1	08RD 15RO	1	0	1.56483602524	390.0	-217.0	399	-215	1
2.7	2015_May_04_1505	s	s	6	1	Capacity	47	RC	0	2	15RD 08RO	1	0	1.25387310982	26.0	-330.0	33	-329	1
2.7	2015_May_04_1505	s	s	6	1	Capacity	48	ABS	0	1	08RD 16RO	0	1	7.04527997971	None	None	None	None	1
2.7	2015_May_04_1505	s	s	6	1	Capacity	49	ABS	0	1	08RD 16RO	0	1	5.59045815468	None	None	None	None	1
2.7	2015_May_04_1505	s	s	6	1	Capacity	50	RC	0	1	08RD 15RO	1	0	2.15019202232	7.0	-314.0	3	-307	1
2.7	2015_May_04_1505	s	s	6	1	Capacity	51	RC	0	2	15RD 08RO	1	0	0.94100689888	162.0	-110.0	167	-116	1
2.7	2015_May_04_1505	s	s	6	1	Capacity	52	ABS	0	2	16RD 08RO	0	1	2.90673112869	None	None	None	None	1
2.7	2015_May_04_1505	s	s	6	1	Capacity	53	ABS	0	2	16RD 08RO	0	1	3.3774869442	None	None	None	None	1
2.7	2015_May_04_1505	s	s	6	1	Capacity	54	ABS	0	1	08RD 16RO	0	1	6.07302093506	None	None	None	None	1
2.7	2015_May_04_1505	s	s	6	1	Capacity	55	RC	0	1	08RD 15RO	1	0	2.23566889763	303.0	-171.0	300	-175	1
2.7	2015_May_04_1505	s	s	6	1	Capacity	56	RC	0	2	15RD 08RO	1	0	2.58894300461	-527.0	167.0	-536	165	1
2.7	2015_May_04_1505	s	s	6	1	Capacity	57	RC	0	2	15RD 08RO	1	0	1.90151810646	369.0	-290.0	365	-286	1
2.7	2015_May_04_1505	s	s	6	1	Capacity	58	ABS	0	2	16RD 08RO	0	1	2.67773604393	None	None	None	None	1
2.7	2015_May_04_1505	s	s	6	1	Capacity	59	RC	0	1	08RD 15RO	1	0	2.85469818115	2.0	-398.0	7	-400	1
2.7	2015_May_04_1505	s	s	6	1	Capacity	60	ABS	0	1	08RD 16RO	0	1	6.47320318222	None	None	None	None	1
2.7	2015_May_04_1505	s	s	6	1	Capacity	61	ABS	0	1	08RD 16RO	0	1	4.90269494057	None	None	None	None	1
2.7	2015_May_04_1505	s	s	6	1	Capacity	62	RC	0	1	08RD 15RO	1	0	1.9414999485	378.0	-314.0	381	-311	1
2.7	2015_May_04_1505	s	s	6	1	Capacity	63	RC	0	2	15RD 08RO	1	0	2.9184088707	-202.0	122.0	-212	122	1
2.7	2015_May_04_1505	s	s	6	1	Capacity	64	ABS	0	2	16RD 08RO	0	1	3.54603505135	None	None	None	None	1
2.7	2015_May_04_1505	s	s	6	1	Capacity	1	RC	2	0	15VC 08MC	1	0	3.86011505127	288.0	-93.0	298	-95	1
2.7	2015_May_04_1505	s	s	6	1	Capacity	2	ABS	1	0	08VC 16MC	0	1	4.89285707474	None	None	None	None	1
2.7	2015_May_04_1505	s	s	6	1	Capacity	3	RC	1	0	08VC 15MC	1	0	2.05423116684	126.0	-253.0	131	-261	1
2.7	2015_May_04_1505	s	s	6	1	Capacity	4	ABS	2	0	16VC 08MC	0	1	5.70812010765	None	None	None	None	1
2.7	2015_May_04_1505	s	s	6	1	Capacity	5	RC	1	0	08VC 15MC	1	0	1.49843502045	81.0	-278.0	92	-276	1
2.7	2015_May_04_1505	s	s	6	1	Capacity	6	RC	2	0	15VC 08MC	1	0	3.14218187332	289.0	26.0	281	28	1
2.7	2015_May_04_1505	s	s	6	1	Capacity	7	ABS	2	0	16VC 08MC	0	1	3.64434099197	None	None	None	None	1
2.7	2015_May_04_1505	s	s	6	1	Capacity	8	ABS	1	0	08VC 16MC	0	1	5.15493202209	None	None	None	None	1
2.7	2015_May_04_1505	s	s	6	1	Capacity	9	RC	2	0	15VC 08MC	1	0	2.46614599228	241.0	277.0	248	275	1
2.7	2015_May_04_1505	s	s	6	1	Capacity	10	ABS	1	0	08VC 16MC	0	1	5.80225896835	None	None	None	None	1
2.7	2015_May_04_1505	s	s	6	1	Capacity	11	ABS	2	0	16VC 08MC	0	1	6.83381795883	None	None	None	None	1
2.7	2015_May_04_1505	s	s	6	1	Capacity	12	RC	1	0	08VC 15MC	1	0	5.06072187424	56.0	-129.0	57	-129	1
2.7	2015_May_04_1505	s	s	6	1	Capacity	13	ABS	2	0	16VC 08MC	0	1	5.57640600204	None	None	None	None	1
2.7	2015_May_04_1505	s	s	6	1	Capacity	14	ABS	1	0	08VC 16MC	0	1	13.7660059929	None	None	None	None	1
2.7	2015_May_04_1505	s	s	6	1	Capacity	15	RC	2	0	15VC 08MC	1	0	1.32946681976	286.0	-278.0	292	-280	1
2.7	2015_May_04_1505	s	s	6	1	Capacity	16	RC	1	0	08VC 15MC	1	0	1.86701798439	452.0	135.0	444	131	1
2.7	2015_May_04_1505	s	s	6	1	Capacity	17	ABS	2	0	16VC 08MC	0	1	4.055519104	None	None	None	None	1
2.7	2015_May_04_1505	s	s	6	1	Capacity	18	ABS	1	0	08VC 16MC	0	1	5.14997291565	None	None	None	None	1
2.7	2015_May_04_1505	s	s	6	1	Capacity	19	RC	1	0	08VC 15MC	1	0	2.43137121201	21.0	-403.0	32	-398	1
2.7	2015_May_04_1505	s	s	6	1	Capacity	20	RC	2	0	15VC 08MC	1	0	2.66816186905	171.0	402.0	178	402	1
2.7	2015_May_04_1505	s	s	6	1	Capacity	21	ABS	1	0	08VC 16MC	0	1	4.95265412331	None	None	None	None	1
2.7	2015_May_04_1505	s	s	6	1	Capacity	22	RC	1	0	08VC 15MC	1	0	2.4241309166	-109.0	-295.0	-111	-302	1
2.7	2015_May_04_1505	s	s	6	1	Capacity	23	ABS	2	0	16VC 08MC	0	1	3.29186296463	None	None	None	None	1
2.7	2015_May_04_1505	s	s	6	1	Capacity	24	RC	2	0	15VC 08MC	1	0	2.92525100708	472.0	121.0	477	112	1
2.7	2015_May_04_1505	s	s	6	1	Capacity	25	RC	2	0	15VC 08MC	1	0	1.61874890327	-174.0	-167.0	-170	-159	1
2.7	2015_May_04_1505	s	s	6	1	Capacity	26	RC	1	0	08VC 15MC	1	0	1.52947306633	-454.0	288.0	-456	287	1
2.7	2015_May_04_1505	s	s	6	1	Capacity	27	ABS	1	0	08VC 16MC	0	1	4.37362504005	None	None	None	None	1
2.7	2015_May_04_1505	s	s	6	1	Capacity	28	ABS	2	0	16VC 08MC	0	1	3.41961503029	None	None	None	None	1
2.7	2015_May_04_1505	s	s	6	1	Capacity	29	ABS	1	0	08VC 16MC	0	1	5.61921000481	None	None	None	None	1
2.7	2015_May_04_1505	s	s	6	1	Capacity	30	ABS	2	0	16VC 08MC	0	1	6.50854492188	None	None	None	None	1
2.7	2015_May_04_1505	s	s	6	1	Capacity	31	RC	2	0	15VC 08MC	1	0	1.18325281143	-473.0	-302.0	-478	-296	1
2.7	2015_May_04_1505	s	s	6	1	Capacity	32	RC	1	0	08VC 15MC	0	1	2.25707983971	-439.0	-274.0	None	None	0
2.7	2015_May_04_1505	s	s	6	1	Capacity	33	RC	2	0	15VC 08MC	1	0	1.23115301132	-262.0	192.0	-267	185	1
2.7	2015_May_04_1505	s	s	6	1	Capacity	34	RC	1	0	08VC 15MC	1	0	1.05536484718	13.0	10.0	18	8	1
2.7	2015_May_04_1505	s	s	6	1	Capacity	35	ABS	2	0	16VC 08MC	0	1	3.85563421249	None	None	None	None	1
2.7	2015_May_04_1505	s	s	6	1	Capacity	36	ABS	1	0	08VC 16MC	0	1	4.34267902374	None	None	None	None	1
2.7	2015_May_04_1505	s	s	6	1	Capacity	37	ABS	2	0	16VC 08MC	0	1	5.19701719284	None	None	None	None	1
2.7	2015_May_04_1505	s	s	6	1	Capacity	38	RC	1	0	08VC 15MC	1	0	3.53055310249	362.0	3.0	359	1	1
2.7	2015_May_04_1505	s	s	6	1	Capacity	39	ABS	1	0	08VC 16MC	0	1	4.18495512009	None	None	None	None	1
2.7	2015_May_04_1505	s	s	6	1	Capacity	40	RC	2	0	15VC 08MC	1	0	4.40844011307	-447.0	-98.0	-444	-106	1
2.7	2015_May_04_1505	s	s	6	1	Capacity	41	RC	2	0	15VC 08MC	1	0	3.00711894035	-217.0	269.0	-224	264	1
2.7	2015_May_04_1505	s	s	6	1	Capacity	42	ABS	1	0	08VC 16MC	0	1	0.305453062057	None	None	None	None	1
2.7	2015_May_04_1505	s	s	6	1	Capacity	43	ABS	2	0	16VC 08MC	0	1	5.73166513443	None	None	None	None	1
2.7	2015_May_04_1505	s	s	6	1	Capacity	44	RC	1	0	08VC 15MC	1	0	2.37206506729	-427.0	-408.0	-430	-400	1
2.7	2015_May_04_1505	s	s	6	1	Capacity	45	RC	2	0	15VC 08MC	1	0	1.28967404366	-401.0	244.0	-394	244	1
2.7	2015_May_04_1505	s	s	6	1	Capacity	46	ABS	1	0	08VC 16MC	0	1	4.30260491371	None	None	None	None	1
2.7	2015_May_04_1505	s	s	6	1	Capacity	47	RC	1	0	08VC 15MC	1	0	1.94861197472	313.0	138.0	318	132	1
2.7	2015_May_04_1505	s	s	6	1	Capacity	48	ABS	2	0	16VC 08MC	0	1	3.64328289032	None	None	None	None	1
2.7	2015_May_04_1505	s	s	6	1	Capacity	49	RC	1	0	08VC 15MC	1	0	2.70296502113	48.0	269.0	45	278	1
2.7	2015_May_04_1505	s	s	6	1	Capacity	50	RC	2	0	15VC 08MC	1	0	2.80072116852	217.0	197.0	213	202	1
2.7	2015_May_04_1505	s	s	6	1	Capacity	51	ABS	1	0	08VC 16MC	0	1	5.04875802994	None	None	None	None	1
2.7	2015_May_04_1505	s	s	6	1	Capacity	52	ABS	2	0	16VC 08MC	0	1	4.19903588295	None	None	None	None	1
2.7	2015_May_04_1505	s	s	6	1	Capacity	53	ABS	1	0	08VC 16MC	0	1	9.02735900879	None	None	None	None	1
2.7	2015_May_04_1505	s	s	6	1	Capacity	54	ABS	2	0	16VC 08MC	0	1	12.8412380219	None	None	None	None	1
2.7	2015_May_04_1505	s	s	6	1	Capacity	55	RC	1	0	08VC 15MC	1	0	3.67222285271	202.0	-406.0	215	-403	1
2.7	2015_May_04_1505	s	s	6	1	Capacity	56	RC	2	0	15VC 08MC	1	0	3.64331197739	267.0	68.0	275	72	1
2.7	2015_May_04_1505	s	s	6	1	Capacity	57	RC	2	0	15VC 08MC	1	0	3.41903591156	322.0	162.0	312	161	1
2.7	2015_May_04_1505	s	s	6	1	Capacity	58	ABS	2	0	16VC 08MC	0	1	5.17345499992	None	None	None	None	1
2.7	2015_May_04_1505	s	s	6	1	Capacity	59	RC	1	0	08VC 15MC	0	1	7.51835083961	-260.0	-399.0	None	None	0
2.7	2015_May_04_1505	s	s	6	1	Capacity	60	ABS	1	0	08VC 16MC	0	1	12.4643888474	None	None	None	None	1
2.7	2015_May_04_1505	s	s	6	1	Capacity	61	RC	1	0	08VC 15MC	1	0	1.61913299561	-402.0	-171.0	-414	-166	1
2.7	2015_May_04_1505	s	s	6	1	Capacity	62	ABS	2	0	16VC 08MC	0	1	3.64829301834	None	None	None	None	1
2.7	2015_May_04_1505	s	s	6	1	Capacity	63	ABS	1	0	08VC 16MC	0	1	5.23730397224	None	None	None	None	1
2.7	2015_May_04_1505	s	s	6	1	Capacity	64	RC	2	0	15VC 08MC	0	1	8.13883090019	371.0	298.0	None	None	0
2.7	2015_May_04_1505	s	s	6	1	SIC	1	RC	1	1	02VD 02VO 02VC 02MD 09MO 02MC 02RD 02RO	1	0	2.75986790657	-528.0	332.0	-527	329	1
2.7	2015_May_04_1505	s	s	6	1	SIC	2	ABS	2	1	02VD 10VO 02VC 02MD 02MO 02MC 02RD 02RO	0	1	4.47908091545	None	None	None	None	1
2.7	2015_May_04_1505	s	s	6	1	SIC	3	RC	2	2	09VD 02VO 02VC 02MD 02MO 02MC 02RD 02RO	1	0	1.03519201279	-345.0	266.0	-341	269	1
2.7	2015_May_04_1505	s	s	6	1	SIC	4	ABS	1	2	02VD 02VO 02VC 10MD 02MO 02MC 02RD 02RO	0	1	3.63155913353	None	None	None	None	1
2.7	2015_May_04_1505	s	s	6	1	SIC	5	RC	2	1	02VD 09VO 02VC 02MD 02MO 02MC 02RD 02RO	1	0	1.53693699837	321.0	297.0	323	290	1
2.7	2015_May_04_1505	s	s	6	1	SIC	6	ABS	0	2	02VD 02VO 02VC 02MD 02MO 02MC 10RD 02RO	0	1	9.2108039856	None	None	None	None	1
2.7	2015_May_04_1505	s	s	6	1	SIC	7	RC	0	2	02VD 02VO 02VC 02MD 02MO 02MC 09RD 02RO	1	0	2.21225905418	15.0	-381.0	24	-372	1
2.7	2015_May_04_1505	s	s	6	1	SIC	8	RC	1	2	02VD 02VO 02VC 09MD 02MO 02MC 02RD 02RO	1	0	1.27750086784	5.0	-219.0	-7	-217	1
2.7	2015_May_04_1505	s	s	6	1	SIC	9	ABS	0	1	02VD 02VO 02VC 02MD 02MO 02MC 02RD 10RO	0	1	4.07888388634	None	None	None	None	1
2.7	2015_May_04_1505	s	s	6	1	SIC	10	ABS	2	2	10VD 02VO 02VC 02MD 02MO 02MC 02RD 02RO	0	1	2.91851806641	None	None	None	None	1
2.7	2015_May_04_1505	s	s	6	1	SIC	11	ABS	2	0	02VD 02VO 10VC 02MD 02MO 02MC 02RD 02RO	0	1	3.03623986244	None	None	None	None	1
2.7	2015_May_04_1505	s	s	6	1	SIC	12	ABS	1	0	02VD 02VO 02VC 02MD 02MO 10MC 02RD 02RO	0	1	6.23424386978	None	None	None	None	1
2.7	2015_May_04_1505	s	s	6	1	SIC	13	RC	0	1	02VD 02VO 02VC 02MD 02MO 02MC 02RD 09RO	1	0	2.30132699013	-540.0	24.0	-535	15	1
2.7	2015_May_04_1505	s	s	6	1	SIC	14	RC	1	0	02VD 02VO 02VC 02MD 02MO 09MC 02RD 02RO	1	0	1.07042002678	-462.0	142.0	-455	146	1
2.7	2015_May_04_1505	s	s	6	1	SIC	15	RC	2	0	02VD 02VO 09VC 02MD 02MO 02MC 02RD 02RO	1	0	2.55379390717	-4.0	-196.0	-4	-196	1
2.7	2015_May_04_1505	s	s	6	1	SIC	16	ABS	1	1	02VD 02VO 02VC 02MD 10MO 02MC 02RD 02RO	0	1	4.25554680824	None	None	None	None	1
2.7	2015_May_04_1505	s	s	6	1	SIC	17	ABS	2	0	02VD 02VO 10VC 02MD 02MO 02MC 02RD 02RO	0	1	2.47125291824	None	None	None	None	1
2.7	2015_May_04_1505	s	s	6	1	SIC	18	ABS	2	2	10VD 02VO 02VC 02MD 02MO 02MC 02RD 02RO	0	1	2.42136883736	None	None	None	None	1
2.7	2015_May_04_1505	s	s	6	1	SIC	19	ABS	1	0	02VD 02VO 02VC 02MD 02MO 10MC 02RD 02RO	0	1	4.97356200218	None	None	None	None	1
2.7	2015_May_04_1505	s	s	6	1	SIC	20	ABS	1	1	02VD 02VO 02VC 02MD 10MO 02MC 02RD 02RO	0	1	3.38449215889	None	None	None	None	1
2.7	2015_May_04_1505	s	s	6	1	SIC	21	RC	0	2	02VD 02VO 02VC 02MD 02MO 02MC 09RD 02RO	1	0	2.65738511086	423.0	1.0	418	-5	1
2.7	2015_May_04_1505	s	s	6	1	SIC	22	ABS	0	1	02VD 02VO 02VC 02MD 02MO 02MC 02RD 10RO	0	1	4.43222594261	None	None	None	None	1
2.7	2015_May_04_1505	s	s	6	1	SIC	23	ABS	2	1	02VD 10VO 02VC 02MD 02MO 02MC 02RD 02RO	0	1	3.20095491409	None	None	None	None	1
2.7	2015_May_04_1505	s	s	6	1	SIC	24	RC	1	1	02VD 02VO 02VC 02MD 09MO 02MC 02RD 02RO	1	0	1.07728481293	-220.0	136.0	-223	138	1
2.7	2015_May_04_1505	s	s	6	1	SIC	25	RC	1	0	02VD 02VO 02VC 02MD 02MO 09MC 02RD 02RO	1	0	3.55939698219	14.0	-406.0	14	-401	1
2.7	2015_May_04_1505	s	s	6	1	SIC	26	RC	2	0	02VD 02VO 09VC 02MD 02MO 02MC 02RD 02RO	1	0	2.60763692856	39.0	207.0	38	213	1
2.7	2015_May_04_1505	s	s	6	1	SIC	27	ABS	1	2	02VD 02VO 02VC 10MD 02MO 02MC 02RD 02RO	0	1	3.21958899498	None	None	None	None	1
2.7	2015_May_04_1505	s	s	6	1	SIC	28	RC	0	1	02VD 02VO 02VC 02MD 02MO 02MC 02RD 09RO	1	0	2.28972101212	-127.0	-136.0	-132	-131	1
2.7	2015_May_04_1505	s	s	6	1	SIC	29	RC	1	2	02VD 02VO 02VC 09MD 02MO 02MC 02RD 02RO	1	0	1.4657201767	139.0	-92.0	144	-94	1
2.7	2015_May_04_1505	s	s	6	1	SIC	30	RC	2	1	02VD 09VO 02VC 02MD 02MO 02MC 02RD 02RO	1	0	2.43111300468	429.0	340.0	421	342	1
2.7	2015_May_04_1505	s	s	6	1	SIC	31	ABS	0	2	02VD 02VO 02VC 02MD 02MO 02MC 10RD 02RO	0	1	3.67209911346	None	None	None	None	1
2.7	2015_May_04_1505	s	s	6	1	SIC	32	RC	2	2	09VD 02VO 02VC 02MD 02MO 02MC 02RD 02RO	1	0	1.83580899239	529.0	-403.0	514	-396	1
2.7	2015_May_04_1505	s	s	6	1	SIC	33	RC	1	1	02VD 02VO 02VC 02MD 09MO 02MC 02RD 02RO	1	0	2.67130708694	-344.0	300.0	-356	302	1
2.7	2015_May_04_1505	s	s	6	1	SIC	34	RC	0	1	02VD 02VO 02VC 02MD 02MO 02MC 02RD 09RO	1	0	4.62524318695	-231.0	-411.0	-230	-429	1
2.7	2015_May_04_1505	s	s	6	1	SIC	35	ABS	2	2	10VD 02VO 02VC 02MD 02MO 02MC 02RD 02RO	0	1	2.49851107597	None	None	None	None	1
2.7	2015_May_04_1505	s	s	6	1	SIC	36	ABS	1	1	02VD 02VO 02VC 02MD 10MO 02MC 02RD 02RO	0	1	3.8193359375	None	None	None	None	1
2.7	2015_May_04_1505	s	s	6	1	SIC	37	RC	1	0	02VD 02VO 02VC 02MD 02MO 09MC 02RD 02RO	1	0	1.58394813538	-415.0	-328.0	-406	-331	1
2.7	2015_May_04_1505	s	s	6	1	SIC	38	ABS	2	0	02VD 02VO 10VC 02MD 02MO 02MC 02RD 02RO	0	1	2.60064387321	None	None	None	None	1
2.7	2015_May_04_1505	s	s	6	1	SIC	39	RC	0	2	02VD 02VO 02VC 02MD 02MO 02MC 09RD 02RO	1	0	2.50176095963	187.0	384.0	182	377	1
2.7	2015_May_04_1505	s	s	6	1	SIC	40	RC	2	1	02VD 09VO 02VC 02MD 02MO 02MC 02RD 02RO	1	0	1.47070097923	157.0	-215.0	163	-208	1
2.7	2015_May_04_1505	s	s	6	1	SIC	41	RC	2	0	02VD 02VO 09VC 02MD 02MO 02MC 02RD 02RO	1	0	1.22375202179	-124.0	-214.0	-130	-211	1
2.7	2015_May_04_1505	s	s	6	1	SIC	42	ABS	0	1	02VD 02VO 02VC 02MD 02MO 02MC 02RD 10RO	0	1	4.27250003815	None	None	None	None	1
2.7	2015_May_04_1505	s	s	6	1	SIC	43	ABS	1	0	02VD 02VO 02VC 02MD 02MO 10MC 02RD 02RO	0	1	4.24860286713	None	None	None	None	1
2.7	2015_May_04_1505	s	s	6	1	SIC	44	ABS	1	2	02VD 02VO 02VC 10MD 02MO 02MC 02RD 02RO	0	1	5.03215813637	None	None	None	None	1
2.7	2015_May_04_1505	s	s	6	1	SIC	45	RC	2	2	09VD 02VO 02VC 02MD 02MO 02MC 02RD 02RO	1	0	1.67517399788	60.0	-135.0	52	-136	1
2.7	2015_May_04_1505	s	s	6	1	SIC	46	RC	1	2	02VD 02VO 02VC 09MD 02MO 02MC 02RD 02RO	1	0	0.776290893555	-20.0	171.0	-12	172	1
2.7	2015_May_04_1505	s	s	6	1	SIC	47	ABS	2	1	02VD 10VO 02VC 02MD 02MO 02MC 02RD 02RO	0	1	2.91847300529	None	None	None	None	1
2.7	2015_May_04_1505	s	s	6	1	SIC	48	ABS	0	2	02VD 02VO 02VC 02MD 02MO 02MC 10RD 02RO	0	1	2.50645399094	None	None	None	None	1
2.7	2015_May_04_1505	s	s	6	1	SIC	49	ABS	1	1	02VD 02VO 02VC 02MD 10MO 02MC 02RD 02RO	0	1	3.31866598129	None	None	None	None	1
2.7	2015_May_04_1505	s	s	6	1	SIC	50	ABS	0	2	02VD 02VO 02VC 02MD 02MO 02MC 10RD 02RO	0	1	2.50654006004	None	None	None	None	1
2.7	2015_May_04_1505	s	s	6	1	SIC	51	ABS	1	2	02VD 02VO 02VC 10MD 02MO 02MC 02RD 02RO	0	1	2.52523684502	None	None	None	None	1
2.7	2015_May_04_1505	s	s	6	1	SIC	52	ABS	0	1	02VD 02VO 02VC 02MD 02MO 02MC 02RD 10RO	0	1	4.74967694283	None	None	None	None	1
2.7	2015_May_04_1505	s	s	6	1	SIC	53	RC	2	0	02VD 02VO 09VC 02MD 02MO 02MC 02RD 02RO	1	0	0.92448592186	-276.0	126.0	-272	122	1
2.7	2015_May_04_1505	s	s	6	1	SIC	54	ABS	2	0	02VD 02VO 10VC 02MD 02MO 02MC 02RD 02RO	0	1	3.04319000244	None	None	None	None	1
2.7	2015_May_04_1505	s	s	6	1	SIC	55	RC	2	2	09VD 02VO 02VC 02MD 02MO 02MC 02RD 02RO	1	0	1.5648291111	82.0	-61.0	89	-57	1
2.7	2015_May_04_1505	s	s	6	1	SIC	56	ABS	2	2	10VD 02VO 02VC 02MD 02MO 02MC 02RD 02RO	0	1	4.27209877968	None	None	None	None	1
2.7	2015_May_04_1505	s	s	6	1	SIC	57	RC	0	2	02VD 02VO 02VC 02MD 02MO 02MC 09RD 02RO	1	0	1.00863695145	-331.0	20.0	-337	24	1
2.7	2015_May_04_1505	s	s	6	1	SIC	58	RC	1	2	02VD 02VO 02VC 09MD 02MO 02MC 02RD 02RO	1	0	1.46598911285	99.0	-227.0	96	-218	1
2.7	2015_May_04_1505	s	s	6	1	SIC	59	RC	0	1	02VD 02VO 02VC 02MD 02MO 02MC 02RD 09RO	1	0	1.8356089592	371.0	-261.0	375	-253	1
2.7	2015_May_04_1505	s	s	6	1	SIC	60	RC	2	1	02VD 09VO 02VC 02MD 02MO 02MC 02RD 02RO	1	0	0.952774047852	122.0	154.0	119	156	1
2.7	2015_May_04_1505	s	s	6	1	SIC	61	RC	1	0	02VD 02VO 02VC 02MD 02MO 09MC 02RD 02RO	1	0	1.87797403336	81.0	-239.0	77	-236	1
2.7	2015_May_04_1505	s	s	6	1	SIC	62	RC	1	1	02VD 02VO 02VC 02MD 09MO 02MC 02RD 02RO	1	0	2.65581703186	121.0	392.0	136	400	1
2.7	2015_May_04_1505	s	s	6	1	SIC	63	ABS	2	1	02VD 10VO 02VC 02MD 02MO 02MC 02RD 02RO	0	1	3.08325099945	None	None	None	None	1
2.7	2015_May_04_1505	s	s	6	1	SIC	64	ABS	1	0	02VD 02VO 02VC 02MD 02MO 10MC 02RD 02RO	0	1	4.29558300972	None	None	None	None	1
2.7	2015_May_04_1505	s	s	6	1	SIC	65	RC	0	1	02VD 02VO 02VC 02MD 02MO 02MC 02RD 09RO	1	0	2.23117113113	458.0	-332.0	462	-326	1
2.7	2015_May_04_1505	s	s	6	1	SIC	66	ABS	0	1	02VD 02VO 02VC 02MD 02MO 02MC 02RD 10RO	0	1	6.29662895203	None	None	None	None	1
2.7	2015_May_04_1505	s	s	6	1	SIC	67	ABS	1	1	02VD 02VO 02VC 02MD 10MO 02MC 02RD 02RO	0	1	4.221159935	None	None	None	None	1
2.7	2015_May_04_1505	s	s	6	1	SIC	68	RC	1	2	02VD 02VO 02VC 09MD 02MO 02MC 02RD 02RO	1	0	1.71790194511	494.0	-173.0	504	-165	1
2.7	2015_May_04_1505	s	s	6	1	SIC	69	RC	0	2	02VD 02VO 02VC 02MD 02MO 02MC 09RD 02RO	1	0	1.72981500626	-276.0	-317.0	-288	-315	1
2.7	2015_May_04_1505	s	s	6	1	SIC	70	ABS	1	2	02VD 02VO 02VC 10MD 02MO 02MC 02RD 02RO	0	1	4.2956340313	None	None	None	None	1
2.7	2015_May_04_1505	s	s	6	1	SIC	71	RC	2	1	02VD 09VO 02VC 02MD 02MO 02MC 02RD 02RO	0	1	3.27159500122	325.0	183.0	None	None	0
2.7	2015_May_04_1505	s	s	6	1	SIC	72	RC	2	2	09VD 02VO 02VC 02MD 02MO 02MC 02RD 02RO	1	0	1.56237602234	9.0	297.0	21	298	1
2.7	2015_May_04_1505	s	s	6	1	SIC	73	ABS	2	2	10VD 02VO 02VC 02MD 02MO 02MC 02RD 02RO	0	1	2.48040413857	None	None	None	None	1
2.7	2015_May_04_1505	s	s	6	1	SIC	74	ABS	1	0	02VD 02VO 02VC 02MD 02MO 10MC 02RD 02RO	0	1	3.60875105858	None	None	None	None	1
2.7	2015_May_04_1505	s	s	6	1	SIC	75	RC	2	0	02VD 02VO 09VC 02MD 02MO 02MC 02RD 02RO	1	0	3.10677289963	485.0	187.0	495	190	1
2.7	2015_May_04_1505	s	s	6	1	SIC	76	RC	1	1	02VD 02VO 02VC 02MD 09MO 02MC 02RD 02RO	1	0	1.42799901962	334.0	-326.0	333	-325	1
2.7	2015_May_04_1505	s	s	6	1	SIC	77	ABS	2	1	02VD 10VO 02VC 02MD 02MO 02MC 02RD 02RO	0	1	3.9494907856	None	None	None	None	1
2.7	2015_May_04_1505	s	s	6	1	SIC	78	ABS	2	0	02VD 02VO 10VC 02MD 02MO 02MC 02RD 02RO	0	1	2.35354995728	None	None	None	None	1
2.7	2015_May_04_1505	s	s	6	1	SIC	79	RC	1	0	02VD 02VO 02VC 02MD 02MO 09MC 02RD 02RO	1	0	1.61198711395	-205.0	-385.0	-215	-377	1
2.7	2015_May_04_1505	s	s	6	1	SIC	80	ABS	0	2	02VD 02VO 02VC 02MD 02MO 02MC 10RD 02RO	0	1	1.99479198456	None	None	None	None	1
2.7	2015_May_04_1505	s	s	6	1	SIC	81	RC	2	0	02VD 02VO 09VC 02MD 02MO 02MC 02RD 02RO	1	0	1.16109895706	-300.0	-93.0	-299	-83	1
2.7	2015_May_04_1505	s	s	6	1	SIC	82	ABS	1	0	02VD 02VO 02VC 02MD 02MO 10MC 02RD 02RO	0	1	3.27158403397	None	None	None	None	1
2.7	2015_May_04_1505	s	s	6	1	SIC	83	ABS	0	1	02VD 02VO 02VC 02MD 02MO 02MC 02RD 10RO	0	1	4.34952902794	None	None	None	None	1
2.7	2015_May_04_1505	s	s	6	1	SIC	84	RC	2	2	09VD 02VO 02VC 02MD 02MO 02MC 02RD 02RO	1	0	1.98848104477	94.0	-264.0	97	-264	1
2.7	2015_May_04_1505	s	s	6	1	SIC	85	ABS	2	0	02VD 02VO 10VC 02MD 02MO 02MC 02RD 02RO	0	1	7.6102180481	None	None	None	None	1
2.7	2015_May_04_1505	s	s	6	1	SIC	86	ABS	1	1	02VD 02VO 02VC 02MD 10MO 02MC 02RD 02RO	0	1	4.29035019875	None	None	None	None	1
2.7	2015_May_04_1505	s	s	6	1	SIC	87	RC	0	2	02VD 02VO 02VC 02MD 02MO 02MC 09RD 02RO	1	0	1.6825671196	-516.0	-97.0	-522	-97	1
2.7	2015_May_04_1505	s	s	6	1	SIC	88	ABS	2	2	10VD 02VO 02VC 02MD 02MO 02MC 02RD 02RO	0	1	3.31290793419	None	None	None	None	1
2.7	2015_May_04_1505	s	s	6	1	SIC	89	ABS	2	1	02VD 10VO 02VC 02MD 02MO 02MC 02RD 02RO	0	1	4.24372696877	None	None	None	None	1
2.7	2015_May_04_1505	s	s	6	1	SIC	90	ABS	1	2	02VD 02VO 02VC 10MD 02MO 02MC 02RD 02RO	0	1	2.8125679493	None	None	None	None	1
2.7	2015_May_04_1505	s	s	6	1	SIC	91	ABS	0	2	02VD 02VO 02VC 02MD 02MO 02MC 10RD 02RO	0	1	2.17233800888	None	None	None	None	1
2.7	2015_May_04_1505	s	s	6	1	SIC	92	RC	1	2	02VD 02VO 02VC 09MD 02MO 02MC 02RD 02RO	1	0	1.18316721916	-184.0	382.0	-180	384	1
2.7	2015_May_04_1505	s	s	6	1	SIC	93	RC	0	1	02VD 02VO 02VC 02MD 02MO 02MC 02RD 09RO	1	0	1.78881382942	-242.0	-384.0	-236	-384	1
2.7	2015_May_04_1505	s	s	6	1	SIC	94	RC	1	1	02VD 02VO 02VC 02MD 09MO 02MC 02RD 02RO	1	0	2.76060700417	-505.0	151.0	-499	154	1
2.7	2015_May_04_1505	s	s	6	1	SIC	95	RC	2	1	02VD 09VO 02VC 02MD 02MO 02MC 02RD 02RO	0	1	4.30741715431	413.0	255.0	None	None	0
2.7	2015_May_04_1505	s	s	6	1	SIC	96	RC	1	0	02VD 02VO 02VC 02MD 02MO 09MC 02RD 02RO	1	0	4.7381029129	27.0	245.0	36	242	1
2.7	2015_May_04_1505	s	s	6	1	SIC	97	RC	1	1	02VD 02VO 02VC 02MD 09MO 02MC 02RD 02RO	0	1	4.65623211861	24.0	-185.0	None	None	0
2.7	2015_May_04_1505	s	s	6	1	SIC	98	ABS	1	0	02VD 02VO 02VC 02MD 02MO 10MC 02RD 02RO	0	1	5.00187420845	None	None	None	None	1
2.7	2015_May_04_1505	s	s	6	1	SIC	99	ABS	2	2	10VD 02VO 02VC 02MD 02MO 02MC 02RD 02RO	0	1	2.81932997704	None	None	None	None	1
2.7	2015_May_04_1505	s	s	6	1	SIC	100	RC	2	0	02VD 02VO 09VC 02MD 02MO 02MC 02RD 02RO	1	0	1.45892500877	532.0	161.0	538	158	1
2.7	2015_May_04_1505	s	s	6	1	SIC	101	RC	0	1	02VD 02VO 02VC 02MD 02MO 02MC 02RD 09RO	1	0	2.89170098305	510.0	364.0	510	358	1
2.7	2015_May_04_1505	s	s	6	1	SIC	102	RC	0	2	02VD 02VO 02VC 02MD 02MO 02MC 09RD 02RO	1	0	5.13833093643	-181.0	169.0	-178	164	1
2.7	2015_May_04_1505	s	s	6	1	SIC	103	ABS	1	1	02VD 02VO 02VC 02MD 10MO 02MC 02RD 02RO	0	1	3.00914597511	None	None	None	None	1
2.7	2015_May_04_1505	s	s	6	1	SIC	104	RC	2	2	09VD 02VO 02VC 02MD 02MO 02MC 02RD 02RO	1	0	2.8807849884	-11.0	383.0	-6	383	1
2.7	2015_May_04_1505	s	s	6	1	SIC	105	ABS	0	1	02VD 02VO 02VC 02MD 02MO 02MC 02RD 10RO	0	1	3.55186390877	None	None	None	None	1
2.7	2015_May_04_1505	s	s	6	1	SIC	106	ABS	0	2	02VD 02VO 02VC 02MD 02MO 02MC 10RD 02RO	0	1	2.39553713799	None	None	None	None	1
2.7	2015_May_04_1505	s	s	6	1	SIC	107	RC	1	2	02VD 02VO 02VC 09MD 02MO 02MC 02RD 02RO	0	1	2.69246315956	-192.0	-56.0	None	None	0
2.7	2015_May_04_1505	s	s	6	1	SIC	108	RC	2	1	02VD 09VO 02VC 02MD 02MO 02MC 02RD 02RO	1	0	0.913118839264	-328.0	202.0	-325	195	1
2.7	2015_May_04_1505	s	s	6	1	SIC	109	ABS	1	2	02VD 02VO 02VC 10MD 02MO 02MC 02RD 02RO	0	1	2.49189305305	None	None	None	None	1
2.7	2015_May_04_1505	s	s	6	1	SIC	110	ABS	2	1	02VD 10VO 02VC 02MD 02MO 02MC 02RD 02RO	0	1	1.94726490974	None	None	None	None	1
2.7	2015_May_04_1505	s	s	6	1	SIC	111	RC	1	0	02VD 02VO 02VC 02MD 02MO 09MC 02RD 02RO	1	0	2.27802610397	-466.0	-196.0	-462	-208	1
2.7	2015_May_04_1505	s	s	6	1	SIC	112	ABS	2	0	02VD 02VO 10VC 02MD 02MO 02MC 02RD 02RO	0	1	2.44768190384	None	None	None	None	1
2.7	2015_May_04_1505	s	s	6	1	SIC	113	RC	0	2	02VD 02VO 02VC 02MD 02MO 02MC 09RD 02RO	1	0	1.53666877747	-404.0	290.0	-397	285	1
2.7	2015_May_04_1505	s	s	6	1	SIC	114	RC	1	1	02VD 02VO 02VC 02MD 09MO 02MC 02RD 02RO	1	0	1.906208992	464.0	398.0	456	404	1
2.7	2015_May_04_1505	s	s	6	1	SIC	115	RC	2	0	02VD 02VO 09VC 02MD 02MO 02MC 02RD 02RO	1	0	1.0539791584	-102.0	71.0	-96	68	1
2.7	2015_May_04_1505	s	s	6	1	SIC	116	RC	1	2	02VD 02VO 02VC 09MD 02MO 02MC 02RD 02RO	1	0	1.26410603523	115.0	-149.0	118	-148	1
2.7	2015_May_04_1505	s	s	6	1	SIC	117	RC	2	2	09VD 02VO 02VC 02MD 02MO 02MC 02RD 02RO	0	1	3.34595513344	533.0	335.0	None	None	0
2.7	2015_May_04_1505	s	s	6	1	SIC	118	ABS	0	2	02VD 02VO 02VC 02MD 02MO 02MC 10RD 02RO	0	1	2.77253699303	None	None	None	None	1
2.7	2015_May_04_1505	s	s	6	1	SIC	119	ABS	1	0	02VD 02VO 02VC 02MD 02MO 10MC 02RD 02RO	0	1	4.05516695976	None	None	None	None	1
2.7	2015_May_04_1505	s	s	6	1	SIC	120	ABS	1	1	02VD 02VO 02VC 02MD 10MO 02MC 02RD 02RO	0	1	3.54235601425	None	None	None	None	1
2.7	2015_May_04_1505	s	s	6	1	SIC	121	RC	1	0	02VD 02VO 02VC 02MD 02MO 09MC 02RD 02RO	1	0	4.09995102882	420.0	392.0	415	381	1
2.7	2015_May_04_1505	s	s	6	1	SIC	122	RC	2	1	02VD 09VO 02VC 02MD 02MO 02MC 02RD 02RO	1	0	1.18325281143	-368.0	205.0	-365	191	1
2.7	2015_May_04_1505	s	s	6	1	SIC	123	ABS	2	0	02VD 02VO 10VC 02MD 02MO 02MC 02RD 02RO	0	1	3.43190383911	None	None	None	None	1
2.7	2015_May_04_1505	s	s	6	1	SIC	124	ABS	2	1	02VD 10VO 02VC 02MD 02MO 02MC 02RD 02RO	0	1	2.7957777977	None	None	None	None	1
2.7	2015_May_04_1505	s	s	6	1	SIC	125	ABS	0	1	02VD 02VO 02VC 02MD 02MO 02MC 02RD 10RO	0	1	3.30691599846	None	None	None	None	1
2.7	2015_May_04_1505	s	s	6	1	SIC	126	RC	0	1	02VD 02VO 02VC 02MD 02MO 02MC 02RD 09RO	1	0	2.53869009018	276.0	-326.0	278	-319	1
2.7	2015_May_04_1505	s	s	6	1	SIC	127	ABS	1	2	02VD 02VO 02VC 10MD 02MO 02MC 02RD 02RO	0	1	2.38323187828	None	None	None	None	1
2.7	2015_May_04_1505	s	s	6	1	SIC	128	ABS	2	2	10VD 02VO 02VC 02MD 02MO 02MC 02RD 02RO	0	1	1.92475795746	None	None	None	None	1
2.7	2015_May_04_1505	s	s	6	1	SIC	129	RC	1	2	02VD 02VO 02VC 09MD 02MO 02MC 02RD 02RO	1	0	1.21868491173	91.0	97.0	84	97	1
2.7	2015_May_04_1505	s	s	6	1	SIC	130	RC	2	1	02VD 09VO 02VC 02MD 02MO 02MC 02RD 02RO	1	0	1.4658100605	-171.0	-62.0	-169	-61	1
2.7	2015_May_04_1505	s	s	6	1	SIC	131	RC	0	2	02VD 02VO 02VC 02MD 02MO 02MC 09RD 02RO	1	0	2.62419700623	-48.0	-349.0	-48	-342	1
2.7	2015_May_04_1505	s	s	6	1	SIC	132	ABS	2	0	02VD 02VO 10VC 02MD 02MO 02MC 02RD 02RO	0	1	2.00040602684	None	None	None	None	1
2.7	2015_May_04_1505	s	s	6	1	SIC	133	RC	0	1	02VD 02VO 02VC 02MD 02MO 02MC 02RD 09RO	1	0	2.33670902252	-230.0	-336.0	-235	-340	1
2.7	2015_May_04_1505	s	s	6	1	SIC	134	ABS	2	2	10VD 02VO 02VC 02MD 02MO 02MC 02RD 02RO	0	1	1.71307897568	None	None	None	None	1
2.7	2015_May_04_1505	s	s	6	1	SIC	135	ABS	0	2	02VD 02VO 02VC 02MD 02MO 02MC 10RD 02RO	0	1	3.44348096848	None	None	None	None	1
2.7	2015_May_04_1505	s	s	6	1	SIC	136	RC	1	1	02VD 02VO 02VC 02MD 09MO 02MC 02RD 02RO	1	0	2.19727087021	-398.0	-184.0	-401	-189	1
2.7	2015_May_04_1505	s	s	6	1	SIC	137	RC	2	2	09VD 02VO 02VC 02MD 02MO 02MC 02RD 02RO	1	0	1.14112496376	202.0	91.0	191	93	1
2.7	2015_May_04_1505	s	s	6	1	SIC	138	RC	2	0	02VD 02VO 09VC 02MD 02MO 02MC 02RD 02RO	1	0	0.799794912338	-27.0	72.0	-24	68	1
2.7	2015_May_04_1505	s	s	6	1	SIC	139	ABS	1	1	02VD 02VO 02VC 02MD 10MO 02MC 02RD 02RO	0	1	2.98448085785	None	None	None	None	1
2.7	2015_May_04_1505	s	s	6	1	SIC	140	RC	1	0	02VD 02VO 02VC 02MD 02MO 09MC 02RD 02RO	1	0	1.24410009384	300.0	380.0	302	378	1
2.7	2015_May_04_1505	s	s	6	1	SIC	141	ABS	2	1	02VD 10VO 02VC 02MD 02MO 02MC 02RD 02RO	0	1	2.82433795929	None	None	None	None	1
2.7	2015_May_04_1505	s	s	6	1	SIC	142	ABS	0	1	02VD 02VO 02VC 02MD 02MO 02MC 02RD 10RO	0	1	3.96607208252	None	None	None	None	1
2.7	2015_May_04_1505	s	s	6	1	SIC	143	ABS	1	0	02VD 02VO 02VC 02MD 02MO 10MC 02RD 02RO	0	1	2.73019504547	None	None	None	None	1
2.7	2015_May_04_1505	s	s	6	1	SIC	144	ABS	1	2	02VD 02VO 02VC 10MD 02MO 02MC 02RD 02RO	0	1	2.02766609192	None	None	None	None	1
2.7	2015_May_04_1505	s	s	6	1	SIC	145	RC	0	1	02VD 02VO 02VC 02MD 02MO 02MC 02RD 09RO	0	1	4.09549808502	187.0	-212.0	None	None	0
2.7	2015_May_04_1505	s	s	6	1	SIC	146	ABS	1	0	02VD 02VO 02VC 02MD 02MO 10MC 02RD 02RO	0	1	3.27834701538	None	None	None	None	1
2.7	2015_May_04_1505	s	s	6	1	SIC	147	RC	2	0	02VD 02VO 09VC 02MD 02MO 02MC 02RD 02RO	1	0	2.04752111435	539.0	-96.0	529	-95	1
2.7	2015_May_04_1505	s	s	6	1	SIC	148	RC	1	1	02VD 02VO 02VC 02MD 09MO 02MC 02RD 02RO	1	0	2.14738512039	160.0	-119.0	152	-120	1
2.7	2015_May_04_1505	s	s	6	1	SIC	149	ABS	1	1	02VD 02VO 02VC 02MD 10MO 02MC 02RD 02RO	0	1	3.21968793869	None	None	None	None	1
2.7	2015_May_04_1505	s	s	6	1	SIC	150	ABS	2	0	02VD 02VO 10VC 02MD 02MO 02MC 02RD 02RO	0	1	2.08918690681	None	None	None	None	1
2.7	2015_May_04_1505	s	s	6	1	SIC	151	ABS	2	2	10VD 02VO 02VC 02MD 02MO 02MC 02RD 02RO	0	1	2.07772898674	None	None	None	None	1
2.7	2015_May_04_1505	s	s	6	1	SIC	152	ABS	2	1	02VD 10VO 02VC 02MD 02MO 02MC 02RD 02RO	0	1	2.02394580841	None	None	None	None	1
2.7	2015_May_04_1505	s	s	6	1	SIC	153	RC	2	1	02VD 09VO 02VC 02MD 02MO 02MC 02RD 02RO	1	0	1.2329518795	-401.0	206.0	-408	207	1
2.7	2015_May_04_1505	s	s	6	1	SIC	154	RC	0	2	02VD 02VO 02VC 02MD 02MO 02MC 09RD 02RO	1	0	4.4200899601	-293.0	-139.0	-284	-143	1
2.7	2015_May_04_1505	s	s	6	1	SIC	155	ABS	1	2	02VD 02VO 02VC 10MD 02MO 02MC 02RD 02RO	0	1	2.48298478127	None	None	None	None	1
2.7	2015_May_04_1505	s	s	6	1	SIC	156	ABS	0	1	02VD 02VO 02VC 02MD 02MO 02MC 02RD 10RO	0	1	3.39594697952	None	None	None	None	1
2.7	2015_May_04_1505	s	s	6	1	SIC	157	ABS	0	2	02VD 02VO 02VC 02MD 02MO 02MC 10RD 02RO	0	1	2.16519904137	None	None	None	None	1
2.7	2015_May_04_1505	s	s	6	1	SIC	158	RC	1	2	02VD 02VO 02VC 09MD 02MO 02MC 02RD 02RO	1	0	1.50115299225	-42.0	-95.0	-29	-86	1
2.7	2015_May_04_1505	s	s	6	1	SIC	159	RC	2	2	09VD 02VO 02VC 02MD 02MO 02MC 02RD 02RO	1	0	2.97733211517	73.0	-254.0	64	-249	1
2.7	2015_May_04_1505	s	s	6	1	SIC	160	RC	1	0	02VD 02VO 02VC 02MD 02MO 09MC 02RD 02RO	1	0	4.78380084038	358.0	-394.0	346	-388	1
2.7	2015_May_04_1505	s	s	6	1	SIC	161	ABS	2	0	02VD 02VO 10VC 02MD 02MO 02MC 02RD 02RO	0	1	2.7722799778	None	None	None	None	1
2.7	2015_May_04_1505	s	s	6	1	SIC	162	RC	1	2	02VD 02VO 02VC 09MD 02MO 02MC 02RD 02RO	1	0	1.8095870018	211.0	-341.0	209	-332	1
2.7	2015_May_04_1505	s	s	6	1	SIC	163	ABS	2	1	02VD 10VO 02VC 02MD 02MO 02MC 02RD 02RO	0	1	2.2426970005	None	None	None	None	1
2.7	2015_May_04_1505	s	s	6	1	SIC	164	ABS	1	1	02VD 02VO 02VC 02MD 10MO 02MC 02RD 02RO	0	1	3.13851594925	None	None	None	None	1
2.7	2015_May_04_1505	s	s	6	1	SIC	165	ABS	1	2	02VD 02VO 02VC 10MD 02MO 02MC 02RD 02RO	0	1	2.45489597321	None	None	None	None	1
2.7	2015_May_04_1505	s	s	6	1	SIC	166	RC	1	0	02VD 02VO 02VC 02MD 02MO 09MC 02RD 02RO	1	0	3.40780997276	-106.0	-205.0	-108	-207	1
2.7	2015_May_04_1505	s	s	6	1	SIC	167	RC	2	1	02VD 09VO 02VC 02MD 02MO 02MC 02RD 02RO	1	0	1.65433001518	319.0	215.0	319	212	1
2.7	2015_May_04_1505	s	s	6	1	SIC	168	RC	2	0	02VD 02VO 09VC 02MD 02MO 02MC 02RD 02RO	1	0	0.982573032379	82.0	41.0	85	50	1
2.7	2015_May_04_1505	s	s	6	1	SIC	169	RC	2	2	09VD 02VO 02VC 02MD 02MO 02MC 02RD 02RO	1	0	1.91292285919	-222.0	-267.0	-235	-263	1
2.7	2015_May_04_1505	s	s	6	1	SIC	170	RC	0	2	02VD 02VO 02VC 02MD 02MO 02MC 09RD 02RO	1	0	1.97181892395	-516.0	199.0	-525	200	1
2.7	2015_May_04_1505	s	s	6	1	SIC	171	RC	0	1	02VD 02VO 02VC 02MD 02MO 02MC 02RD 09RO	1	0	3.34216499329	298.0	-284.0	295	-284	1
2.7	2015_May_04_1505	s	s	6	1	SIC	172	ABS	0	1	02VD 02VO 02VC 02MD 02MO 02MC 02RD 10RO	0	1	3.94253396988	None	None	None	None	1
2.7	2015_May_04_1505	s	s	6	1	SIC	173	ABS	2	2	10VD 02VO 02VC 02MD 02MO 02MC 02RD 02RO	0	1	2.90671086311	None	None	None	None	1
2.7	2015_May_04_1505	s	s	6	1	SIC	174	ABS	1	0	02VD 02VO 02VC 02MD 02MO 10MC 02RD 02RO	0	1	7.03859615326	None	None	None	None	1
2.7	2015_May_04_1505	s	s	6	1	SIC	175	RC	1	1	02VD 02VO 02VC 02MD 09MO 02MC 02RD 02RO	1	0	1.44711685181	-259.0	-190.0	-270	-186	1
2.7	2015_May_04_1505	s	s	6	1	SIC	176	ABS	0	2	02VD 02VO 02VC 02MD 02MO 02MC 10RD 02RO	0	1	2.27148890495	None	None	None	None	1
2.7	2015_May_04_1505	s	s	6	1	SIC	177	RC	2	2	09VD 02VO 02VC 02MD 02MO 02MC 02RD 02RO	1	0	1.48914980888	227.0	-216.0	238	-207	1
2.7	2015_May_04_1505	s	s	6	1	SIC	178	ABS	2	2	10VD 02VO 02VC 02MD 02MO 02MC 02RD 02RO	0	1	2.36031103134	None	None	None	None	1
2.7	2015_May_04_1505	s	s	6	1	SIC	179	RC	0	1	02VD 02VO 02VC 02MD 02MO 02MC 02RD 09RO	1	0	1.24264383316	-426.0	-15.0	-419	-21	1
2.7	2015_May_04_1505	s	s	6	1	SIC	180	RC	1	0	02VD 02VO 02VC 02MD 02MO 09MC 02RD 02RO	1	0	2.31835985184	487.0	-320.0	489	-326	1
2.7	2015_May_04_1505	s	s	6	1	SIC	181	RC	1	1	02VD 02VO 02VC 02MD 09MO 02MC 02RD 02RO	1	0	2.33670401573	174.0	-297.0	163	-291	1
2.7	2015_May_04_1505	s	s	6	1	SIC	182	ABS	2	1	02VD 10VO 02VC 02MD 02MO 02MC 02RD 02RO	0	1	2.81912207603	None	None	None	None	1
2.7	2015_May_04_1505	s	s	6	1	SIC	183	RC	1	2	02VD 02VO 02VC 09MD 02MO 02MC 02RD 02RO	1	0	1.46584200859	348.0	-177.0	354	-186	1
2.7	2015_May_04_1505	s	s	6	1	SIC	184	RC	2	1	02VD 09VO 02VC 02MD 02MO 02MC 02RD 02RO	1	0	1.40008401871	476.0	321.0	467	323	1
2.7	2015_May_04_1505	s	s	6	1	SIC	185	RC	0	2	02VD 02VO 02VC 02MD 02MO 02MC 09RD 02RO	0	1	4.95471191406	424.0	-239.0	None	None	0
2.7	2015_May_04_1505	s	s	6	1	SIC	186	ABS	1	1	02VD 02VO 02VC 02MD 10MO 02MC 02RD 02RO	0	1	3.39623999596	None	None	None	None	1
2.7	2015_May_04_1505	s	s	6	1	SIC	187	ABS	0	2	02VD 02VO 02VC 02MD 02MO 02MC 10RD 02RO	0	1	2.56579780579	None	None	None	None	1
2.7	2015_May_04_1505	s	s	6	1	SIC	188	ABS	1	2	02VD 02VO 02VC 10MD 02MO 02MC 02RD 02RO	0	1	2.82925105095	None	None	None	None	1
2.7	2015_May_04_1505	s	s	6	1	SIC	189	RC	2	0	02VD 02VO 09VC 02MD 02MO 02MC 02RD 02RO	1	0	2.08279109001	260.0	395.0	264	395	1
2.7	2015_May_04_1505	s	s	6	1	SIC	190	ABS	1	0	02VD 02VO 02VC 02MD 02MO 10MC 02RD 02RO	0	1	3.20778489113	None	None	None	None	1
2.7	2015_May_04_1505	s	s	6	1	SIC	191	ABS	0	1	02VD 02VO 02VC 02MD 02MO 02MC 02RD 10RO	0	1	3.98580813408	None	None	None	None	1
2.7	2015_May_04_1505	s	s	6	1	SIC	192	ABS	2	0	02VD 02VO 10VC 02MD 02MO 02MC 02RD 02RO	0	1	2.74189400673	None	None	None	None	1
2.7	2015_May_04_1505	s	s	6	1	SIC	193	ABS	1	0	02VD 02VO 02VC 02MD 02MO 10MC 02RD 02RO	0	1	2.93046498299	None	None	None	None	1
2.7	2015_May_04_1505	s	s	6	1	SIC	194	RC	0	2	02VD 02VO 02VC 02MD 02MO 02MC 09RD 02RO	1	0	1.40667295456	-317.0	108.0	-326	110	1
2.7	2015_May_04_1505	s	s	6	1	SIC	195	RC	2	2	09VD 02VO 02VC 02MD 02MO 02MC 02RD 02RO	1	0	1.39357495308	505.0	-50.0	506	-51	1
2.7	2015_May_04_1505	s	s	6	1	SIC	196	ABS	0	2	02VD 02VO 02VC 02MD 02MO 02MC 10RD 02RO	0	1	0.0700438022614	None	None	None	None	1
2.7	2015_May_04_1505	s	s	6	1	SIC	197	RC	1	2	02VD 02VO 02VC 09MD 02MO 02MC 02RD 02RO	1	0	1.87821698189	-251.0	-208.0	-263	-206	1
2.7	2015_May_04_1505	s	s	6	1	SIC	198	RC	2	0	02VD 02VO 09VC 02MD 02MO 02MC 02RD 02RO	1	0	1.40004205704	23.0	-317.0	14	-318	1
2.7	2015_May_04_1505	s	s	6	1	SIC	199	RC	1	1	02VD 02VO 02VC 02MD 09MO 02MC 02RD 02RO	1	0	1.43535518646	467.0	-122.0	459	-122	1
2.7	2015_May_04_1505	s	s	6	1	SIC	200	ABS	2	1	02VD 10VO 02VC 02MD 02MO 02MC 02RD 02RO	0	1	2.67808103561	None	None	None	None	1
2.7	2015_May_04_1505	s	s	6	1	SIC	201	RC	2	1	02VD 09VO 02VC 02MD 02MO 02MC 02RD 02RO	1	0	1.11760520935	-183.0	-67.0	-179	-73	1
2.7	2015_May_04_1505	s	s	6	1	SIC	202	RC	1	0	02VD 02VO 02VC 02MD 02MO 09MC 02RD 02RO	1	0	1.03564405441	-432.0	159.0	-431	158	1
2.7	2015_May_04_1505	s	s	6	1	SIC	203	ABS	1	2	02VD 02VO 02VC 10MD 02MO 02MC 02RD 02RO	0	1	1.95035815239	None	None	None	None	1
2.7	2015_May_04_1505	s	s	6	1	SIC	204	ABS	0	1	02VD 02VO 02VC 02MD 02MO 02MC 02RD 10RO	0	1	3.3139269352	None	None	None	None	1
2.7	2015_May_04_1505	s	s	6	1	SIC	205	ABS	1	1	02VD 02VO 02VC 02MD 10MO 02MC 02RD 02RO	0	1	4.0667989254	None	None	None	None	1
2.7	2015_May_04_1505	s	s	6	1	SIC	206	ABS	2	2	10VD 02VO 02VC 02MD 02MO 02MC 02RD 02RO	0	1	2.31343817711	None	None	None	None	1
2.7	2015_May_04_1505	s	s	6	1	SIC	207	RC	0	1	02VD 02VO 02VC 02MD 02MO 02MC 02RD 09RO	1	0	1.10590004921	-216.0	-23.0	-226	-23	1
2.7	2015_May_04_1505	s	s	6	1	SIC	208	ABS	2	0	02VD 02VO 10VC 02MD 02MO 02MC 02RD 02RO	0	1	2.10631299019	None	None	None	None	1
2.7	2015_May_04_1505	s	s	6	1	SIC	209	RC	1	0	02VD 02VO 02VC 02MD 02MO 09MC 02RD 02RO	1	0	2.33039808273	-25.0	-253.0	-28	-251	1
2.7	2015_May_04_1505	s	s	6	1	SIC	210	ABS	1	0	02VD 02VO 02VC 02MD 02MO 10MC 02RD 02RO	0	1	2.65951800346	None	None	None	None	1
2.7	2015_May_04_1505	s	s	6	1	SIC	211	RC	2	1	02VD 09VO 02VC 02MD 02MO 02MC 02RD 02RO	1	0	1.76006388664	492.0	-326.0	496	-319	1
2.7	2015_May_04_1505	s	s	6	1	SIC	212	ABS	0	1	02VD 02VO 02VC 02MD 02MO 02MC 02RD 10RO	0	1	2.78629088402	None	None	None	None	1
2.7	2015_May_04_1505	s	s	6	1	SIC	213	ABS	2	0	02VD 02VO 10VC 02MD 02MO 02MC 02RD 02RO	0	1	1.92963004112	None	None	None	None	1
2.7	2015_May_04_1505	s	s	6	1	SIC	214	RC	1	1	02VD 02VO 02VC 02MD 09MO 02MC 02RD 02RO	0	1	1.2823369503	281.0	110.0	None	None	0
2.7	2015_May_04_1505	s	s	6	1	SIC	215	RC	0	1	02VD 02VO 02VC 02MD 02MO 02MC 02RD 09RO	1	0	1.89434409142	-386.0	129.0	-385	134	1
2.7	2015_May_04_1505	s	s	6	1	SIC	216	RC	0	2	02VD 02VO 02VC 02MD 02MO 02MC 09RD 02RO	1	0	2.1534011364	-479.0	347.0	-476	352	1
2.7	2015_May_04_1505	s	s	6	1	SIC	217	ABS	2	1	02VD 10VO 02VC 02MD 02MO 02MC 02RD 02RO	0	1	2.22395801544	None	None	None	None	1
2.7	2015_May_04_1505	s	s	6	1	SIC	218	ABS	1	2	02VD 02VO 02VC 10MD 02MO 02MC 02RD 02RO	0	1	2.20803499222	None	None	None	None	1
2.7	2015_May_04_1505	s	s	6	1	SIC	219	ABS	2	2	10VD 02VO 02VC 02MD 02MO 02MC 02RD 02RO	0	1	2.13687109947	None	None	None	None	1
2.7	2015_May_04_1505	s	s	6	1	SIC	220	RC	2	0	02VD 02VO 09VC 02MD 02MO 02MC 02RD 02RO	1	0	1.58399009705	397.0	11.0	399	5	1
2.7	2015_May_04_1505	s	s	6	1	SIC	221	ABS	0	2	02VD 02VO 02VC 02MD 02MO 02MC 10RD 02RO	0	1	2.14688587189	None	None	None	None	1
2.7	2015_May_04_1505	s	s	6	1	SIC	222	RC	1	2	02VD 02VO 02VC 09MD 02MO 02MC 02RD 02RO	1	0	1.34488606453	-190.0	-22.0	-187	-17	1
2.7	2015_May_04_1505	s	s	6	1	SIC	223	RC	2	2	09VD 02VO 02VC 02MD 02MO 02MC 02RD 02RO	1	0	1.2304558754	-36.0	-178.0	-27	-182	1
2.7	2015_May_04_1505	s	s	6	1	SIC	224	ABS	1	1	02VD 02VO 02VC 02MD 10MO 02MC 02RD 02RO	0	1	3.29889321327	None	None	None	None	1
2.7	2015_May_04_1505	s	s	6	1	SIC	225	RC	0	2	02VD 02VO 02VC 02MD 02MO 02MC 09RD 02RO	1	0	2.43588685989	513.0	-185.0	515	-179	1
2.7	2015_May_04_1505	s	s	6	1	SIC	226	ABS	2	1	02VD 10VO 02VC 02MD 02MO 02MC 02RD 02RO	0	1	2.07813405991	None	None	None	None	1
2.7	2015_May_04_1505	s	s	6	1	SIC	227	RC	2	0	02VD 02VO 09VC 02MD 02MO 02MC 02RD 02RO	1	0	1.3058180809	72.0	310.0	73	301	1
2.7	2015_May_04_1505	s	s	6	1	SIC	228	RC	2	1	02VD 09VO 02VC 02MD 02MO 02MC 02RD 02RO	1	0	2.79593515396	485.0	-362.0	492	-365	1
2.7	2015_May_04_1505	s	s	6	1	SIC	229	RC	2	2	09VD 02VO 02VC 02MD 02MO 02MC 02RD 02RO	1	0	0.882156848907	130.0	-131.0	137	-138	1
2.7	2015_May_04_1505	s	s	6	1	SIC	230	RC	1	0	02VD 02VO 02VC 02MD 02MO 09MC 02RD 02RO	1	0	0.901027917862	323.0	74.0	328	69	1
2.7	2015_May_04_1505	s	s	6	1	SIC	231	RC	0	1	02VD 02VO 02VC 02MD 02MO 02MC 02RD 09RO	1	0	2.47824907303	388.0	-84.0	392	-90	1
2.7	2015_May_04_1505	s	s	6	1	SIC	232	ABS	0	1	02VD 02VO 02VC 02MD 02MO 02MC 02RD 10RO	0	1	3.56589794159	None	None	None	None	1
2.7	2015_May_04_1505	s	s	6	1	SIC	233	ABS	2	0	02VD 02VO 10VC 02MD 02MO 02MC 02RD 02RO	0	1	1.9593808651	None	None	None	None	1
2.7	2015_May_04_1505	s	s	6	1	SIC	234	ABS	2	2	10VD 02VO 02VC 02MD 02MO 02MC 02RD 02RO	0	1	2.15334606171	None	None	None	None	1
2.7	2015_May_04_1505	s	s	6	1	SIC	235	ABS	1	2	02VD 02VO 02VC 10MD 02MO 02MC 02RD 02RO	0	1	1.41188406944	None	None	None	None	1
2.7	2015_May_04_1505	s	s	6	1	SIC	236	RC	1	2	02VD 02VO 02VC 09MD 02MO 02MC 02RD 02RO	1	0	1.48003602028	-333.0	-251.0	-323	-251	1
2.7	2015_May_04_1505	s	s	6	1	SIC	237	ABS	0	2	02VD 02VO 02VC 02MD 02MO 02MC 10RD 02RO	0	1	2.03568792343	None	None	None	None	1
2.7	2015_May_04_1505	s	s	6	1	SIC	238	RC	1	1	02VD 02VO 02VC 02MD 09MO 02MC 02RD 02RO	1	0	1.30123901367	112.0	-80.0	118	-73	1
2.7	2015_May_04_1505	s	s	6	1	SIC	239	ABS	1	0	02VD 02VO 02VC 02MD 02MO 10MC 02RD 02RO	0	1	2.48672103882	None	None	None	None	1
2.7	2015_May_04_1505	s	s	6	1	SIC	240	ABS	1	1	02VD 02VO 02VC 02MD 10MO 02MC 02RD 02RO	0	1	3.17747998238	None	None	None	None	1
2.7	2015_May_04_1505	s	s	6	1	SIC	241	ABS	1	0	02VD 02VO 02VC 02MD 02MO 10MC 02RD 02RO	0	1	2.38357591629	None	None	None	None	1
2.7	2015_May_04_1505	s	s	6	1	SIC	242	ABS	2	2	10VD 02VO 02VC 02MD 02MO 02MC 02RD 02RO	0	1	1.80716609955	None	None	None	None	1
2.7	2015_May_04_1505	s	s	6	1	SIC	243	RC	2	2	09VD 02VO 02VC 02MD 02MO 02MC 02RD 02RO	1	0	2.27801084518	288.0	-388.0	285	-391	1
2.7	2015_May_04_1505	s	s	6	1	SIC	244	RC	1	2	02VD 02VO 02VC 09MD 02MO 02MC 02RD 02RO	1	0	1.63160204887	-189.0	302.0	-185	292	1
2.7	2015_May_04_1505	s	s	6	1	SIC	245	ABS	0	1	02VD 02VO 02VC 02MD 02MO 02MC 02RD 10RO	0	1	3.31352496147	None	None	None	None	1
2.7	2015_May_04_1505	s	s	6	1	SIC	246	RC	1	0	02VD 02VO 02VC 02MD 02MO 09MC 02RD 02RO	1	0	1.02989006042	-77.0	277.0	-83	277	1
2.7	2015_May_04_1505	s	s	6	1	SIC	247	RC	2	1	02VD 09VO 02VC 02MD 02MO 02MC 02RD 02RO	1	0	2.40726709366	-440.0	-109.0	-441	-111	1
2.7	2015_May_04_1505	s	s	6	1	SIC	248	ABS	0	2	02VD 02VO 02VC 02MD 02MO 02MC 10RD 02RO	0	1	2.84314703941	None	None	None	None	1
2.7	2015_May_04_1505	s	s	6	1	SIC	249	RC	0	1	02VD 02VO 02VC 02MD 02MO 02MC 02RD 09RO	1	0	2.24756884575	-216.0	-396.0	-220	-406	1
2.7	2015_May_04_1505	s	s	6	1	SIC	250	ABS	1	2	02VD 02VO 02VC 10MD 02MO 02MC 02RD 02RO	0	1	2.80076503754	None	None	None	None	1
2.7	2015_May_04_1505	s	s	6	1	SIC	251	RC	1	1	02VD 02VO 02VC 02MD 09MO 02MC 02RD 02RO	1	0	1.57172298431	-511.0	-214.0	-511	-216	1
2.7	2015_May_04_1505	s	s	6	1	SIC	252	ABS	1	1	02VD 02VO 02VC 02MD 10MO 02MC 02RD 02RO	0	1	2.14858913422	None	None	None	None	1
2.7	2015_May_04_1505	s	s	6	1	SIC	253	ABS	2	0	02VD 02VO 10VC 02MD 02MO 02MC 02RD 02RO	0	1	2.26610708237	None	None	None	None	1
2.7	2015_May_04_1505	s	s	6	1	SIC	254	ABS	2	1	02VD 10VO 02VC 02MD 02MO 02MC 02RD 02RO	0	1	2.01782393456	None	None	None	None	1
2.7	2015_May_04_1505	s	s	6	1	SIC	255	RC	2	0	02VD 02VO 09VC 02MD 02MO 02MC 02RD 02RO	1	0	1.32701706886	187.0	-329.0	203	-320	1
2.7	2015_May_04_1505	s	s	6	1	SIC	256	RC	0	2	02VD 02VO 02VC 02MD 02MO 02MC 09RD 02RO	1	0	1.13624095917	-353.0	-106.0	-353	-126	1
2.7	2015_May_04_1505	s	s	6	1	SIC	257	RC	2	1	02VD 09VO 02VC 02MD 02MO 02MC 02RD 02RO	1	0	1.50115895271	-84.0	-172.0	-78	-176	1
2.7	2015_May_04_1505	s	s	6	1	SIC	258	RC	1	0	02VD 02VO 02VC 02MD 02MO 09MC 02RD 02RO	1	0	2.70176696777	417.0	103.0	419	87	1
2.7	2015_May_04_1505	s	s	6	1	SIC	259	ABS	1	1	02VD 02VO 02VC 02MD 10MO 02MC 02RD 02RO	0	1	3.42468094826	None	None	None	None	1
2.7	2015_May_04_1505	s	s	6	1	SIC	260	ABS	2	0	02VD 02VO 10VC 02MD 02MO 02MC 02RD 02RO	0	1	2.43628883362	None	None	None	None	1
2.7	2015_May_04_1505	s	s	6	1	SIC	261	RC	2	2	09VD 02VO 02VC 02MD 02MO 02MC 02RD 02RO	1	0	1.29411196709	425.0	103.0	435	111	1
2.7	2015_May_04_1505	s	s	6	1	SIC	262	RC	0	2	02VD 02VO 02VC 02MD 02MO 02MC 09RD 02RO	1	0	0.947675943375	360.0	-218.0	357	-210	1
2.7	2015_May_04_1505	s	s	6	1	SIC	263	ABS	0	1	02VD 02VO 02VC 02MD 02MO 02MC 02RD 10RO	0	1	3.16083312035	None	None	None	None	1
2.7	2015_May_04_1505	s	s	6	1	SIC	264	ABS	2	2	10VD 02VO 02VC 02MD 02MO 02MC 02RD 02RO	0	1	1.83071517944	None	None	None	None	1
2.7	2015_May_04_1505	s	s	6	1	SIC	265	ABS	1	0	02VD 02VO 02VC 02MD 02MO 10MC 02RD 02RO	0	1	2.95990204811	None	None	None	None	1
2.7	2015_May_04_1505	s	s	6	1	SIC	266	ABS	2	1	02VD 10VO 02VC 02MD 02MO 02MC 02RD 02RO	0	1	1.7735350132	None	None	None	None	1
2.7	2015_May_04_1505	s	s	6	1	SIC	267	RC	0	1	02VD 02VO 02VC 02MD 02MO 02MC 02RD 09RO	0	1	3.94254112244	317.0	81.0	None	None	0
2.7	2015_May_04_1505	s	s	6	1	SIC	268	RC	2	0	02VD 02VO 09VC 02MD 02MO 02MC 02RD 02RO	1	0	1.17640781403	280.0	313.0	292	315	1
2.7	2015_May_04_1505	s	s	6	1	SIC	269	RC	1	2	02VD 02VO 02VC 09MD 02MO 02MC 02RD 02RO	1	0	2.02071905136	435.0	-16.0	437	-20	1
2.7	2015_May_04_1505	s	s	6	1	SIC	270	RC	1	1	02VD 02VO 02VC 02MD 09MO 02MC 02RD 02RO	1	0	3.37780499458	-269.0	225.0	-271	221	1
2.7	2015_May_04_1505	s	s	6	1	SIC	271	ABS	1	2	02VD 02VO 02VC 10MD 02MO 02MC 02RD 02RO	0	1	1.85916495323	None	None	None	None	1
2.7	2015_May_04_1505	s	s	6	1	SIC	272	ABS	0	2	02VD 02VO 02VC 02MD 02MO 02MC 10RD 02RO	0	1	2.26590895653	None	None	None	None	1
2.7	2015_May_04_1505	s	s	6	1	SIC	273	RC	0	1	02VD 02VO 02VC 02MD 02MO 02MC 02RD 09RO	0	1	4.8699529171	225.0	-306.0	None	None	0
2.7	2015_May_04_1505	s	s	6	1	SIC	274	ABS	0	1	02VD 02VO 02VC 02MD 02MO 02MC 02RD 10RO	0	1	3.28345608711	None	None	None	None	1
2.7	2015_May_04_1505	s	s	6	1	SIC	275	RC	2	1	02VD 09VO 02VC 02MD 02MO 02MC 02RD 02RO	1	0	1.52969503403	-476.0	-47.0	-469	-50	1
2.7	2015_May_04_1505	s	s	6	1	SIC	276	RC	1	2	02VD 02VO 02VC 09MD 02MO 02MC 02RD 02RO	1	0	1.12430906296	-381.0	4.0	-396	12	1
2.7	2015_May_04_1505	s	s	6	1	SIC	277	ABS	2	2	10VD 02VO 02VC 02MD 02MO 02MC 02RD 02RO	0	1	1.62371587753	None	None	None	None	1
2.7	2015_May_04_1505	s	s	6	1	SIC	278	RC	1	1	02VD 02VO 02VC 02MD 09MO 02MC 02RD 02RO	1	0	1.04139208794	495.0	23.0	493	15	1
2.7	2015_May_04_1505	s	s	6	1	SIC	279	RC	2	0	02VD 02VO 09VC 02MD 02MO 02MC 02RD 02RO	1	0	2.04743480682	-537.0	307.0	-540	299	1
2.7	2015_May_04_1505	s	s	6	1	SIC	280	RC	2	2	09VD 02VO 02VC 02MD 02MO 02MC 02RD 02RO	1	0	1.18319201469	-338.0	408.0	-343	412	1
2.7	2015_May_04_1505	s	s	6	1	SIC	281	ABS	1	2	02VD 02VO 02VC 10MD 02MO 02MC 02RD 02RO	0	1	0.430767059326	None	None	None	None	1
2.7	2015_May_04_1505	s	s	6	1	SIC	282	RC	1	0	02VD 02VO 02VC 02MD 02MO 09MC 02RD 02RO	1	0	2.18373799324	486.0	203.0	489	197	1
2.7	2015_May_04_1505	s	s	6	1	SIC	283	ABS	1	0	02VD 02VO 02VC 02MD 02MO 10MC 02RD 02RO	0	1	3.58403706551	None	None	None	None	1
2.7	2015_May_04_1505	s	s	6	1	SIC	284	ABS	1	1	02VD 02VO 02VC 02MD 10MO 02MC 02RD 02RO	0	1	2.73691511154	None	None	None	None	1
2.7	2015_May_04_1505	s	s	6	1	SIC	285	RC	0	2	02VD 02VO 02VC 02MD 02MO 02MC 09RD 02RO	1	0	1.03021097183	213.0	-101.0	201	-92	1
2.7	2015_May_04_1505	s	s	6	1	SIC	286	ABS	0	2	02VD 02VO 02VC 02MD 02MO 02MC 10RD 02RO	0	1	1.96535801888	None	None	None	None	1
2.7	2015_May_04_1505	s	s	6	1	SIC	287	ABS	2	0	02VD 02VO 10VC 02MD 02MO 02MC 02RD 02RO	0	1	2.18555998802	None	None	None	None	1
2.7	2015_May_04_1505	s	s	6	1	SIC	288	ABS	2	1	02VD 10VO 02VC 02MD 02MO 02MC 02RD 02RO	0	1	2.25971412659	None	None	None	None	1
2.7	2015_May_04_1505	s	s	6	1	SIC	289	RC	0	2	02VD 02VO 02VC 02MD 02MO 02MC 09RD 02RO	1	0	1.05423998833	252.0	230.0	256	231	1
2.7	2015_May_04_1505	s	s	6	1	SIC	290	ABS	1	1	02VD 02VO 02VC 02MD 10MO 02MC 02RD 02RO	0	1	2.08285284042	None	None	None	None	1
2.7	2015_May_04_1505	s	s	6	1	SIC	291	ABS	2	2	10VD 02VO 02VC 02MD 02MO 02MC 02RD 02RO	0	1	2.0357401371	None	None	None	None	1
2.7	2015_May_04_1505	s	s	6	1	SIC	292	RC	0	1	02VD 02VO 02VC 02MD 02MO 02MC 02RD 09RO	1	0	3.56962704659	367.0	238.0	370	224	1
2.7	2015_May_04_1505	s	s	6	1	SIC	293	ABS	0	2	02VD 02VO 02VC 02MD 02MO 02MC 10RD 02RO	0	1	2.25430011749	None	None	None	None	1
2.7	2015_May_04_1505	s	s	6	1	SIC	294	ABS	1	2	02VD 02VO 02VC 10MD 02MO 02MC 02RD 02RO	0	1	2.02166700363	None	None	None	None	1
2.7	2015_May_04_1505	s	s	6	1	SIC	295	RC	1	2	02VD 02VO 02VC 09MD 02MO 02MC 02RD 02RO	1	0	1.84228205681	290.0	303.0	295	305	1
2.7	2015_May_04_1505	s	s	6	1	SIC	296	RC	1	0	02VD 02VO 02VC 02MD 02MO 09MC 02RD 02RO	1	0	1.98895597458	-489.0	-309.0	-476	-304	1
2.7	2015_May_04_1505	s	s	6	1	SIC	297	ABS	2	1	02VD 10VO 02VC 02MD 02MO 02MC 02RD 02RO	0	1	2.8891210556	None	None	None	None	1
2.7	2015_May_04_1505	s	s	6	1	SIC	298	ABS	1	0	02VD 02VO 02VC 02MD 02MO 10MC 02RD 02RO	0	1	5.52650690079	None	None	None	None	1
2.7	2015_May_04_1505	s	s	6	1	SIC	299	ABS	0	1	02VD 02VO 02VC 02MD 02MO 02MC 02RD 10RO	0	1	3.60972595215	None	None	None	None	1
2.7	2015_May_04_1505	s	s	6	1	SIC	300	RC	2	2	09VD 02VO 02VC 02MD 02MO 02MC 02RD 02RO	1	0	0.988085031509	-328.0	-57.0	-330	-50	1
2.7	2015_May_04_1505	s	s	6	1	SIC	301	ABS	2	0	02VD 02VO 10VC 02MD 02MO 02MC 02RD 02RO	0	1	2.74217009544	None	None	None	None	1
2.7	2015_May_04_1505	s	s	6	1	SIC	302	RC	1	1	02VD 02VO 02VC 02MD 09MO 02MC 02RD 02RO	1	0	1.58371400833	-276.0	-355.0	-277	-361	1
2.7	2015_May_04_1505	s	s	6	1	SIC	303	RC	2	1	02VD 09VO 02VC 02MD 02MO 02MC 02RD 02RO	1	0	1.30603981018	-455.0	27.0	-445	25	1
2.7	2015_May_04_1505	s	s	6	1	SIC	304	RC	2	0	02VD 02VO 09VC 02MD 02MO 02MC 02RD 02RO	1	0	1.60732221603	-384.0	-336.0	-374	-337	1
2.7	2015_May_04_1505	s	s	6	1	SIC	305	RC	0	2	02VD 02VO 02VC 02MD 02MO 02MC 09RD 02RO	1	0	1.52470803261	-90.0	232.0	-93	235	1
2.7	2015_May_04_1505	s	s	6	1	SIC	306	RC	1	1	02VD 02VO 02VC 02MD 09MO 02MC 02RD 02RO	0	1	0.171073198318	5.0	240.0	None	None	0
2.7	2015_May_04_1505	s	s	6	1	SIC	307	RC	2	1	02VD 09VO 02VC 02MD 02MO 02MC 02RD 02RO	1	0	2.41238498688	-478.0	201.0	-473	203	1
2.7	2015_May_04_1505	s	s	6	1	SIC	308	ABS	1	2	02VD 02VO 02VC 10MD 02MO 02MC 02RD 02RO	0	1	1.77674794197	None	None	None	None	1
2.7	2015_May_04_1505	s	s	6	1	SIC	309	ABS	1	1	02VD 02VO 02VC 02MD 10MO 02MC 02RD 02RO	0	1	2.05951595306	None	None	None	None	1
2.7	2015_May_04_1505	s	s	6	1	SIC	310	RC	1	0	02VD 02VO 02VC 02MD 02MO 09MC 02RD 02RO	1	0	1.38370800018	-143.0	-162.0	-137	-160	1
2.7	2015_May_04_1505	s	s	6	1	SIC	311	RC	2	0	02VD 02VO 09VC 02MD 02MO 02MC 02RD 02RO	1	0	2.70177006721	-458.0	-346.0	-452	-351	1
2.7	2015_May_04_1505	s	s	6	1	SIC	312	ABS	2	2	10VD 02VO 02VC 02MD 02MO 02MC 02RD 02RO	0	1	1.91548514366	None	None	None	None	1
2.7	2015_May_04_1505	s	s	6	1	SIC	313	ABS	2	0	02VD 02VO 10VC 02MD 02MO 02MC 02RD 02RO	0	1	2.23102998734	None	None	None	None	1
2.7	2015_May_04_1505	s	s	6	1	SIC	314	ABS	2	1	02VD 10VO 02VC 02MD 02MO 02MC 02RD 02RO	0	1	1.36479997635	None	None	None	None	1
2.7	2015_May_04_1505	s	s	6	1	SIC	315	RC	0	1	02VD 02VO 02VC 02MD 02MO 02MC 02RD 09RO	1	0	1.962236166	221.0	190.0	223	186	1
2.7	2015_May_04_1505	s	s	6	1	SIC	316	ABS	0	2	02VD 02VO 02VC 02MD 02MO 02MC 10RD 02RO	0	1	2.57240390778	None	None	None	None	1
2.7	2015_May_04_1505	s	s	6	1	SIC	317	ABS	1	0	02VD 02VO 02VC 02MD 02MO 10MC 02RD 02RO	0	1	1.72961807251	None	None	None	None	1
2.7	2015_May_04_1505	s	s	6	1	SIC	318	RC	2	2	09VD 02VO 02VC 02MD 02MO 02MC 02RD 02RO	1	0	1.59517812729	135.0	332.0	120	340	1
2.7	2015_May_04_1505	s	s	6	1	SIC	319	RC	1	2	02VD 02VO 02VC 09MD 02MO 02MC 02RD 02RO	1	0	1.45552492142	-425.0	-305.0	-421	-314	1
2.7	2015_May_04_1505	s	s	6	1	SIC	320	ABS	0	1	02VD 02VO 02VC 02MD 02MO 02MC 02RD 10RO	0	1	3.07149815559	None	None	None	None	1
2.7	2015_May_04_1505	s	s	6	1	SIC	321	RC	2	0	02VD 02VO 09VC 02MD 02MO 02MC 02RD 02RO	1	0	1.87093806267	201.0	339.0	201	333	1
2.7	2015_May_04_1505	s	s	6	1	SIC	322	ABS	1	2	02VD 02VO 02VC 10MD 02MO 02MC 02RD 02RO	0	1	2.96320796013	None	None	None	None	1
2.7	2015_May_04_1505	s	s	6	1	SIC	323	RC	0	1	02VD 02VO 02VC 02MD 02MO 02MC 02RD 09RO	1	0	3.63638997078	-332.0	16.0	-331	18	1
2.7	2015_May_04_1505	s	s	6	1	SIC	324	ABS	2	0	02VD 02VO 10VC 02MD 02MO 02MC 02RD 02RO	0	1	2.41923594475	None	None	None	None	1
2.7	2015_May_04_1505	s	s	6	1	SIC	325	RC	2	2	09VD 02VO 02VC 02MD 02MO 02MC 02RD 02RO	1	0	1.27054190636	-320.0	147.0	-324	138	1
2.7	2015_May_04_1505	s	s	6	1	SIC	326	RC	1	2	02VD 02VO 02VC 09MD 02MO 02MC 02RD 02RO	1	0	1.06599020958	-198.0	-112.0	-191	-113	1
2.7	2015_May_04_1505	s	s	6	1	SIC	327	ABS	2	2	10VD 02VO 02VC 02MD 02MO 02MC 02RD 02RO	0	1	2.16007089615	None	None	None	None	1
2.7	2015_May_04_1505	s	s	6	1	SIC	328	ABS	2	1	02VD 10VO 02VC 02MD 02MO 02MC 02RD 02RO	0	1	1.67086982727	None	None	None	None	1
2.7	2015_May_04_1505	s	s	6	1	SIC	329	ABS	0	2	02VD 02VO 02VC 02MD 02MO 02MC 10RD 02RO	0	1	2.04247283936	None	None	None	None	1
2.7	2015_May_04_1505	s	s	6	1	SIC	330	ABS	1	0	02VD 02VO 02VC 02MD 02MO 10MC 02RD 02RO	0	1	2.40681385994	None	None	None	None	1
2.7	2015_May_04_1505	s	s	6	1	SIC	331	ABS	1	1	02VD 02VO 02VC 02MD 10MO 02MC 02RD 02RO	0	1	2.93865704536	None	None	None	None	1
2.7	2015_May_04_1505	s	s	6	1	SIC	332	RC	0	2	02VD 02VO 02VC 02MD 02MO 02MC 09RD 02RO	1	0	1.21175193787	-107.0	-130.0	-100	-134	1
2.7	2015_May_04_1505	s	s	6	1	SIC	333	RC	2	1	02VD 09VO 02VC 02MD 02MO 02MC 02RD 02RO	1	0	0.912494897842	-381.0	-52.0	-373	-52	1
2.7	2015_May_04_1505	s	s	6	1	SIC	334	RC	1	0	02VD 02VO 02VC 02MD 02MO 09MC 02RD 02RO	1	0	2.41909408569	238.0	-94.0	245	-96	1
2.7	2015_May_04_1505	s	s	6	1	SIC	335	ABS	0	1	02VD 02VO 02VC 02MD 02MO 02MC 02RD 10RO	0	1	3.69078493118	None	None	None	None	1
2.7	2015_May_04_1505	s	s	6	1	SIC	336	RC	1	1	02VD 02VO 02VC 02MD 09MO 02MC 02RD 02RO	1	0	1.11799287796	-104.0	150.0	-114	155	1
2.7	2015_May_04_1505	s	s	6	1	SIC	337	RC	2	0	02VD 02VO 09VC 02MD 02MO 02MC 02RD 02RO	1	0	1.49082112312	-246.0	-387.0	-251	-388	1
2.7	2015_May_04_1505	s	s	6	1	SIC	338	RC	0	1	02VD 02VO 02VC 02MD 02MO 02MC 02RD 09RO	1	0	2.84299015999	505.0	-156.0	503	-157	1
2.7	2015_May_04_1505	s	s	6	1	SIC	339	ABS	1	2	02VD 02VO 02VC 10MD 02MO 02MC 02RD 02RO	0	1	1.78330016136	None	None	None	None	1
2.7	2015_May_04_1505	s	s	6	1	SIC	340	RC	1	0	02VD 02VO 02VC 02MD 02MO 09MC 02RD 02RO	1	0	1.14092612267	-312.0	246.0	-311	237	1
2.7	2015_May_04_1505	s	s	6	1	SIC	341	ABS	1	1	02VD 02VO 02VC 02MD 10MO 02MC 02RD 02RO	0	1	3.51876807213	None	None	None	None	1
2.7	2015_May_04_1505	s	s	6	1	SIC	342	ABS	0	2	02VD 02VO 02VC 02MD 02MO 02MC 10RD 02RO	0	1	2.21894907951	None	None	None	None	1
2.7	2015_May_04_1505	s	s	6	1	SIC	343	RC	1	2	02VD 02VO 02VC 09MD 02MO 02MC 02RD 02RO	1	0	1.35301208496	-392.0	-94.0	-392	-84	1
2.7	2015_May_04_1505	s	s	6	1	SIC	344	ABS	2	2	10VD 02VO 02VC 02MD 02MO 02MC 02RD 02RO	0	1	3.142608881	None	None	None	None	1
2.7	2015_May_04_1505	s	s	6	1	SIC	345	RC	2	1	02VD 09VO 02VC 02MD 02MO 02MC 02RD 02RO	1	0	1.00022912025	-141.0	133.0	-136	124	1
2.7	2015_May_04_1505	s	s	6	1	SIC	346	ABS	2	0	02VD 02VO 10VC 02MD 02MO 02MC 02RD 02RO	0	1	3.48344397545	None	None	None	None	1
2.7	2015_May_04_1505	s	s	6	1	SIC	347	ABS	2	1	02VD 10VO 02VC 02MD 02MO 02MC 02RD 02RO	0	1	1.6825799942	None	None	None	None	1
2.7	2015_May_04_1505	s	s	6	1	SIC	348	RC	2	2	09VD 02VO 02VC 02MD 02MO 02MC 02RD 02RO	1	0	1.97088098526	269.0	150.0	262	157	1
2.7	2015_May_04_1505	s	s	6	1	SIC	349	ABS	1	0	02VD 02VO 02VC 02MD 02MO 10MC 02RD 02RO	0	1	4.49009895325	None	None	None	None	1
2.7	2015_May_04_1505	s	s	6	1	SIC	350	ABS	0	1	02VD 02VO 02VC 02MD 02MO 02MC 02RD 10RO	0	1	4.40197682381	None	None	None	None	1
2.7	2015_May_04_1505	s	s	6	1	SIC	351	RC	1	1	02VD 02VO 02VC 02MD 09MO 02MC 02RD 02RO	1	0	1.87711215019	47.0	-266.0	55	-271	1
2.7	2015_May_04_1505	s	s	6	1	SIC	352	RC	0	2	02VD 02VO 02VC 02MD 02MO 02MC 09RD 02RO	1	0	1.11248803139	-79.0	273.0	-82	281	1
2.7	2015_May_04_1505	s	s	6	1	SIC	353	RC	0	1	02VD 02VO 02VC 02MD 02MO 02MC 02RD 09RO	1	0	0.938341856003	-138.0	260.0	-139	268	1
2.7	2015_May_04_1505	s	s	6	1	SIC	354	ABS	1	2	02VD 02VO 02VC 10MD 02MO 02MC 02RD 02RO	0	1	1.91797494888	None	None	None	None	1
2.7	2015_May_04_1505	s	s	6	1	SIC	355	ABS	0	2	02VD 02VO 02VC 02MD 02MO 02MC 10RD 02RO	0	1	1.98898983002	None	None	None	None	1
2.7	2015_May_04_1505	s	s	6	1	SIC	356	ABS	2	1	02VD 10VO 02VC 02MD 02MO 02MC 02RD 02RO	0	1	2.25654101372	None	None	None	None	1
2.7	2015_May_04_1505	s	s	6	1	SIC	357	ABS	2	0	02VD 02VO 10VC 02MD 02MO 02MC 02RD 02RO	0	1	2.74861001968	None	None	None	None	1
2.7	2015_May_04_1505	s	s	6	1	SIC	358	ABS	1	0	02VD 02VO 02VC 02MD 02MO 10MC 02RD 02RO	0	1	1.98861002922	None	None	None	None	1
2.7	2015_May_04_1505	s	s	6	1	SIC	359	RC	1	0	02VD 02VO 02VC 02MD 02MO 09MC 02RD 02RO	1	0	0.972162008286	-19.0	238.0	-16	232	1
2.7	2015_May_04_1505	s	s	6	1	SIC	360	RC	2	0	02VD 02VO 09VC 02MD 02MO 02MC 02RD 02RO	1	0	1.36479210854	453.0	38.0	453	28	1
2.7	2015_May_04_1505	s	s	6	1	SIC	361	RC	2	2	09VD 02VO 02VC 02MD 02MO 02MC 02RD 02RO	1	0	1.15276908875	-300.0	116.0	-295	112	1
2.7	2015_May_04_1505	s	s	6	1	SIC	362	ABS	2	2	10VD 02VO 02VC 02MD 02MO 02MC 02RD 02RO	0	1	2.84321808815	None	None	None	None	1
2.7	2015_May_04_1505	s	s	6	1	SIC	363	ABS	1	1	02VD 02VO 02VC 02MD 10MO 02MC 02RD 02RO	0	1	3.22130298615	None	None	None	None	1
2.7	2015_May_04_1505	s	s	6	1	SIC	364	RC	0	2	02VD 02VO 02VC 02MD 02MO 02MC 09RD 02RO	1	0	1.94795012474	489.0	-375.0	498	-374	1
2.7	2015_May_04_1505	s	s	6	1	SIC	365	ABS	0	1	02VD 02VO 02VC 02MD 02MO 02MC 02RD 10RO	0	1	3.81980013847	None	None	None	None	1
2.7	2015_May_04_1505	s	s	6	1	SIC	366	RC	1	2	02VD 02VO 02VC 09MD 02MO 02MC 02RD 02RO	1	0	1.2069029808	-214.0	-80.0	-226	-79	1
2.7	2015_May_04_1505	s	s	6	1	SIC	367	RC	1	1	02VD 02VO 02VC 02MD 09MO 02MC 02RD 02RO	1	0	9.59238386154	-307.0	-372.0	-306	-376	1
2.7	2015_May_04_1505	s	s	6	1	SIC	368	RC	2	1	02VD 09VO 02VC 02MD 02MO 02MC 02RD 02RO	1	0	0.92475104332	-339.0	188.0	-328	195	1
2.7	2015_May_04_1505	s	s	6	1	SIC	369	RC	1	2	02VD 02VO 02VC 09MD 02MO 02MC 02RD 02RO	1	0	4.79622912407	397.0	302.0	396	292	1
2.7	2015_May_04_1505	s	s	6	1	SIC	370	ABS	0	2	02VD 02VO 02VC 02MD 02MO 02MC 10RD 02RO	0	1	2.90170502663	None	None	None	None	1
2.7	2015_May_04_1505	s	s	6	1	SIC	371	RC	1	1	02VD 02VO 02VC 02MD 09MO 02MC 02RD 02RO	1	0	3.93797683716	126.0	-204.0	119	-204	1
2.7	2015_May_04_1505	s	s	6	1	SIC	372	RC	0	2	02VD 02VO 02VC 02MD 02MO 02MC 09RD 02RO	1	0	3.1068379879	84.0	-260.0	80	-258	1
2.7	2015_May_04_1505	s	s	6	1	SIC	373	ABS	1	0	02VD 02VO 02VC 02MD 02MO 10MC 02RD 02RO	0	1	3.9635848999	None	None	None	None	1
2.7	2015_May_04_1505	s	s	6	1	SIC	374	ABS	2	1	02VD 10VO 02VC 02MD 02MO 02MC 02RD 02RO	0	1	2.68294787407	None	None	None	None	1
2.7	2015_May_04_1505	s	s	6	1	SIC	375	ABS	0	1	02VD 02VO 02VC 02MD 02MO 02MC 02RD 10RO	0	1	4.66060185432	None	None	None	None	1
2.7	2015_May_04_1505	s	s	6	1	SIC	376	ABS	2	2	10VD 02VO 02VC 02MD 02MO 02MC 02RD 02RO	0	1	1.60685896873	None	None	None	None	1
2.7	2015_May_04_1505	s	s	6	1	SIC	377	ABS	1	2	02VD 02VO 02VC 10MD 02MO 02MC 02RD 02RO	0	1	2.45981907845	None	None	None	None	1
2.7	2015_May_04_1505	s	s	6	1	SIC	378	RC	1	0	02VD 02VO 02VC 02MD 02MO 09MC 02RD 02RO	1	0	2.60429596901	206.0	139.0	201	138	1
2.7	2015_May_04_1505	s	s	6	1	SIC	379	ABS	1	1	02VD 02VO 02VC 02MD 10MO 02MC 02RD 02RO	0	1	2.67120790482	None	None	None	None	1
2.7	2015_May_04_1505	s	s	6	1	SIC	380	RC	2	0	02VD 02VO 09VC 02MD 02MO 02MC 02RD 02RO	1	0	1.19513988495	-462.0	1.0	-473	10	1
2.7	2015_May_04_1505	s	s	6	1	SIC	381	RC	2	1	02VD 09VO 02VC 02MD 02MO 02MC 02RD 02RO	1	0	1.9885840416	315.0	285.0	316	292	1
2.7	2015_May_04_1505	s	s	6	1	SIC	382	ABS	2	0	02VD 02VO 10VC 02MD 02MO 02MC 02RD 02RO	0	1	2.52509117126	None	None	None	None	1
2.7	2015_May_04_1505	s	s	6	1	SIC	383	RC	0	1	02VD 02VO 02VC 02MD 02MO 02MC 02RD 09RO	1	0	3.04334712029	-408.0	-349.0	-415	-352	1
2.7	2015_May_04_1505	s	s	6	1	SIC	384	RC	2	2	09VD 02VO 02VC 02MD 02MO 02MC 02RD 02RO	1	0	1.5766248703	-445.0	272.0	-438	272	1
2.7	2015_May_04_1505	s	s	6	1	SIC	385	ABS	1	0	02VD 02VO 02VC 02MD 02MO 10MC 02RD 02RO	0	1	2.47822403908	None	None	None	None	1
2.7	2015_May_04_1505	s	s	6	1	SIC	386	RC	0	1	02VD 02VO 02VC 02MD 02MO 02MC 02RD 09RO	1	0	1.81203317642	-363.0	-71.0	-358	-70	1
2.7	2015_May_04_1505	s	s	6	1	SIC	387	RC	1	0	02VD 02VO 02VC 02MD 02MO 09MC 02RD 02RO	1	0	1.99712491035	499.0	369.0	492	367	1
2.7	2015_May_04_1505	s	s	6	1	SIC	388	ABS	0	1	02VD 02VO 02VC 02MD 02MO 02MC 02RD 10RO	0	1	3.12509417534	None	None	None	None	1
2.7	2015_May_04_1505	s	s	6	1	SIC	389	ABS	1	2	02VD 02VO 02VC 10MD 02MO 02MC 02RD 02RO	0	1	2.14876794815	None	None	None	None	1
2.7	2015_May_04_1505	s	s	6	1	SIC	390	ABS	2	2	10VD 02VO 02VC 02MD 02MO 02MC 02RD 02RO	0	1	1.81210017204	None	None	None	None	1
2.7	2015_May_04_1505	s	s	6	1	SIC	391	RC	2	1	02VD 09VO 02VC 02MD 02MO 02MC 02RD 02RO	1	0	1.94619894028	-503.0	68.0	-503	64	1
2.7	2015_May_04_1505	s	s	6	1	SIC	392	RC	2	2	09VD 02VO 02VC 02MD 02MO 02MC 02RD 02RO	1	0	3.56111693382	268.0	371.0	271	362	1
2.7	2015_May_04_1505	s	s	6	1	SIC	393	RC	0	2	02VD 02VO 02VC 02MD 02MO 02MC 09RD 02RO	1	0	1.86599993706	535.0	-383.0	535	-377	1
2.7	2015_May_04_1505	s	s	6	1	SIC	394	RC	1	1	02VD 02VO 02VC 02MD 09MO 02MC 02RD 02RO	1	0	1.29418206215	-157.0	-29.0	-161	-20	1
2.7	2015_May_04_1505	s	s	6	1	SIC	395	ABS	2	1	02VD 10VO 02VC 02MD 02MO 02MC 02RD 02RO	0	1	2.50653195381	None	None	None	None	1
2.7	2015_May_04_1505	s	s	6	1	SIC	396	ABS	0	2	02VD 02VO 02VC 02MD 02MO 02MC 10RD 02RO	0	1	2.34215712547	None	None	None	None	1
2.7	2015_May_04_1505	s	s	6	1	SIC	397	ABS	2	0	02VD 02VO 10VC 02MD 02MO 02MC 02RD 02RO	0	1	2.61289381981	None	None	None	None	1
2.7	2015_May_04_1505	s	s	6	1	SIC	398	ABS	1	1	02VD 02VO 02VC 02MD 10MO 02MC 02RD 02RO	0	1	3.02445316315	None	None	None	None	1
2.7	2015_May_04_1505	s	s	6	1	SIC	399	RC	1	2	02VD 02VO 02VC 09MD 02MO 02MC 02RD 02RO	1	0	1.31768488884	-489.0	396.0	-492	393	1
2.7	2015_May_04_1505	s	s	6	1	SIC	400	RC	2	0	02VD 02VO 09VC 02MD 02MO 02MC 02RD 02RO	0	1	0.49059510231	-126.0	-145.0	None	None	0
2.7	2015_May_04_1505	s	s	6	1	SIC	401	ABS	2	1	02VD 10VO 02VC 02MD 02MO 02MC 02RD 02RO	0	1	1.93646407127	None	None	None	None	1
2.7	2015_May_04_1505	s	s	6	1	SIC	402	ABS	1	0	02VD 02VO 02VC 02MD 02MO 10MC 02RD 02RO	0	1	3.13744282722	None	None	None	None	1
2.7	2015_May_04_1505	s	s	6	1	SIC	403	RC	0	2	02VD 02VO 02VC 02MD 02MO 02MC 09RD 02RO	0	1	2.53624415398	341.0	-349.0	None	None	0
2.7	2015_May_04_1505	s	s	6	1	SIC	404	ABS	1	2	02VD 02VO 02VC 10MD 02MO 02MC 02RD 02RO	0	1	1.57418608665	None	None	None	None	1
2.7	2015_May_04_1505	s	s	6	1	SIC	405	ABS	2	2	10VD 02VO 02VC 02MD 02MO 02MC 02RD 02RO	0	1	1.98855495453	None	None	None	None	1
2.7	2015_May_04_1505	s	s	6	1	SIC	406	RC	2	2	09VD 02VO 02VC 02MD 02MO 02MC 02RD 02RO	0	1	2.58409404755	-457.0	299.0	None	None	0
2.7	2015_May_04_1505	s	s	6	1	SIC	407	RC	1	0	02VD 02VO 02VC 02MD 02MO 09MC 02RD 02RO	0	1	2.87817287445	-447.0	150.0	None	None	0
2.7	2015_May_04_1505	s	s	6	1	SIC	408	RC	0	1	02VD 02VO 02VC 02MD 02MO 02MC 02RD 09RO	1	0	5.19023394585	262.0	7.0	250	9	1
2.7	2015_May_04_1505	s	s	6	1	SIC	409	RC	2	1	02VD 09VO 02VC 02MD 02MO 02MC 02RD 02RO	1	0	1.04687285423	92.0	-14.0	91	-15	1
2.7	2015_May_04_1505	s	s	6	1	SIC	410	RC	1	1	02VD 02VO 02VC 02MD 09MO 02MC 02RD 02RO	1	0	1.65401601791	-346.0	114.0	-334	122	1
2.7	2015_May_04_1505	s	s	6	1	SIC	411	ABS	0	2	02VD 02VO 02VC 02MD 02MO 02MC 10RD 02RO	0	1	2.29072999954	None	None	None	None	1
2.7	2015_May_04_1505	s	s	6	1	SIC	412	RC	2	0	02VD 02VO 09VC 02MD 02MO 02MC 02RD 02RO	1	0	1.73656797409	245.0	150.0	254	149	1
2.7	2015_May_04_1505	s	s	6	1	SIC	413	ABS	2	0	02VD 02VO 10VC 02MD 02MO 02MC 02RD 02RO	0	1	3.14216804504	None	None	None	None	1
2.7	2015_May_04_1505	s	s	6	1	SIC	414	RC	1	2	02VD 02VO 02VC 09MD 02MO 02MC 02RD 02RO	1	0	1.90141677856	383.0	-381.0	391	-378	1
2.7	2015_May_04_1505	s	s	6	1	SIC	415	ABS	1	1	02VD 02VO 02VC 02MD 10MO 02MC 02RD 02RO	0	1	2.37695813179	None	None	None	None	1
2.7	2015_May_04_1505	s	s	6	1	SIC	416	ABS	0	1	02VD 02VO 02VC 02MD 02MO 02MC 02RD 10RO	0	1	2.85962796211	None	None	None	None	1
2.7	2015_May_04_1505	s	s	6	1	SIC	417	ABS	2	1	02VD 10VO 02VC 02MD 02MO 02MC 02RD 02RO	0	1	2.35355710983	None	None	None	None	1
2.7	2015_May_04_1505	s	s	6	1	SIC	418	ABS	2	2	10VD 02VO 02VC 02MD 02MO 02MC 02RD 02RO	0	1	2.05447101593	None	None	None	None	1
2.7	2015_May_04_1505	s	s	6	1	SIC	419	RC	1	2	02VD 02VO 02VC 09MD 02MO 02MC 02RD 02RO	1	0	1.97201299667	-28.0	-382.0	-33	-374	1
2.7	2015_May_04_1505	s	s	6	1	SIC	420	ABS	0	1	02VD 02VO 02VC 02MD 02MO 02MC 02RD 10RO	0	1	3.04793715477	None	None	None	None	1
2.7	2015_May_04_1505	s	s	6	1	SIC	421	RC	0	2	02VD 02VO 02VC 02MD 02MO 02MC 09RD 02RO	0	1	1.9297208786	342.0	-411.0	None	None	0
2.7	2015_May_04_1505	s	s	6	1	SIC	422	ABS	0	2	02VD 02VO 02VC 02MD 02MO 02MC 10RD 02RO	0	1	2.44763016701	None	None	None	None	1
2.7	2015_May_04_1505	s	s	6	1	SIC	423	RC	2	0	02VD 02VO 09VC 02MD 02MO 02MC 02RD 02RO	1	0	1.23030304909	431.0	219.0	441	220	1
2.7	2015_May_04_1505	s	s	6	1	SIC	424	RC	1	1	02VD 02VO 02VC 02MD 09MO 02MC 02RD 02RO	1	0	3.22443604469	40.0	301.0	31	308	1
2.7	2015_May_04_1505	s	s	6	1	SIC	425	ABS	2	0	02VD 02VO 10VC 02MD 02MO 02MC 02RD 02RO	0	1	2.39577198029	None	None	None	None	1
2.7	2015_May_04_1505	s	s	6	1	SIC	426	ABS	1	0	02VD 02VO 02VC 02MD 02MO 10MC 02RD 02RO	0	1	2.49139809608	None	None	None	None	1
2.7	2015_May_04_1505	s	s	6	1	SIC	427	RC	2	2	09VD 02VO 02VC 02MD 02MO 02MC 02RD 02RO	1	0	2.15341997147	206.0	149.0	214	143	1
2.7	2015_May_04_1505	s	s	6	1	SIC	428	RC	2	1	02VD 09VO 02VC 02MD 02MO 02MC 02RD 02RO	1	0	1.91484689713	-90.0	-305.0	-96	-307	1
2.7	2015_May_04_1505	s	s	6	1	SIC	429	ABS	1	2	02VD 02VO 02VC 10MD 02MO 02MC 02RD 02RO	0	1	2.94182801247	None	None	None	None	1
2.7	2015_May_04_1505	s	s	6	1	SIC	430	RC	0	1	02VD 02VO 02VC 02MD 02MO 02MC 02RD 09RO	1	0	2.54167509079	417.0	-234.0	402	-225	1
2.7	2015_May_04_1505	s	s	6	1	SIC	431	RC	1	0	02VD 02VO 02VC 02MD 02MO 09MC 02RD 02RO	1	0	0.929441928864	-241.0	178.0	-252	180	1
2.7	2015_May_04_1505	s	s	6	1	SIC	432	ABS	1	1	02VD 02VO 02VC 02MD 10MO 02MC 02RD 02RO	0	1	0.170912981033	None	None	None	None	1
2.7	2015_May_04_1505	s	s	6	1	SIC	433	ABS	0	1	02VD 02VO 02VC 02MD 02MO 02MC 02RD 10RO	0	1	3.23624801636	None	None	None	None	1
2.7	2015_May_04_1505	s	s	6	1	SIC	434	ABS	1	0	02VD 02VO 02VC 02MD 02MO 10MC 02RD 02RO	0	1	3.01269006729	None	None	None	None	1
2.7	2015_May_04_1505	s	s	6	1	SIC	435	RC	2	0	02VD 02VO 09VC 02MD 02MO 02MC 02RD 02RO	0	1	3.91409683228	30.0	177.0	None	None	0
2.7	2015_May_04_1505	s	s	6	1	SIC	436	RC	2	2	09VD 02VO 02VC 02MD 02MO 02MC 02RD 02RO	0	1	3.83153796196	-324.0	77.0	None	None	0
2.7	2015_May_04_1505	s	s	6	1	SIC	437	RC	0	1	02VD 02VO 02VC 02MD 02MO 02MC 02RD 09RO	0	1	3.60827589035	209.0	207.0	None	None	0
2.7	2015_May_04_1505	s	s	6	1	SIC	438	ABS	1	1	02VD 02VO 02VC 02MD 10MO 02MC 02RD 02RO	0	1	2.61920309067	None	None	None	None	1
2.7	2015_May_04_1505	s	s	6	1	SIC	439	RC	1	1	02VD 02VO 02VC 02MD 09MO 02MC 02RD 02RO	1	0	3.09500288963	522.0	-219.0	526	-211	1
2.7	2015_May_04_1505	s	s	6	1	SIC	440	ABS	2	0	02VD 02VO 10VC 02MD 02MO 02MC 02RD 02RO	0	1	2.0672659874	None	None	None	None	1
2.7	2015_May_04_1505	s	s	6	1	SIC	441	ABS	0	2	02VD 02VO 02VC 02MD 02MO 02MC 10RD 02RO	0	1	2.5250620842	None	None	None	None	1
2.7	2015_May_04_1505	s	s	6	1	SIC	442	ABS	2	1	02VD 10VO 02VC 02MD 02MO 02MC 02RD 02RO	0	1	3.44011998177	None	None	None	None	1
2.7	2015_May_04_1505	s	s	6	1	SIC	443	RC	0	2	02VD 02VO 02VC 02MD 02MO 02MC 09RD 02RO	0	1	2.35357904434	-259.0	-194.0	None	None	0
2.7	2015_May_04_1505	s	s	6	1	SIC	444	RC	1	2	02VD 02VO 02VC 09MD 02MO 02MC 02RD 02RO	1	0	1.43033695221	-28.0	-212.0	-20	-215	1
2.7	2015_May_04_1505	s	s	6	1	SIC	445	RC	1	0	02VD 02VO 02VC 02MD 02MO 09MC 02RD 02RO	1	0	2.12992596626	522.0	262.0	518	249	1
2.7	2015_May_04_1505	s	s	6	1	SIC	446	ABS	1	2	02VD 02VO 02VC 10MD 02MO 02MC 02RD 02RO	0	1	2.0191411972	None	None	None	None	1
2.7	2015_May_04_1505	s	s	6	1	SIC	447	RC	2	1	02VD 09VO 02VC 02MD 02MO 02MC 02RD 02RO	0	1	1.98411989212	-197.0	84.0	None	None	0
2.7	2015_May_04_1505	s	s	6	1	SIC	448	ABS	2	2	10VD 02VO 02VC 02MD 02MO 02MC 02RD 02RO	0	1	2.20052886009	None	None	None	None	1
2.7	2015_May_04_1505	s	s	6	1	SIC	449	RC	1	1	02VD 02VO 02VC 02MD 09MO 02MC 02RD 02RO	1	0	1.22887206078	-32.0	397.0	-18	403	1
2.7	2015_May_04_1505	s	s	6	1	SIC	450	RC	2	1	02VD 09VO 02VC 02MD 02MO 02MC 02RD 02RO	0	1	0.147835016251	503.0	281.0	None	None	0
2.7	2015_May_04_1505	s	s	6	1	SIC	451	RC	1	2	02VD 02VO 02VC 09MD 02MO 02MC 02RD 02RO	1	0	2.09456300735	-383.0	-282.0	-389	-284	1
2.7	2015_May_04_1505	s	s	6	1	SIC	452	ABS	1	2	02VD 02VO 02VC 10MD 02MO 02MC 02RD 02RO	0	1	2.01887607574	None	None	None	None	1
2.7	2015_May_04_1505	s	s	6	1	SIC	453	RC	0	1	02VD 02VO 02VC 02MD 02MO 02MC 02RD 09RO	1	0	2.97316098213	188.0	335.0	195	337	1
2.7	2015_May_04_1505	s	s	6	1	SIC	454	ABS	2	2	10VD 02VO 02VC 02MD 02MO 02MC 02RD 02RO	0	1	2.83197903633	None	None	None	None	1
2.7	2015_May_04_1505	s	s	6	1	SIC	455	ABS	1	1	02VD 02VO 02VC 02MD 10MO 02MC 02RD 02RO	0	1	3.2211329937	None	None	None	None	1
2.7	2015_May_04_1505	s	s	6	1	SIC	456	ABS	2	0	02VD 02VO 10VC 02MD 02MO 02MC 02RD 02RO	0	1	3.01266312599	None	None	None	None	1
2.7	2015_May_04_1505	s	s	6	1	SIC	457	RC	2	2	09VD 02VO 02VC 02MD 02MO 02MC 02RD 02RO	1	0	1.52955698967	-501.0	-41.0	-509	-39	1
2.7	2015_May_04_1505	s	s	6	1	SIC	458	ABS	1	0	02VD 02VO 02VC 02MD 02MO 10MC 02RD 02RO	0	1	2.97229599953	None	None	None	None	1
2.7	2015_May_04_1505	s	s	6	1	SIC	459	RC	0	2	02VD 02VO 02VC 02MD 02MO 02MC 09RD 02RO	1	0	1.14822602272	-278.0	127.0	-279	132	1
2.7	2015_May_04_1505	s	s	6	1	SIC	460	ABS	0	2	02VD 02VO 02VC 02MD 02MO 02MC 10RD 02RO	0	1	1.9608361721	None	None	None	None	1
2.7	2015_May_04_1505	s	s	6	1	SIC	461	ABS	2	1	02VD 10VO 02VC 02MD 02MO 02MC 02RD 02RO	0	1	2.69483304024	None	None	None	None	1
2.7	2015_May_04_1505	s	s	6	1	SIC	462	RC	2	0	02VD 02VO 09VC 02MD 02MO 02MC 02RD 02RO	0	1	2.66655802727	285.0	-391.0	None	None	0
2.7	2015_May_04_1505	s	s	6	1	SIC	463	ABS	0	1	02VD 02VO 02VC 02MD 02MO 02MC 02RD 10RO	0	1	3.04795789719	None	None	None	None	1
2.7	2015_May_04_1505	s	s	6	1	SIC	464	RC	1	0	02VD 02VO 02VC 02MD 02MO 09MC 02RD 02RO	0	1	2.05921316147	55.0	29.0	None	None	0
2.7	2015_May_04_1505	s	s	6	1	SIC	465	ABS	1	0	02VD 02VO 02VC 02MD 02MO 10MC 02RD 02RO	1	0	2.18871712685	None	None	133	60	0
2.7	2015_May_04_1505	s	s	6	1	SIC	466	RC	0	1	02VD 02VO 02VC 02MD 02MO 02MC 02RD 09RO	0	1	4.81083703041	-334.0	121.0	None	None	0
2.7	2015_May_04_1505	s	s	6	1	SIC	467	RC	1	2	02VD 02VO 02VC 09MD 02MO 02MC 02RD 02RO	1	0	2.33018112183	448.0	169.0	455	162	1
2.7	2015_May_04_1505	s	s	6	1	SIC	468	ABS	2	2	10VD 02VO 02VC 02MD 02MO 02MC 02RD 02RO	0	1	2.07096385956	None	None	None	None	1
2.7	2015_May_04_1505	s	s	6	1	SIC	469	RC	2	0	02VD 02VO 09VC 02MD 02MO 02MC 02RD 02RO	1	0	1.4424238205	-419.0	-42.0	-418	-45	1
2.7	2015_May_04_1505	s	s	6	1	SIC	470	ABS	2	1	02VD 10VO 02VC 02MD 02MO 02MC 02RD 02RO	0	1	1.97203087807	None	None	None	None	1
2.7	2015_May_04_1505	s	s	6	1	SIC	471	ABS	0	2	02VD 02VO 02VC 02MD 02MO 02MC 10RD 02RO	0	1	2.32509493828	None	None	None	None	1
2.7	2015_May_04_1505	s	s	6	1	SIC	472	ABS	1	2	02VD 02VO 02VC 10MD 02MO 02MC 02RD 02RO	0	1	1.7179069519	None	None	None	None	1
2.7	2015_May_04_1505	s	s	6	1	SIC	473	ABS	1	1	02VD 02VO 02VC 02MD 10MO 02MC 02RD 02RO	0	1	1.8120598793	None	None	None	None	1
2.7	2015_May_04_1505	s	s	6	1	SIC	474	RC	1	1	02VD 02VO 02VC 02MD 09MO 02MC 02RD 02RO	1	0	1.34798979759	-297.0	-214.0	-295	-217	1
2.7	2015_May_04_1505	s	s	6	1	SIC	475	RC	1	0	02VD 02VO 02VC 02MD 02MO 09MC 02RD 02RO	1	0	0.835057973862	125.0	47.0	127	47	1
2.7	2015_May_04_1505	s	s	6	1	SIC	476	RC	2	2	09VD 02VO 02VC 02MD 02MO 02MC 02RD 02RO	1	0	0.764486074448	-349.0	-219.0	-339	-219	1
2.7	2015_May_04_1505	s	s	6	1	SIC	477	RC	2	1	02VD 09VO 02VC 02MD 02MO 02MC 02RD 02RO	1	0	1.42358088493	-369.0	31.0	-380	38	1
2.7	2015_May_04_1505	s	s	6	1	SIC	478	ABS	0	1	02VD 02VO 02VC 02MD 02MO 02MC 02RD 10RO	0	1	3.3775510788	None	None	None	None	1
2.7	2015_May_04_1505	s	s	6	1	SIC	479	RC	0	2	02VD 02VO 02VC 02MD 02MO 02MC 09RD 02RO	0	1	2.23579692841	-339.0	-219.0	None	None	0
2.7	2015_May_04_1505	s	s	6	1	SIC	480	ABS	2	0	02VD 02VO 10VC 02MD 02MO 02MC 02RD 02RO	0	1	1.86612391472	None	None	None	None	1
