Version	Date	Stimuli	Method	Subject	Session	Condition	Trial	Target	Channel1	Channel2	Distractors	LMouseButton	RMouseButton	RT	TargetX	TargetY	ResponseX	ResponseY	Correct
2.7	2015_May_05_1457	s	s	6	2	Capacity	1	RC	2	0	15VC 08MC	1	0	1.46570301056	119.0	287.0	125	289	1
2.7	2015_May_05_1457	s	s	6	2	Capacity	2	ABS	2	0	16VC 08MC	0	1	2.96561694145	None	None	None	None	1
2.7	2015_May_05_1457	s	s	6	2	Capacity	3	ABS	1	0	08VC 16MC	0	1	4.38981819153	None	None	None	None	1
2.7	2015_May_05_1457	s	s	6	2	Capacity	4	RC	1	0	08VC 15MC	1	0	1.61897301674	472.0	-384.0	480	-386	1
2.7	2015_May_05_1457	s	s	6	2	Capacity	5	RC	2	0	15VC 08MC	1	0	1.63545203209	307.0	-368.0	306	-367	1
2.7	2015_May_05_1457	s	s	6	2	Capacity	6	ABS	2	0	16VC 08MC	0	1	4.09065413475	None	None	None	None	1
2.7	2015_May_05_1457	s	s	6	2	Capacity	7	RC	1	0	08VC 15MC	1	0	1.73637390137	411.0	-51.0	412	-47	1
2.7	2015_May_05_1457	s	s	6	2	Capacity	8	ABS	1	0	08VC 16MC	0	1	3.44815087318	None	None	None	None	1
2.7	2015_May_05_1457	s	s	6	2	Capacity	9	ABS	2	0	16VC 08MC	0	1	3.78414416313	None	None	None	None	1
2.7	2015_May_05_1457	s	s	6	2	Capacity	10	RC	1	0	08VC 15MC	1	0	1.23591017723	459.0	-181.0	462	-177	1
2.7	2015_May_05_1457	s	s	6	2	Capacity	11	RC	2	0	15VC 08MC	1	0	1.09421801567	-293.0	-4.0	-296	3	1
2.7	2015_May_05_1457	s	s	6	2	Capacity	12	ABS	1	0	08VC 16MC	0	1	2.86878108978	None	None	None	None	1
2.7	2015_May_05_1457	s	s	6	2	Capacity	13	RC	2	0	15VC 08MC	1	0	1.80023598671	166.0	-379.0	167	-382	1
2.7	2015_May_05_1457	s	s	6	2	Capacity	14	RC	1	0	08VC 15MC	1	0	1.05604290962	-538.0	147.0	-543	145	1
2.7	2015_May_05_1457	s	s	6	2	Capacity	15	ABS	2	0	16VC 08MC	0	1	2.98429203033	None	None	None	None	1
2.7	2015_May_05_1457	s	s	6	2	Capacity	16	ABS	1	0	08VC 16MC	0	1	3.32457280159	None	None	None	None	1
2.7	2015_May_05_1457	s	s	6	2	Capacity	17	RC	1	0	08VC 15MC	1	0	0.888971090317	313.0	113.0	320	113	1
2.7	2015_May_05_1457	s	s	6	2	Capacity	18	ABS	1	0	08VC 16MC	0	1	2.91842889786	None	None	None	None	1
2.7	2015_May_05_1457	s	s	6	2	Capacity	19	ABS	2	0	16VC 08MC	0	1	3.01024103165	None	None	None	None	1
2.7	2015_May_05_1457	s	s	6	2	Capacity	20	RC	2	0	15VC 08MC	1	0	0.846830844879	-352.0	308.0	-348	303	1
2.7	2015_May_05_1457	s	s	6	2	Capacity	21	ABS	2	0	16VC 08MC	0	1	2.31861400604	None	None	None	None	1
2.7	2015_May_05_1457	s	s	6	2	Capacity	22	ABS	1	0	08VC 16MC	0	1	2.82432198524	None	None	None	None	1
2.7	2015_May_05_1457	s	s	6	2	Capacity	23	RC	1	0	08VC 15MC	1	0	1.7616918087	534.0	-341.0	541	-348	1
2.7	2015_May_05_1457	s	s	6	2	Capacity	24	RC	2	0	15VC 08MC	1	0	0.846815824509	-311.0	104.0	-318	106	1
2.7	2015_May_05_1457	s	s	6	2	Capacity	25	RC	2	0	15VC 08MC	1	0	1.70605492592	528.0	26.0	520	27	1
2.7	2015_May_05_1457	s	s	6	2	Capacity	26	ABS	2	0	16VC 08MC	0	1	2.88320088387	None	None	None	None	1
2.7	2015_May_05_1457	s	s	6	2	Capacity	27	RC	1	0	08VC 15MC	1	0	1.47070479393	523.0	-287.0	522	-289	1
2.7	2015_May_05_1457	s	s	6	2	Capacity	28	ABS	1	0	08VC 16MC	0	1	2.53009009361	None	None	None	None	1
2.7	2015_May_05_1457	s	s	6	2	Capacity	29	RC	1	0	08VC 15MC	1	0	1.39988207817	-462.0	-301.0	-472	-300	1
2.7	2015_May_05_1457	s	s	6	2	Capacity	30	ABS	2	0	16VC 08MC	0	1	2.8478038311	None	None	None	None	1
2.7	2015_May_05_1457	s	s	6	2	Capacity	31	RC	2	0	15VC 08MC	1	0	0.705556154251	76.0	-20.0	77	-29	1
2.7	2015_May_05_1457	s	s	6	2	Capacity	32	ABS	1	0	08VC 16MC	0	1	2.45944499969	None	None	None	None	1
2.7	2015_May_05_1457	s	s	6	2	Capacity	33	RC	1	0	08VC 15MC	1	0	1.43026304245	-430.0	-319.0	-430	-317	1
2.7	2015_May_05_1457	s	s	6	2	Capacity	34	ABS	1	0	08VC 16MC	0	1	4.79043102264	None	None	None	None	1
2.7	2015_May_05_1457	s	s	6	2	Capacity	35	ABS	2	0	16VC 08MC	0	1	2.18871903419	None	None	None	None	1
2.7	2015_May_05_1457	s	s	6	2	Capacity	36	RC	2	0	15VC 08MC	1	0	0.970717906952	431.0	-179.0	431	-181	1
2.7	2015_May_05_1457	s	s	6	2	Capacity	37	RC	2	0	15VC 08MC	1	0	1.28605103493	154.0	403.0	144	406	1
2.7	2015_May_05_1457	s	s	6	2	Capacity	38	RC	1	0	08VC 15MC	1	0	0.688923120499	120.0	318.0	120	315	1
2.7	2015_May_05_1457	s	s	6	2	Capacity	39	ABS	1	0	08VC 16MC	0	1	3.48345112801	None	None	None	None	1
2.7	2015_May_05_1457	s	s	6	2	Capacity	40	ABS	2	0	16VC 08MC	0	1	1.99235200882	None	None	None	None	1
2.7	2015_May_05_1457	s	s	6	2	Capacity	41	ABS	2	0	16VC 08MC	0	1	2.8363468647	None	None	None	None	1
2.7	2015_May_05_1457	s	s	6	2	Capacity	42	RC	1	0	08VC 15MC	1	0	1.85953903198	302.0	-290.0	298	-284	1
2.7	2015_May_05_1457	s	s	6	2	Capacity	43	RC	2	0	15VC 08MC	1	0	0.666651010513	69.0	196.0	71	196	1
2.7	2015_May_05_1457	s	s	6	2	Capacity	44	ABS	1	0	08VC 16MC	0	1	3.17743015289	None	None	None	None	1
2.7	2015_May_05_1457	s	s	6	2	Capacity	45	RC	2	0	15VC 08MC	1	0	1.13603186607	-471.0	223.0	-471	226	1
2.7	2015_May_05_1457	s	s	6	2	Capacity	46	ABS	2	0	16VC 08MC	0	1	2.44125795364	None	None	None	None	1
2.7	2015_May_05_1457	s	s	6	2	Capacity	47	ABS	1	0	08VC 16MC	0	1	2.36035704613	None	None	None	None	1
2.7	2015_May_05_1457	s	s	6	2	Capacity	48	RC	1	0	08VC 15MC	1	0	1.17166996002	449.0	302.0	448	302	1
2.7	2015_May_05_1457	s	s	6	2	Capacity	49	ABS	1	0	08VC 16MC	0	1	2.10630202293	None	None	None	None	1
2.7	2015_May_05_1457	s	s	6	2	Capacity	50	ABS	2	0	16VC 08MC	0	1	3.58436894417	None	None	None	None	1
2.7	2015_May_05_1457	s	s	6	2	Capacity	51	RC	1	0	08VC 15MC	1	0	1.38549399376	287.0	-250.0	289	-258	1
2.7	2015_May_05_1457	s	s	6	2	Capacity	52	RC	2	0	15VC 08MC	1	0	1.77183008194	488.0	-412.0	494	-418	1
2.7	2015_May_05_1457	s	s	6	2	Capacity	53	ABS	2	0	16VC 08MC	0	1	1.85621809959	None	None	None	None	1
2.7	2015_May_05_1457	s	s	6	2	Capacity	54	RC	2	0	15VC 08MC	1	0	0.771012067795	508.0	-41.0	500	-42	1
2.7	2015_May_05_1457	s	s	6	2	Capacity	55	ABS	1	0	08VC 16MC	0	1	3.18367600441	None	None	None	None	1
2.7	2015_May_05_1457	s	s	6	2	Capacity	56	RC	1	0	08VC 15MC	1	0	0.641868114471	190.0	178.0	194	177	1
2.7	2015_May_05_1457	s	s	6	2	Capacity	57	RC	1	0	08VC 15MC	1	0	0.846797227859	-290.0	-54.0	-284	-53	1
2.7	2015_May_05_1457	s	s	6	2	Capacity	58	RC	2	0	15VC 08MC	1	0	0.900444030762	-371.0	-115.0	-380	-110	1
2.7	2015_May_05_1457	s	s	6	2	Capacity	59	ABS	2	0	16VC 08MC	0	1	1.34788703918	None	None	None	None	1
2.7	2015_May_05_1457	s	s	6	2	Capacity	60	ABS	1	0	08VC 16MC	0	1	1.91799211502	None	None	None	None	1
2.7	2015_May_05_1457	s	s	6	2	Capacity	61	RC	2	0	15VC 08MC	1	0	1.50638389587	-490.0	-354.0	-491	-346	1
2.7	2015_May_05_1457	s	s	6	2	Capacity	62	ABS	1	0	08VC 16MC	0	1	1.8540430069	None	None	None	None	1
2.7	2015_May_05_1457	s	s	6	2	Capacity	63	ABS	2	0	16VC 08MC	0	1	1.70113682747	None	None	None	None	1
2.7	2015_May_05_1457	s	s	6	2	Capacity	64	RC	1	0	08VC 15MC	1	0	0.92428612709	536.0	-230.0	539	-231	1
2.7	2015_May_05_1457	s	s	6	2	Capacity	1	ABS	0	1	08RD 16RO	0	1	4.69082784653	None	None	None	None	1
2.7	2015_May_05_1457	s	s	6	2	Capacity	2	RC	0	1	08RD 15RO	1	0	1.84289383888	150.0	-239.0	141	-240	1
2.7	2015_May_05_1457	s	s	6	2	Capacity	3	RC	0	2	15RD 08RO	1	0	1.89489889145	434.0	-169.0	434	-174	1
2.7	2015_May_05_1457	s	s	6	2	Capacity	4	ABS	0	2	16RD 08RO	0	1	2.80078601837	None	None	None	None	1
2.7	2015_May_05_1457	s	s	6	2	Capacity	5	RC	0	2	15RD 08RO	1	0	1.50607180595	-225.0	370.0	-223	376	1
2.7	2015_May_05_1457	s	s	6	2	Capacity	6	ABS	0	2	16RD 08RO	0	1	2.55356287956	None	None	None	None	1
2.7	2015_May_05_1457	s	s	6	2	Capacity	7	ABS	0	1	08RD 16RO	0	1	4.7850151062	None	None	None	None	1
2.7	2015_May_05_1457	s	s	6	2	Capacity	8	RC	0	1	08RD 15RO	1	0	1.27908992767	-431.0	-57.0	-438	-57	1
2.7	2015_May_05_1457	s	s	6	2	Capacity	9	ABS	0	1	08RD 16RO	0	1	4.42510795593	None	None	None	None	1
2.7	2015_May_05_1457	s	s	6	2	Capacity	10	RC	0	2	15RD 08RO	1	0	1.90272593498	367.0	-102.0	377	-102	1
2.7	2015_May_05_1457	s	s	6	2	Capacity	11	RC	0	1	08RD 15RO	1	0	1.32998394966	16.0	-361.0	14	-360	1
2.7	2015_May_05_1457	s	s	6	2	Capacity	12	ABS	0	2	16RD 08RO	0	1	2.47931599617	None	None	None	None	1
2.7	2015_May_05_1457	s	s	6	2	Capacity	13	RC	0	1	08RD 15RO	1	0	1.74141097069	-92.0	-282.0	-91	-280	1
2.7	2015_May_05_1457	s	s	6	2	Capacity	14	RC	0	2	15RD 08RO	1	0	2.08278298378	-92.0	-145.0	-95	-144	1
2.7	2015_May_05_1457	s	s	6	2	Capacity	15	ABS	0	1	08RD 16RO	0	1	4.18969702721	None	None	None	None	1
2.7	2015_May_05_1457	s	s	6	2	Capacity	16	ABS	0	2	16RD 08RO	0	1	2.5300848484	None	None	None	None	1
2.7	2015_May_05_1457	s	s	6	2	Capacity	17	ABS	0	2	16RD 08RO	0	1	2.15343284607	None	None	None	None	1
2.7	2015_May_05_1457	s	s	6	2	Capacity	18	RC	0	2	15RD 08RO	1	0	2.08314609528	-450.0	397.0	-443	392	1
2.7	2015_May_05_1457	s	s	6	2	Capacity	19	ABS	0	1	08RD 16RO	0	1	4.02040410042	None	None	None	None	1
2.7	2015_May_05_1457	s	s	6	2	Capacity	20	RC	0	1	08RD 15RO	1	0	2.96060609818	-474.0	-302.0	-470	-307	1
2.7	2015_May_05_1457	s	s	6	2	Capacity	21	ABS	0	2	16RD 08RO	0	1	3.10193586349	None	None	None	None	1
2.7	2015_May_05_1457	s	s	6	2	Capacity	22	ABS	0	1	08RD 16RO	0	1	3.436398983	None	None	None	None	1
2.7	2015_May_05_1457	s	s	6	2	Capacity	23	RC	0	2	15RD 08RO	1	0	1.62070703506	214.0	-351.0	213	-359	1
2.7	2015_May_05_1457	s	s	6	2	Capacity	24	RC	0	1	08RD 15RO	1	0	1.30258989334	462.0	223.0	456	224	1
2.7	2015_May_05_1457	s	s	6	2	Capacity	25	RC	0	2	15RD 08RO	1	0	0.759415149689	125.0	323.0	129	313	1
2.7	2015_May_05_1457	s	s	6	2	Capacity	26	ABS	0	1	08RD 16RO	0	1	3.40707612038	None	None	None	None	1
2.7	2015_May_05_1457	s	s	6	2	Capacity	27	RC	0	1	08RD 15RO	1	0	2.8779489994	-334.0	347.0	-339	351	1
2.7	2015_May_05_1457	s	s	6	2	Capacity	28	ABS	0	2	16RD 08RO	0	1	2.71564793587	None	None	None	None	1
2.7	2015_May_05_1457	s	s	6	2	Capacity	29	RC	0	2	15RD 08RO	1	0	0.682402849197	-318.0	389.0	-308	388	1
2.7	2015_May_05_1457	s	s	6	2	Capacity	30	ABS	0	2	16RD 08RO	0	1	2.25286006927	None	None	None	None	1
2.7	2015_May_05_1457	s	s	6	2	Capacity	31	ABS	0	1	08RD 16RO	0	1	3.73062491417	None	None	None	None	1
2.7	2015_May_05_1457	s	s	6	2	Capacity	32	RC	0	1	08RD 15RO	1	0	2.26618909836	-333.0	239.0	-329	237	1
2.7	2015_May_05_1457	s	s	6	2	Capacity	33	ABS	0	2	16RD 08RO	0	1	3.11270594597	None	None	None	None	1
2.7	2015_May_05_1457	s	s	6	2	Capacity	34	RC	0	1	08RD 15RO	1	0	2.33904099464	-478.0	-67.0	-478	-73	1
2.7	2015_May_05_1457	s	s	6	2	Capacity	35	RC	0	2	15RD 08RO	1	0	0.988096952438	250.0	405.0	260	403	1
2.7	2015_May_05_1457	s	s	6	2	Capacity	36	ABS	0	1	08RD 16RO	0	1	5.3971581459	None	None	None	None	1
2.7	2015_May_05_1457	s	s	6	2	Capacity	37	ABS	0	2	16RD 08RO	0	1	2.42455291748	None	None	None	None	1
2.7	2015_May_05_1457	s	s	6	2	Capacity	38	RC	0	2	15RD 08RO	1	0	1.04395389557	-213.0	167.0	-208	157	1
2.7	2015_May_05_1457	s	s	6	2	Capacity	39	ABS	0	1	08RD 16RO	0	1	5.06723690033	None	None	None	None	1
2.7	2015_May_05_1457	s	s	6	2	Capacity	40	RC	0	1	08RD 15RO	1	0	2.57732009888	340.0	-79.0	337	-73	1
2.7	2015_May_05_1457	s	s	6	2	Capacity	41	RC	0	1	08RD 15RO	1	0	2.53682088852	465.0	-138.0	458	-134	1
2.7	2015_May_05_1457	s	s	6	2	Capacity	42	RC	0	2	15RD 08RO	1	0	1.1882109642	350.0	-177.0	338	-175	1
2.7	2015_May_05_1457	s	s	6	2	Capacity	43	ABS	0	1	08RD 16RO	0	1	4.1146979332	None	None	None	None	1
2.7	2015_May_05_1457	s	s	6	2	Capacity	44	ABS	0	2	16RD 08RO	0	1	2.84794306755	None	None	None	None	1
2.7	2015_May_05_1457	s	s	6	2	Capacity	45	RC	0	2	15RD 08RO	1	0	2.36219620705	-343.0	278.0	-349	275	1
2.7	2015_May_05_1457	s	s	6	2	Capacity	46	ABS	0	1	08RD 16RO	0	1	5.17585682869	None	None	None	None	1
2.7	2015_May_05_1457	s	s	6	2	Capacity	47	RC	0	1	08RD 15RO	1	0	2.6948530674	-379.0	237.0	-374	243	1
2.7	2015_May_05_1457	s	s	6	2	Capacity	48	ABS	0	2	16RD 08RO	0	1	3.70137000084	None	None	None	None	1
2.7	2015_May_05_1457	s	s	6	2	Capacity	49	ABS	0	1	08RD 16RO	0	1	4.0801551342	None	None	None	None	1
2.7	2015_May_05_1457	s	s	6	2	Capacity	50	RC	0	1	08RD 15RO	1	0	2.83596897125	14.0	-291.0	18	-296	1
2.7	2015_May_05_1457	s	s	6	2	Capacity	51	RC	0	2	15RD 08RO	1	0	1.25359010696	-405.0	377.0	-401	368	1
2.7	2015_May_05_1457	s	s	6	2	Capacity	52	ABS	0	2	16RD 08RO	0	1	3.01979398727	None	None	None	None	1
2.7	2015_May_05_1457	s	s	6	2	Capacity	53	ABS	0	1	08RD 16RO	0	1	3.7542090416	None	None	None	None	1
2.7	2015_May_05_1457	s	s	6	2	Capacity	54	ABS	0	2	16RD 08RO	0	1	2.61247801781	None	None	None	None	1
2.7	2015_May_05_1457	s	s	6	2	Capacity	55	RC	0	1	08RD 15RO	1	0	2.92754197121	364.0	106.0	366	102	1
2.7	2015_May_05_1457	s	s	6	2	Capacity	56	RC	0	2	15RD 08RO	1	0	1.59697914124	299.0	-32.0	289	-26	1
2.7	2015_May_05_1457	s	s	6	2	Capacity	57	RC	0	2	15RD 08RO	1	0	1.51440501213	43.0	-229.0	45	-232	1
2.7	2015_May_05_1457	s	s	6	2	Capacity	58	RC	0	1	08RD 15RO	1	0	1.47733283043	305.0	-322.0	304	-324	1
2.7	2015_May_05_1457	s	s	6	2	Capacity	59	ABS	0	1	08RD 16RO	0	1	4.14952087402	None	None	None	None	1
2.7	2015_May_05_1457	s	s	6	2	Capacity	60	ABS	0	2	16RD 08RO	0	1	2.39568805695	None	None	None	None	1
2.7	2015_May_05_1457	s	s	6	2	Capacity	61	RC	0	2	15RD 08RO	1	0	1.31772899628	494.0	-119.0	484	-121	1
2.7	2015_May_05_1457	s	s	6	2	Capacity	62	ABS	0	2	16RD 08RO	0	1	2.40056586266	None	None	None	None	1
2.7	2015_May_05_1457	s	s	6	2	Capacity	63	RC	0	1	08RD 15RO	1	0	1.1480448246	-97.0	392.0	-96	389	1
2.7	2015_May_05_1457	s	s	6	2	Capacity	64	ABS	0	1	08RD 16RO	0	1	5.81399798393	None	None	None	None	1
2.7	2015_May_05_1457	s	s	6	2	SIC	1	ABS	0	1	02VD 02VO 02VC 02MD 02MO 02MC 02RD 10RO	0	1	4.01311993599	None	None	None	None	1
2.7	2015_May_05_1457	s	s	6	2	SIC	2	RC	2	0	02VD 02VO 09VC 02MD 02MO 02MC 02RD 02RO	1	0	1.18561196327	-58.0	-279.0	-56	-283	1
2.7	2015_May_05_1457	s	s	6	2	SIC	3	ABS	1	1	02VD 02VO 02VC 02MD 10MO 02MC 02RD 02RO	0	1	3.66673898697	None	None	None	None	1
2.7	2015_May_05_1457	s	s	6	2	SIC	4	RC	1	1	02VD 02VO 02VC 02MD 09MO 02MC 02RD 02RO	1	0	1.23528790474	-105.0	-130.0	-103	-124	1
2.7	2015_May_05_1457	s	s	6	2	SIC	5	RC	0	2	02VD 02VO 02VC 02MD 02MO 02MC 09RD 02RO	1	0	2.65946292877	-409.0	-231.0	-410	-237	1
2.7	2015_May_05_1457	s	s	6	2	SIC	6	ABS	1	0	02VD 02VO 02VC 02MD 02MO 10MC 02RD 02RO	0	1	2.64274382591	None	None	None	None	1
2.7	2015_May_05_1457	s	s	6	2	SIC	7	RC	2	2	09VD 02VO 02VC 02MD 02MO 02MC 02RD 02RO	1	0	1.18377804756	446.0	-171.0	452	-167	1
2.7	2015_May_05_1457	s	s	6	2	SIC	8	ABS	0	2	02VD 02VO 02VC 02MD 02MO 02MC 10RD 02RO	0	1	2.42404198647	None	None	None	None	1
2.7	2015_May_05_1457	s	s	6	2	SIC	9	RC	1	2	02VD 02VO 02VC 09MD 02MO 02MC 02RD 02RO	1	0	1.01869797707	394.0	-28.0	390	-27	1
2.7	2015_May_05_1457	s	s	6	2	SIC	10	ABS	2	2	10VD 02VO 02VC 02MD 02MO 02MC 02RD 02RO	0	1	2.13678407669	None	None	None	None	1
2.7	2015_May_05_1457	s	s	6	2	SIC	11	ABS	2	1	02VD 10VO 02VC 02MD 02MO 02MC 02RD 02RO	0	1	2.32659006119	None	None	None	None	1
2.7	2015_May_05_1457	s	s	6	2	SIC	12	RC	0	1	02VD 02VO 02VC 02MD 02MO 02MC 02RD 09RO	1	0	4.21323609352	384.0	350.0	380	346	1
2.7	2015_May_05_1457	s	s	6	2	SIC	13	RC	2	1	02VD 09VO 02VC 02MD 02MO 02MC 02RD 02RO	1	0	1.21158909798	-146.0	-343.0	-142	-351	1
2.7	2015_May_05_1457	s	s	6	2	SIC	14	ABS	2	0	02VD 02VO 10VC 02MD 02MO 02MC 02RD 02RO	0	1	1.71791100502	None	None	None	None	1
2.7	2015_May_05_1457	s	s	6	2	SIC	15	RC	1	0	02VD 02VO 02VC 02MD 02MO 09MC 02RD 02RO	1	0	1.83290100098	-143.0	119.0	-130	129	1
2.7	2015_May_05_1457	s	s	6	2	SIC	16	ABS	1	2	02VD 02VO 02VC 10MD 02MO 02MC 02RD 02RO	0	1	2.30308198929	None	None	None	None	1
2.7	2015_May_05_1457	s	s	6	2	SIC	17	RC	0	1	02VD 02VO 02VC 02MD 02MO 02MC 02RD 09RO	1	0	3.30186796188	-485.0	-118.0	-481	-125	1
2.7	2015_May_05_1457	s	s	6	2	SIC	18	ABS	2	0	02VD 02VO 10VC 02MD 02MO 02MC 02RD 02RO	0	1	2.01232194901	None	None	None	None	1
2.7	2015_May_05_1457	s	s	6	2	SIC	19	ABS	0	2	02VD 02VO 02VC 02MD 02MO 02MC 10RD 02RO	0	1	2.69135594368	None	None	None	None	1
2.7	2015_May_05_1457	s	s	6	2	SIC	20	ABS	0	1	02VD 02VO 02VC 02MD 02MO 02MC 02RD 10RO	0	1	2.76546597481	None	None	None	None	1
2.7	2015_May_05_1457	s	s	6	2	SIC	21	RC	2	1	02VD 09VO 02VC 02MD 02MO 02MC 02RD 02RO	1	0	1.40010619164	317.0	57.0	313	59	1
2.7	2015_May_05_1457	s	s	6	2	SIC	22	RC	1	1	02VD 02VO 02VC 02MD 09MO 02MC 02RD 02RO	1	0	1.24401497841	518.0	-405.0	525	-409	1
2.7	2015_May_05_1457	s	s	6	2	SIC	23	ABS	2	2	10VD 02VO 02VC 02MD 02MO 02MC 02RD 02RO	0	1	1.92963695526	None	None	None	None	1
2.7	2015_May_05_1457	s	s	6	2	SIC	24	RC	1	0	02VD 02VO 02VC 02MD 02MO 09MC 02RD 02RO	1	0	2.04204702377	475.0	-120.0	474	-121	1
2.7	2015_May_05_1457	s	s	6	2	SIC	25	ABS	1	0	02VD 02VO 02VC 02MD 02MO 10MC 02RD 02RO	0	1	2.31811904907	None	None	None	None	1
2.7	2015_May_05_1457	s	s	6	2	SIC	26	ABS	1	1	02VD 02VO 02VC 02MD 10MO 02MC 02RD 02RO	0	1	2.2898080349	None	None	None	None	1
2.7	2015_May_05_1457	s	s	6	2	SIC	27	ABS	1	2	02VD 02VO 02VC 10MD 02MO 02MC 02RD 02RO	0	1	2.08957004547	None	None	None	None	1
2.7	2015_May_05_1457	s	s	6	2	SIC	28	RC	2	2	09VD 02VO 02VC 02MD 02MO 02MC 02RD 02RO	1	0	0.999877929688	75.0	-96.0	64	-91	1
2.7	2015_May_05_1457	s	s	6	2	SIC	29	RC	2	0	02VD 02VO 09VC 02MD 02MO 02MC 02RD 02RO	1	0	1.56479811668	460.0	-67.0	454	-59	1
2.7	2015_May_05_1457	s	s	6	2	SIC	30	ABS	2	1	02VD 10VO 02VC 02MD 02MO 02MC 02RD 02RO	0	1	1.54711508751	None	None	None	None	1
2.7	2015_May_05_1457	s	s	6	2	SIC	31	RC	1	2	02VD 02VO 02VC 09MD 02MO 02MC 02RD 02RO	1	0	2.50678014755	-450.0	376.0	-446	385	1
2.7	2015_May_05_1457	s	s	6	2	SIC	32	RC	0	2	02VD 02VO 02VC 02MD 02MO 02MC 09RD 02RO	1	0	1.88018393517	-160.0	-204.0	-161	-212	1
2.7	2015_May_05_1457	s	s	6	2	SIC	33	RC	2	1	02VD 09VO 02VC 02MD 02MO 02MC 02RD 02RO	1	0	1.61801099777	499.0	-329.0	491	-329	1
2.7	2015_May_05_1457	s	s	6	2	SIC	34	ABS	2	1	02VD 10VO 02VC 02MD 02MO 02MC 02RD 02RO	0	1	1.64232707024	None	None	None	None	1
2.7	2015_May_05_1457	s	s	6	2	SIC	35	RC	2	2	09VD 02VO 02VC 02MD 02MO 02MC 02RD 02RO	1	0	1.11448812485	333.0	-71.0	335	-71	1
2.7	2015_May_05_1457	s	s	6	2	SIC	36	ABS	1	1	02VD 02VO 02VC 02MD 10MO 02MC 02RD 02RO	0	1	1.80941987038	None	None	None	None	1
2.7	2015_May_05_1457	s	s	6	2	SIC	37	ABS	1	2	02VD 02VO 02VC 10MD 02MO 02MC 02RD 02RO	0	1	2.62422299385	None	None	None	None	1
2.7	2015_May_05_1457	s	s	6	2	SIC	38	RC	0	1	02VD 02VO 02VC 02MD 02MO 02MC 02RD 09RO	1	0	0.882180929184	152.0	400.0	149	400	1
2.7	2015_May_05_1457	s	s	6	2	SIC	39	ABS	2	2	10VD 02VO 02VC 02MD 02MO 02MC 02RD 02RO	0	1	1.965020895	None	None	None	None	1
2.7	2015_May_05_1457	s	s	6	2	SIC	40	ABS	2	0	02VD 02VO 10VC 02MD 02MO 02MC 02RD 02RO	0	1	1.77274107933	None	None	None	None	1
2.7	2015_May_05_1457	s	s	6	2	SIC	41	RC	1	0	02VD 02VO 02VC 02MD 02MO 09MC 02RD 02RO	1	0	1.21945405006	417.0	-378.0	414	-378	1
2.7	2015_May_05_1457	s	s	6	2	SIC	42	RC	0	2	02VD 02VO 02VC 02MD 02MO 02MC 09RD 02RO	1	0	1.71312618256	-373.0	-228.0	-364	-225	1
2.7	2015_May_05_1457	s	s	6	2	SIC	43	RC	1	1	02VD 02VO 02VC 02MD 09MO 02MC 02RD 02RO	1	0	1.82382297516	456.0	-243.0	459	-239	1
2.7	2015_May_05_1457	s	s	6	2	SIC	44	ABS	0	1	02VD 02VO 02VC 02MD 02MO 02MC 02RD 10RO	0	1	3.26352119446	None	None	None	None	1
2.7	2015_May_05_1457	s	s	6	2	SIC	45	ABS	1	0	02VD 02VO 02VC 02MD 02MO 10MC 02RD 02RO	0	1	2.65950894356	None	None	None	None	1
2.7	2015_May_05_1457	s	s	6	2	SIC	46	RC	1	2	02VD 02VO 02VC 09MD 02MO 02MC 02RD 02RO	1	0	1.24706983566	-538.0	128.0	-530	124	1
2.7	2015_May_05_1457	s	s	6	2	SIC	47	RC	2	0	02VD 02VO 09VC 02MD 02MO 02MC 02RD 02RO	1	0	1.65461993217	533.0	-309.0	537	-306	1
2.7	2015_May_05_1457	s	s	6	2	SIC	48	ABS	0	2	02VD 02VO 02VC 02MD 02MO 02MC 10RD 02RO	0	1	2.32989692688	None	None	None	None	1
2.7	2015_May_05_1457	s	s	6	2	SIC	49	ABS	0	2	02VD 02VO 02VC 02MD 02MO 02MC 10RD 02RO	0	1	2.08965086937	None	None	None	None	1
2.7	2015_May_05_1457	s	s	6	2	SIC	50	RC	0	2	02VD 02VO 02VC 02MD 02MO 02MC 09RD 02RO	1	0	1.035145998	295.0	278.0	293	272	1
2.7	2015_May_05_1457	s	s	6	2	SIC	51	RC	2	1	02VD 09VO 02VC 02MD 02MO 02MC 02RD 02RO	1	0	0.888972043991	-392.0	287.0	-391	280	1
2.7	2015_May_05_1457	s	s	6	2	SIC	52	ABS	1	1	02VD 02VO 02VC 02MD 10MO 02MC 02RD 02RO	0	1	3.01936006546	None	None	None	None	1
2.7	2015_May_05_1457	s	s	6	2	SIC	53	ABS	0	1	02VD 02VO 02VC 02MD 02MO 02MC 02RD 10RO	0	1	4.79721713066	None	None	None	None	1
2.7	2015_May_05_1457	s	s	6	2	SIC	54	RC	0	1	02VD 02VO 02VC 02MD 02MO 02MC 02RD 09RO	1	0	1.84205007553	15.0	-8.0	20	-12	1
2.7	2015_May_05_1457	s	s	6	2	SIC	55	ABS	2	0	02VD 02VO 10VC 02MD 02MO 02MC 02RD 02RO	0	1	1.95996594429	None	None	None	None	1
2.7	2015_May_05_1457	s	s	6	2	SIC	56	ABS	2	2	10VD 02VO 02VC 02MD 02MO 02MC 02RD 02RO	0	1	1.80023288727	None	None	None	None	1
2.7	2015_May_05_1457	s	s	6	2	SIC	57	RC	1	1	02VD 02VO 02VC 02MD 09MO 02MC 02RD 02RO	1	0	1.19737815857	382.0	164.0	388	160	1
2.7	2015_May_05_1457	s	s	6	2	SIC	58	ABS	2	1	02VD 10VO 02VC 02MD 02MO 02MC 02RD 02RO	0	1	2.18058109283	None	None	None	None	1
2.7	2015_May_05_1457	s	s	6	2	SIC	59	ABS	1	2	02VD 02VO 02VC 10MD 02MO 02MC 02RD 02RO	0	1	2.05926203728	None	None	None	None	1
2.7	2015_May_05_1457	s	s	6	2	SIC	60	RC	2	0	02VD 02VO 09VC 02MD 02MO 02MC 02RD 02RO	1	0	0.748526096344	214.0	56.0	218	48	1
2.7	2015_May_05_1457	s	s	6	2	SIC	61	ABS	1	0	02VD 02VO 02VC 02MD 02MO 10MC 02RD 02RO	0	1	2.7274119854	None	None	None	None	1
2.7	2015_May_05_1457	s	s	6	2	SIC	62	RC	1	0	02VD 02VO 02VC 02MD 02MO 09MC 02RD 02RO	1	0	1.06407499313	23.0	-36.0	16	-26	1
2.7	2015_May_05_1457	s	s	6	2	SIC	63	RC	1	2	02VD 02VO 02VC 09MD 02MO 02MC 02RD 02RO	1	0	1.0117058754	18.0	46.0	15	35	1
2.7	2015_May_05_1457	s	s	6	2	SIC	64	RC	2	2	09VD 02VO 02VC 02MD 02MO 02MC 02RD 02RO	1	0	0.9714179039	-325.0	-165.0	-316	-166	1
2.7	2015_May_05_1457	s	s	6	2	SIC	65	RC	0	1	02VD 02VO 02VC 02MD 02MO 02MC 02RD 09RO	1	0	0.948369026184	-248.0	-78.0	-246	-80	1
2.7	2015_May_05_1457	s	s	6	2	SIC	66	RC	0	2	02VD 02VO 02VC 02MD 02MO 02MC 09RD 02RO	1	0	0.982432842255	208.0	-85.0	216	-86	1
2.7	2015_May_05_1457	s	s	6	2	SIC	67	ABS	1	0	02VD 02VO 02VC 02MD 02MO 10MC 02RD 02RO	0	1	2.55357909203	None	None	None	None	1
2.7	2015_May_05_1457	s	s	6	2	SIC	68	RC	2	0	02VD 02VO 09VC 02MD 02MO 02MC 02RD 02RO	1	0	3.24263215065	480.0	147.0	486	150	1
2.7	2015_May_05_1457	s	s	6	2	SIC	69	RC	2	2	09VD 02VO 02VC 02MD 02MO 02MC 02RD 02RO	1	0	1.30068087578	-296.0	219.0	-301	224	1
2.7	2015_May_05_1457	s	s	6	2	SIC	70	RC	1	1	02VD 02VO 02VC 02MD 09MO 02MC 02RD 02RO	1	0	0.799808979034	385.0	-126.0	388	-128	1
2.7	2015_May_05_1457	s	s	6	2	SIC	71	ABS	1	1	02VD 02VO 02VC 02MD 10MO 02MC 02RD 02RO	0	1	3.43666505814	None	None	None	None	1
2.7	2015_May_05_1457	s	s	6	2	SIC	72	ABS	0	2	02VD 02VO 02VC 02MD 02MO 02MC 10RD 02RO	0	1	2.3251209259	None	None	None	None	1
2.7	2015_May_05_1457	s	s	6	2	SIC	73	ABS	1	2	02VD 02VO 02VC 10MD 02MO 02MC 02RD 02RO	0	1	2.11847496033	None	None	None	None	1
2.7	2015_May_05_1457	s	s	6	2	SIC	74	RC	2	1	02VD 09VO 02VC 02MD 02MO 02MC 02RD 02RO	1	0	1.17131114006	525.0	-194.0	535	-195	1
2.7	2015_May_05_1457	s	s	6	2	SIC	75	ABS	0	1	02VD 02VO 02VC 02MD 02MO 02MC 02RD 10RO	0	1	3.56068992615	None	None	None	None	1
2.7	2015_May_05_1457	s	s	6	2	SIC	76	ABS	2	0	02VD 02VO 10VC 02MD 02MO 02MC 02RD 02RO	0	1	2.5300180912	None	None	None	None	1
2.7	2015_May_05_1457	s	s	6	2	SIC	77	RC	1	0	02VD 02VO 02VC 02MD 02MO 09MC 02RD 02RO	1	0	2.27103686333	-190.0	-3.0	-205	4	1
2.7	2015_May_05_1457	s	s	6	2	SIC	78	ABS	2	2	10VD 02VO 02VC 02MD 02MO 02MC 02RD 02RO	0	1	2.40726399422	None	None	None	None	1
2.7	2015_May_05_1457	s	s	6	2	SIC	79	ABS	2	1	02VD 10VO 02VC 02MD 02MO 02MC 02RD 02RO	0	1	2.87799787521	None	None	None	None	1
2.7	2015_May_05_1457	s	s	6	2	SIC	80	RC	1	2	02VD 02VO 02VC 09MD 02MO 02MC 02RD 02RO	1	0	1.32942891121	497.0	-193.0	506	-197	1
2.7	2015_May_05_1457	s	s	6	2	SIC	81	RC	2	0	02VD 02VO 09VC 02MD 02MO 02MC 02RD 02RO	1	0	0.805948972702	21.0	140.0	13	145	1
2.7	2015_May_05_1457	s	s	6	2	SIC	82	RC	1	0	02VD 02VO 02VC 02MD 02MO 09MC 02RD 02RO	1	0	2.08636903763	-250.0	-25.0	-253	-25	1
2.7	2015_May_05_1457	s	s	6	2	SIC	83	RC	2	2	09VD 02VO 02VC 02MD 02MO 02MC 02RD 02RO	1	0	1.11760115623	-410.0	-63.0	-413	-61	1
2.7	2015_May_05_1457	s	s	6	2	SIC	84	RC	1	2	02VD 02VO 02VC 09MD 02MO 02MC 02RD 02RO	1	0	0.994055986404	254.0	-123.0	246	-120	1
2.7	2015_May_05_1457	s	s	6	2	SIC	85	RC	1	1	02VD 02VO 02VC 02MD 09MO 02MC 02RD 02RO	1	0	1.07729887962	-182.0	-3.0	-176	-7	1
2.7	2015_May_05_1457	s	s	6	2	SIC	86	ABS	2	1	02VD 10VO 02VC 02MD 02MO 02MC 02RD 02RO	0	1	1.60676503181	None	None	None	None	1
2.7	2015_May_05_1457	s	s	6	2	SIC	87	ABS	0	2	02VD 02VO 02VC 02MD 02MO 02MC 10RD 02RO	0	1	2.41235613823	None	None	None	None	1
2.7	2015_May_05_1457	s	s	6	2	SIC	88	ABS	2	2	10VD 02VO 02VC 02MD 02MO 02MC 02RD 02RO	0	1	1.90621805191	None	None	None	None	1
2.7	2015_May_05_1457	s	s	6	2	SIC	89	RC	0	2	02VD 02VO 02VC 02MD 02MO 02MC 09RD 02RO	1	0	1.83565688133	-527.0	-231.0	-533	-240	1
2.7	2015_May_05_1457	s	s	6	2	SIC	90	RC	2	1	02VD 09VO 02VC 02MD 02MO 02MC 02RD 02RO	1	0	2.2895989418	164.0	-282.0	161	-288	1
2.7	2015_May_05_1457	s	s	6	2	SIC	91	RC	0	1	02VD 02VO 02VC 02MD 02MO 02MC 02RD 09RO	1	0	2.06604194641	-402.0	362.0	-400	365	1
2.7	2015_May_05_1457	s	s	6	2	SIC	92	ABS	1	1	02VD 02VO 02VC 02MD 10MO 02MC 02RD 02RO	0	1	3.19593906403	None	None	None	None	1
2.7	2015_May_05_1457	s	s	6	2	SIC	93	ABS	0	1	02VD 02VO 02VC 02MD 02MO 02MC 02RD 10RO	0	1	3.67851996422	None	None	None	None	1
2.7	2015_May_05_1457	s	s	6	2	SIC	94	ABS	1	0	02VD 02VO 02VC 02MD 02MO 10MC 02RD 02RO	0	1	3.1072101593	None	None	None	None	1
2.7	2015_May_05_1457	s	s	6	2	SIC	95	ABS	2	0	02VD 02VO 10VC 02MD 02MO 02MC 02RD 02RO	0	1	2.12988591194	None	None	None	None	1
2.7	2015_May_05_1457	s	s	6	2	SIC	96	ABS	1	2	02VD 02VO 02VC 10MD 02MO 02MC 02RD 02RO	0	1	1.9734480381	None	None	None	None	1
2.7	2015_May_05_1457	s	s	6	2	SIC	97	RC	2	1	02VD 09VO 02VC 02MD 02MO 02MC 02RD 02RO	1	0	0.971452951431	-74.0	-95.0	-73	-100	1
2.7	2015_May_05_1457	s	s	6	2	SIC	98	ABS	0	1	02VD 02VO 02VC 02MD 02MO 02MC 02RD 10RO	0	1	3.10177183151	None	None	None	None	1
2.7	2015_May_05_1457	s	s	6	2	SIC	99	ABS	2	2	10VD 02VO 02VC 02MD 02MO 02MC 02RD 02RO	0	1	1.68933200836	None	None	None	None	1
2.7	2015_May_05_1457	s	s	6	2	SIC	100	RC	2	2	09VD 02VO 02VC 02MD 02MO 02MC 02RD 02RO	1	0	1.48244905472	416.0	-314.0	422	-309	1
2.7	2015_May_05_1457	s	s	6	2	SIC	101	RC	0	1	02VD 02VO 02VC 02MD 02MO 02MC 02RD 09RO	1	0	0.806694984436	-92.0	31.0	-93	32	1
2.7	2015_May_05_1457	s	s	6	2	SIC	102	ABS	1	0	02VD 02VO 02VC 02MD 02MO 10MC 02RD 02RO	0	1	2.11810207367	None	None	None	None	1
2.7	2015_May_05_1457	s	s	6	2	SIC	103	RC	2	0	02VD 02VO 09VC 02MD 02MO 02MC 02RD 02RO	1	0	1.35980892181	-250.0	-111.0	-252	-120	1
2.7	2015_May_05_1457	s	s	6	2	SIC	104	RC	0	2	02VD 02VO 02VC 02MD 02MO 02MC 09RD 02RO	1	0	2.06397509575	509.0	107.0	514	103	1
2.7	2015_May_05_1457	s	s	6	2	SIC	105	RC	1	1	02VD 02VO 02VC 02MD 09MO 02MC 02RD 02RO	1	0	1.60824108124	-235.0	-238.0	-238	-243	1
2.7	2015_May_05_1457	s	s	6	2	SIC	106	ABS	0	2	02VD 02VO 02VC 02MD 02MO 02MC 10RD 02RO	0	1	2.59580802917	None	None	None	None	1
2.7	2015_May_05_1457	s	s	6	2	SIC	107	ABS	1	1	02VD 02VO 02VC 02MD 10MO 02MC 02RD 02RO	0	1	1.68249797821	None	None	None	None	1
2.7	2015_May_05_1457	s	s	6	2	SIC	108	ABS	1	2	02VD 02VO 02VC 10MD 02MO 02MC 02RD 02RO	0	1	2.18872690201	None	None	None	None	1
2.7	2015_May_05_1457	s	s	6	2	SIC	109	ABS	2	1	02VD 10VO 02VC 02MD 02MO 02MC 02RD 02RO	0	1	1.60688114166	None	None	None	None	1
2.7	2015_May_05_1457	s	s	6	2	SIC	110	RC	1	2	02VD 02VO 02VC 09MD 02MO 02MC 02RD 02RO	1	0	1.28923010826	450.0	-107.0	456	-104	1
2.7	2015_May_05_1457	s	s	6	2	SIC	111	ABS	2	0	02VD 02VO 10VC 02MD 02MO 02MC 02RD 02RO	0	1	1.69433116913	None	None	None	None	1
2.7	2015_May_05_1457	s	s	6	2	SIC	112	RC	1	0	02VD 02VO 02VC 02MD 02MO 09MC 02RD 02RO	1	0	0.994827032089	-155.0	-286.0	-165	-288	1
2.7	2015_May_05_1457	s	s	6	2	SIC	113	RC	0	1	02VD 02VO 02VC 02MD 02MO 02MC 02RD 09RO	1	0	2.2946138382	-435.0	47.0	-447	51	1
2.7	2015_May_05_1457	s	s	6	2	SIC	114	RC	2	1	02VD 09VO 02VC 02MD 02MO 02MC 02RD 02RO	1	0	0.971132040024	247.0	338.0	256	337	1
2.7	2015_May_05_1457	s	s	6	2	SIC	115	ABS	0	2	02VD 02VO 02VC 02MD 02MO 02MC 10RD 02RO	0	1	1.90108799934	None	None	None	None	1
2.7	2015_May_05_1457	s	s	6	2	SIC	116	RC	1	1	02VD 02VO 02VC 02MD 09MO 02MC 02RD 02RO	1	0	1.90125203133	-493.0	-97.0	-507	-92	1
2.7	2015_May_05_1457	s	s	6	2	SIC	117	RC	2	2	09VD 02VO 02VC 02MD 02MO 02MC 02RD 02RO	0	1	1.42364096642	433.0	-321.0	None	None	0
2.7	2015_May_05_1457	s	s	6	2	SIC	118	RC	1	0	02VD 02VO 02VC 02MD 02MO 09MC 02RD 02RO	1	0	2.57733106613	438.0	342.0	444	350	1
2.7	2015_May_05_1457	s	s	6	2	SIC	119	ABS	2	0	02VD 02VO 10VC 02MD 02MO 02MC 02RD 02RO	0	1	2.32484197617	None	None	None	None	1
2.7	2015_May_05_1457	s	s	6	2	SIC	120	ABS	0	1	02VD 02VO 02VC 02MD 02MO 02MC 02RD 10RO	0	1	3.31865906715	None	None	None	None	1
2.7	2015_May_05_1457	s	s	6	2	SIC	121	ABS	1	1	02VD 02VO 02VC 02MD 10MO 02MC 02RD 02RO	0	1	2.71820187569	None	None	None	None	1
2.7	2015_May_05_1457	s	s	6	2	SIC	122	RC	0	2	02VD 02VO 02VC 02MD 02MO 02MC 09RD 02RO	1	0	1.75326704979	416.0	216.0	418	213	1
2.7	2015_May_05_1457	s	s	6	2	SIC	123	ABS	1	2	02VD 02VO 02VC 10MD 02MO 02MC 02RD 02RO	0	1	1.55301904678	None	None	None	None	1
2.7	2015_May_05_1457	s	s	6	2	SIC	124	ABS	2	2	10VD 02VO 02VC 02MD 02MO 02MC 02RD 02RO	0	1	3.79583287239	None	None	None	None	1
2.7	2015_May_05_1457	s	s	6	2	SIC	125	ABS	2	1	02VD 10VO 02VC 02MD 02MO 02MC 02RD 02RO	0	1	2.61252403259	None	None	None	None	1
2.7	2015_May_05_1457	s	s	6	2	SIC	126	RC	1	2	02VD 02VO 02VC 09MD 02MO 02MC 02RD 02RO	1	0	0.807080030441	-416.0	-59.0	-406	-59	1
2.7	2015_May_05_1457	s	s	6	2	SIC	127	ABS	1	0	02VD 02VO 02VC 02MD 02MO 10MC 02RD 02RO	0	1	4.13767504692	None	None	None	None	1
2.7	2015_May_05_1457	s	s	6	2	SIC	128	RC	2	0	02VD 02VO 09VC 02MD 02MO 02MC 02RD 02RO	1	0	0.700479984283	144.0	145.0	144	140	1
2.7	2015_May_05_1457	s	s	6	2	SIC	129	RC	0	2	02VD 02VO 02VC 02MD 02MO 02MC 09RD 02RO	1	0	0.606915950775	7.0	-120.0	-2	-112	1
2.7	2015_May_05_1457	s	s	6	2	SIC	130	RC	1	2	02VD 02VO 02VC 09MD 02MO 02MC 02RD 02RO	1	0	0.540913105011	16.0	-103.0	24	-104	1
2.7	2015_May_05_1457	s	s	6	2	SIC	131	ABS	0	1	02VD 02VO 02VC 02MD 02MO 02MC 02RD 10RO	0	1	3.4198141098	None	None	None	None	1
2.7	2015_May_05_1457	s	s	6	2	SIC	132	ABS	2	0	02VD 02VO 10VC 02MD 02MO 02MC 02RD 02RO	0	1	1.9859650135	None	None	None	None	1
2.7	2015_May_05_1457	s	s	6	2	SIC	133	RC	1	0	02VD 02VO 02VC 02MD 02MO 09MC 02RD 02RO	1	0	0.829388141632	396.0	-149.0	391	-146	1
2.7	2015_May_05_1457	s	s	6	2	SIC	134	ABS	1	0	02VD 02VO 02VC 02MD 02MO 10MC 02RD 02RO	0	1	3.0303208828	None	None	None	None	1
2.7	2015_May_05_1457	s	s	6	2	SIC	135	ABS	1	2	02VD 02VO 02VC 10MD 02MO 02MC 02RD 02RO	0	1	2.35351896286	None	None	None	None	1
2.7	2015_May_05_1457	s	s	6	2	SIC	136	ABS	0	2	02VD 02VO 02VC 02MD 02MO 02MC 10RD 02RO	0	1	2.31299495697	None	None	None	None	1
2.7	2015_May_05_1457	s	s	6	2	SIC	137	RC	2	1	02VD 09VO 02VC 02MD 02MO 02MC 02RD 02RO	1	0	2.11849594116	500.0	232.0	512	234	1
2.7	2015_May_05_1457	s	s	6	2	SIC	138	ABS	1	1	02VD 02VO 02VC 02MD 10MO 02MC 02RD 02RO	0	1	2.45945000648	None	None	None	None	1
2.7	2015_May_05_1457	s	s	6	2	SIC	139	RC	0	1	02VD 02VO 02VC 02MD 02MO 02MC 02RD 09RO	1	0	0.858675956726	369.0	164.0	362	158	1
2.7	2015_May_05_1457	s	s	6	2	SIC	140	ABS	2	2	10VD 02VO 02VC 02MD 02MO 02MC 02RD 02RO	0	1	1.96550488472	None	None	None	None	1
2.7	2015_May_05_1457	s	s	6	2	SIC	141	ABS	2	1	02VD 10VO 02VC 02MD 02MO 02MC 02RD 02RO	0	1	2.14173102379	None	None	None	None	1
2.7	2015_May_05_1457	s	s	6	2	SIC	142	RC	2	2	09VD 02VO 02VC 02MD 02MO 02MC 02RD 02RO	1	0	0.835068941116	-77.0	295.0	-76	288	1
2.7	2015_May_05_1457	s	s	6	2	SIC	143	RC	1	1	02VD 02VO 02VC 02MD 09MO 02MC 02RD 02RO	1	0	0.846765995026	-301.0	176.0	-306	180	1
2.7	2015_May_05_1457	s	s	6	2	SIC	144	RC	2	0	02VD 02VO 09VC 02MD 02MO 02MC 02RD 02RO	1	0	2.44238495827	-208.0	255.0	-206	261	1
2.7	2015_May_05_1457	s	s	6	2	SIC	145	ABS	2	2	10VD 02VO 02VC 02MD 02MO 02MC 02RD 02RO	0	1	1.57188296318	None	None	None	None	1
2.7	2015_May_05_1457	s	s	6	2	SIC	146	RC	2	0	02VD 02VO 09VC 02MD 02MO 02MC 02RD 02RO	1	0	2.21222281456	-96.0	-186.0	-85	-185	1
2.7	2015_May_05_1457	s	s	6	2	SIC	147	ABS	2	0	02VD 02VO 10VC 02MD 02MO 02MC 02RD 02RO	0	1	1.86757612228	None	None	None	None	1
2.7	2015_May_05_1457	s	s	6	2	SIC	148	ABS	0	1	02VD 02VO 02VC 02MD 02MO 02MC 02RD 10RO	0	1	3.14209604263	None	None	None	None	1
2.7	2015_May_05_1457	s	s	6	2	SIC	149	ABS	2	1	02VD 10VO 02VC 02MD 02MO 02MC 02RD 02RO	0	1	1.89157319069	None	None	None	None	1
2.7	2015_May_05_1457	s	s	6	2	SIC	150	ABS	1	0	02VD 02VO 02VC 02MD 02MO 10MC 02RD 02RO	0	1	2.35107398033	None	None	None	None	1
2.7	2015_May_05_1457	s	s	6	2	SIC	151	RC	1	1	02VD 02VO 02VC 02MD 09MO 02MC 02RD 02RO	1	0	1.19290399551	122.0	-276.0	132	-277	1
2.7	2015_May_05_1457	s	s	6	2	SIC	152	RC	1	2	02VD 02VO 02VC 09MD 02MO 02MC 02RD 02RO	1	0	1.29455399513	-462.0	227.0	-467	230	1
2.7	2015_May_05_1457	s	s	6	2	SIC	153	RC	0	1	02VD 02VO 02VC 02MD 02MO 02MC 02RD 09RO	1	0	1.01750707626	-236.0	393.0	-224	397	1
2.7	2015_May_05_1457	s	s	6	2	SIC	154	ABS	1	1	02VD 02VO 02VC 02MD 10MO 02MC 02RD 02RO	0	1	3.0126478672	None	None	None	None	1
2.7	2015_May_05_1457	s	s	6	2	SIC	155	ABS	1	2	02VD 02VO 02VC 10MD 02MO 02MC 02RD 02RO	0	1	1.90268111229	None	None	None	None	1
2.7	2015_May_05_1457	s	s	6	2	SIC	156	ABS	0	2	02VD 02VO 02VC 02MD 02MO 02MC 10RD 02RO	0	1	2.13656878471	None	None	None	None	1
2.7	2015_May_05_1457	s	s	6	2	SIC	157	RC	1	0	02VD 02VO 02VC 02MD 02MO 09MC 02RD 02RO	1	0	2.20720505714	458.0	-357.0	467	-353	1
2.7	2015_May_05_1457	s	s	6	2	SIC	158	RC	2	2	09VD 02VO 02VC 02MD 02MO 02MC 02RD 02RO	1	0	2.12429690361	419.0	-265.0	423	-270	1
2.7	2015_May_05_1457	s	s	6	2	SIC	159	RC	2	1	02VD 09VO 02VC 02MD 02MO 02MC 02RD 02RO	1	0	2.36173915863	-128.0	-392.0	-117	-390	1
2.7	2015_May_05_1457	s	s	6	2	SIC	160	RC	0	2	02VD 02VO 02VC 02MD 02MO 02MC 09RD 02RO	1	0	1.18821501732	-14.0	-275.0	-19	-276	1
2.7	2015_May_05_1457	s	s	6	2	SIC	161	ABS	1	2	02VD 02VO 02VC 10MD 02MO 02MC 02RD 02RO	0	1	2.81257200241	None	None	None	None	1
2.7	2015_May_05_1457	s	s	6	2	SIC	162	ABS	0	2	02VD 02VO 02VC 02MD 02MO 02MC 10RD 02RO	0	1	2.18869614601	None	None	None	None	1
2.7	2015_May_05_1457	s	s	6	2	SIC	163	ABS	1	0	02VD 02VO 02VC 02MD 02MO 10MC 02RD 02RO	0	1	3.42090010643	None	None	None	None	1
2.7	2015_May_05_1457	s	s	6	2	SIC	164	ABS	2	0	02VD 02VO 10VC 02MD 02MO 02MC 02RD 02RO	0	1	2.44420194626	None	None	None	None	1
2.7	2015_May_05_1457	s	s	6	2	SIC	165	RC	0	2	02VD 02VO 02VC 02MD 02MO 02MC 09RD 02RO	1	0	1.27047491074	246.0	178.0	239	184	1
2.7	2015_May_05_1457	s	s	6	2	SIC	166	RC	2	2	09VD 02VO 02VC 02MD 02MO 02MC 02RD 02RO	1	0	0.959533929825	28.0	-122.0	17	-116	1
2.7	2015_May_05_1457	s	s	6	2	SIC	167	RC	2	0	02VD 02VO 09VC 02MD 02MO 02MC 02RD 02RO	1	0	1.78872013092	-159.0	-340.0	-148	-333	1
2.7	2015_May_05_1457	s	s	6	2	SIC	168	ABS	1	1	02VD 02VO 02VC 02MD 10MO 02MC 02RD 02RO	0	1	2.50153803825	None	None	None	None	1
2.7	2015_May_05_1457	s	s	6	2	SIC	169	ABS	2	1	02VD 10VO 02VC 02MD 02MO 02MC 02RD 02RO	0	1	2.14851403236	None	None	None	None	1
2.7	2015_May_05_1457	s	s	6	2	SIC	170	ABS	2	2	10VD 02VO 02VC 02MD 02MO 02MC 02RD 02RO	0	1	1.62995100021	None	None	None	None	1
2.7	2015_May_05_1457	s	s	6	2	SIC	171	RC	0	1	02VD 02VO 02VC 02MD 02MO 02MC 02RD 09RO	1	0	2.98099923134	384.0	-248.0	380	-244	1
2.7	2015_May_05_1457	s	s	6	2	SIC	172	RC	1	2	02VD 02VO 02VC 09MD 02MO 02MC 02RD 02RO	1	0	0.929280996323	273.0	206.0	284	208	1
2.7	2015_May_05_1457	s	s	6	2	SIC	173	RC	2	1	02VD 09VO 02VC 02MD 02MO 02MC 02RD 02RO	1	0	0.882193088531	-261.0	-92.0	-274	-89	1
2.7	2015_May_05_1457	s	s	6	2	SIC	174	RC	1	1	02VD 02VO 02VC 02MD 09MO 02MC 02RD 02RO	0	1	3.2126019001	-81.0	383.0	None	None	0
2.7	2015_May_05_1457	s	s	6	2	SIC	175	ABS	0	1	02VD 02VO 02VC 02MD 02MO 02MC 02RD 10RO	0	1	3.59611797333	None	None	None	None	1
2.7	2015_May_05_1457	s	s	6	2	SIC	176	RC	1	0	02VD 02VO 02VC 02MD 02MO 09MC 02RD 02RO	1	0	0.776121139526	200.0	172.0	191	176	1
2.7	2015_May_05_1457	s	s	6	2	SIC	177	ABS	2	1	02VD 10VO 02VC 02MD 02MO 02MC 02RD 02RO	0	1	2.54182600975	None	None	None	None	1
2.7	2015_May_05_1457	s	s	6	2	SIC	178	RC	1	1	02VD 02VO 02VC 02MD 09MO 02MC 02RD 02RO	1	0	2.091121912	264.0	18.0	268	18	1
2.7	2015_May_05_1457	s	s	6	2	SIC	179	RC	0	1	02VD 02VO 02VC 02MD 02MO 02MC 02RD 09RO	1	0	2.45433306694	443.0	207.0	440	207	1
2.7	2015_May_05_1457	s	s	6	2	SIC	180	ABS	1	0	02VD 02VO 02VC 02MD 02MO 10MC 02RD 02RO	0	1	4.21332192421	None	None	None	None	1
2.7	2015_May_05_1457	s	s	6	2	SIC	181	RC	2	1	02VD 09VO 02VC 02MD 02MO 02MC 02RD 02RO	1	0	0.976322889328	-11.0	-123.0	-9	-122	1
2.7	2015_May_05_1457	s	s	6	2	SIC	182	RC	2	0	02VD 02VO 09VC 02MD 02MO 02MC 02RD 02RO	1	0	1.60669517517	503.0	-387.0	498	-388	1
2.7	2015_May_05_1457	s	s	6	2	SIC	183	RC	0	2	02VD 02VO 02VC 02MD 02MO 02MC 09RD 02RO	1	0	1.24713802338	-304.0	96.0	-299	97	1
2.7	2015_May_05_1457	s	s	6	2	SIC	184	RC	1	2	02VD 02VO 02VC 09MD 02MO 02MC 02RD 02RO	1	0	0.705694198608	251.0	137.0	249	140	1
2.7	2015_May_05_1457	s	s	6	2	SIC	185	RC	2	2	09VD 02VO 02VC 02MD 02MO 02MC 02RD 02RO	1	0	0.91174697876	-169.0	273.0	-159	275	1
2.7	2015_May_05_1457	s	s	6	2	SIC	186	ABS	2	0	02VD 02VO 10VC 02MD 02MO 02MC 02RD 02RO	0	1	2.60738897324	None	None	None	None	1
2.7	2015_May_05_1457	s	s	6	2	SIC	187	ABS	0	2	02VD 02VO 02VC 02MD 02MO 02MC 10RD 02RO	0	1	2.27110719681	None	None	None	None	1
2.7	2015_May_05_1457	s	s	6	2	SIC	188	ABS	1	1	02VD 02VO 02VC 02MD 10MO 02MC 02RD 02RO	0	1	2.51828098297	None	None	None	None	1
2.7	2015_May_05_1457	s	s	6	2	SIC	189	ABS	2	2	10VD 02VO 02VC 02MD 02MO 02MC 02RD 02RO	0	1	2.09448599815	None	None	None	None	1
2.7	2015_May_05_1457	s	s	6	2	SIC	190	ABS	0	1	02VD 02VO 02VC 02MD 02MO 02MC 02RD 10RO	0	1	2.86001110077	None	None	None	None	1
2.7	2015_May_05_1457	s	s	6	2	SIC	191	ABS	1	2	02VD 02VO 02VC 10MD 02MO 02MC 02RD 02RO	0	1	1.91797709465	None	None	None	None	1
2.7	2015_May_05_1457	s	s	6	2	SIC	192	RC	1	0	02VD 02VO 02VC 02MD 02MO 09MC 02RD 02RO	1	0	1.9767870903	-279.0	-161.0	-271	-160	1
2.7	2015_May_05_1457	s	s	6	2	SIC	193	ABS	0	1	02VD 02VO 02VC 02MD 02MO 02MC 02RD 10RO	0	1	2.91275596619	None	None	None	None	1
2.7	2015_May_05_1457	s	s	6	2	SIC	194	RC	1	1	02VD 02VO 02VC 02MD 09MO 02MC 02RD 02RO	1	0	2.17319583893	216.0	-346.0	202	-341	1
2.7	2015_May_05_1457	s	s	6	2	SIC	195	ABS	1	1	02VD 02VO 02VC 02MD 10MO 02MC 02RD 02RO	0	1	2.74878001213	None	None	None	None	1
2.7	2015_May_05_1457	s	s	6	2	SIC	196	RC	1	0	02VD 02VO 02VC 02MD 02MO 09MC 02RD 02RO	1	0	1.71789479256	-350.0	-381.0	-360	-379	1
2.7	2015_May_05_1457	s	s	6	2	SIC	197	ABS	2	0	02VD 02VO 10VC 02MD 02MO 02MC 02RD 02RO	0	1	2.41234397888	None	None	None	None	1
2.7	2015_May_05_1457	s	s	6	2	SIC	198	RC	2	1	02VD 09VO 02VC 02MD 02MO 02MC 02RD 02RO	1	0	1.00832486153	-222.0	-285.0	-221	-281	1
2.7	2015_May_05_1457	s	s	6	2	SIC	199	ABS	2	2	10VD 02VO 02VC 02MD 02MO 02MC 02RD 02RO	0	1	1.79492807388	None	None	None	None	1
2.7	2015_May_05_1457	s	s	6	2	SIC	200	ABS	1	2	02VD 02VO 02VC 10MD 02MO 02MC 02RD 02RO	0	1	2.07759404182	None	None	None	None	1
2.7	2015_May_05_1457	s	s	6	2	SIC	201	RC	0	1	02VD 02VO 02VC 02MD 02MO 02MC 02RD 09RO	1	0	1.66719889641	-198.0	-271.0	-206	-275	1
2.7	2015_May_05_1457	s	s	6	2	SIC	202	RC	2	2	09VD 02VO 02VC 02MD 02MO 02MC 02RD 02RO	1	0	1.34784317017	-211.0	-402.0	-208	-412	1
2.7	2015_May_05_1457	s	s	6	2	SIC	203	RC	0	2	02VD 02VO 02VC 02MD 02MO 02MC 09RD 02RO	1	0	0.658591985703	31.0	5.0	30	2	1
2.7	2015_May_05_1457	s	s	6	2	SIC	204	RC	2	0	02VD 02VO 09VC 02MD 02MO 02MC 02RD 02RO	1	0	0.608289957047	0.0	-62.0	-12	-60	1
2.7	2015_May_05_1457	s	s	6	2	SIC	205	RC	1	2	02VD 02VO 02VC 09MD 02MO 02MC 02RD 02RO	1	0	0.606374025345	-24.0	-81.0	-33	-74	1
2.7	2015_May_05_1457	s	s	6	2	SIC	206	ABS	0	2	02VD 02VO 02VC 02MD 02MO 02MC 10RD 02RO	0	1	2.12481784821	None	None	None	None	1
2.7	2015_May_05_1457	s	s	6	2	SIC	207	ABS	1	0	02VD 02VO 02VC 02MD 02MO 10MC 02RD 02RO	0	1	3.16250801086	None	None	None	None	1
2.7	2015_May_05_1457	s	s	6	2	SIC	208	ABS	2	1	02VD 10VO 02VC 02MD 02MO 02MC 02RD 02RO	0	1	1.9012670517	None	None	None	None	1
2.7	2015_May_05_1457	s	s	6	2	SIC	209	RC	1	1	02VD 02VO 02VC 02MD 09MO 02MC 02RD 02RO	1	0	0.865298986435	-206.0	-11.0	-221	-4	1
2.7	2015_May_05_1457	s	s	6	2	SIC	210	ABS	1	2	02VD 02VO 02VC 10MD 02MO 02MC 02RD 02RO	0	1	1.81197214127	None	None	None	None	1
2.7	2015_May_05_1457	s	s	6	2	SIC	211	ABS	1	0	02VD 02VO 02VC 02MD 02MO 10MC 02RD 02RO	0	1	2.00615596771	None	None	None	None	1
2.7	2015_May_05_1457	s	s	6	2	SIC	212	ABS	2	1	02VD 10VO 02VC 02MD 02MO 02MC 02RD 02RO	0	1	1.7885119915	None	None	None	None	1
2.7	2015_May_05_1457	s	s	6	2	SIC	213	RC	2	2	09VD 02VO 02VC 02MD 02MO 02MC 02RD 02RO	1	0	1.23526382446	-364.0	-196.0	-360	-203	1
2.7	2015_May_05_1457	s	s	6	2	SIC	214	RC	2	1	02VD 09VO 02VC 02MD 02MO 02MC 02RD 02RO	1	0	0.877033948898	383.0	264.0	377	258	1
2.7	2015_May_05_1457	s	s	6	2	SIC	215	RC	1	0	02VD 02VO 02VC 02MD 02MO 09MC 02RD 02RO	1	0	2.18358492851	-190.0	-261.0	-196	-269	1
2.7	2015_May_05_1457	s	s	6	2	SIC	216	RC	0	2	02VD 02VO 02VC 02MD 02MO 02MC 09RD 02RO	1	0	1.4946269989	-31.0	303.0	-26	301	1
2.7	2015_May_05_1457	s	s	6	2	SIC	217	ABS	2	0	02VD 02VO 10VC 02MD 02MO 02MC 02RD 02RO	0	1	1.86595082283	None	None	None	None	1
2.7	2015_May_05_1457	s	s	6	2	SIC	218	ABS	0	2	02VD 02VO 02VC 02MD 02MO 02MC 10RD 02RO	0	1	2.02391314507	None	None	None	None	1
2.7	2015_May_05_1457	s	s	6	2	SIC	219	ABS	2	2	10VD 02VO 02VC 02MD 02MO 02MC 02RD 02RO	0	1	2.0945019722	None	None	None	None	1
2.7	2015_May_05_1457	s	s	6	2	SIC	220	RC	1	2	02VD 02VO 02VC 09MD 02MO 02MC 02RD 02RO	1	0	1.02341103554	498.0	148.0	497	155	1
2.7	2015_May_05_1457	s	s	6	2	SIC	221	ABS	0	1	02VD 02VO 02VC 02MD 02MO 02MC 02RD 10RO	0	1	2.6477329731	None	None	None	None	1
2.7	2015_May_05_1457	s	s	6	2	SIC	222	RC	0	1	02VD 02VO 02VC 02MD 02MO 02MC 02RD 09RO	1	0	0.941035985947	-60.0	343.0	-65	342	1
2.7	2015_May_05_1457	s	s	6	2	SIC	223	RC	2	0	02VD 02VO 09VC 02MD 02MO 02MC 02RD 02RO	1	0	0.737353086472	137.0	292.0	128	301	1
2.7	2015_May_05_1457	s	s	6	2	SIC	224	ABS	1	1	02VD 02VO 02VC 02MD 10MO 02MC 02RD 02RO	0	1	2.67767095566	None	None	None	None	1
2.7	2015_May_05_1457	s	s	6	2	SIC	225	ABS	0	1	02VD 02VO 02VC 02MD 02MO 02MC 02RD 10RO	0	1	2.53684401512	None	None	None	None	1
2.7	2015_May_05_1457	s	s	6	2	SIC	226	RC	2	0	02VD 02VO 09VC 02MD 02MO 02MC 02RD 02RO	1	0	0.729020833969	-134.0	382.0	-149	391	1
2.7	2015_May_05_1457	s	s	6	2	SIC	227	ABS	1	2	02VD 02VO 02VC 10MD 02MO 02MC 02RD 02RO	0	1	1.76493501663	None	None	None	None	1
2.7	2015_May_05_1457	s	s	6	2	SIC	228	RC	0	1	02VD 02VO 02VC 02MD 02MO 02MC 02RD 09RO	1	0	1.34796404839	454.0	159.0	456	158	1
2.7	2015_May_05_1457	s	s	6	2	SIC	229	ABS	2	2	10VD 02VO 02VC 02MD 02MO 02MC 02RD 02RO	0	1	2.0357260704	None	None	None	None	1
2.7	2015_May_05_1457	s	s	6	2	SIC	230	RC	2	2	09VD 02VO 02VC 02MD 02MO 02MC 02RD 02RO	1	0	0.552567958832	31.0	51.0	26	58	1
2.7	2015_May_05_1457	s	s	6	2	SIC	231	RC	2	1	02VD 09VO 02VC 02MD 02MO 02MC 02RD 02RO	1	0	1.28250002861	488.0	395.0	492	395	1
2.7	2015_May_05_1457	s	s	6	2	SIC	232	RC	0	2	02VD 02VO 02VC 02MD 02MO 02MC 09RD 02RO	1	0	0.55947303772	211.0	291.0	213	290	1
2.7	2015_May_05_1457	s	s	6	2	SIC	233	ABS	2	1	02VD 10VO 02VC 02MD 02MO 02MC 02RD 02RO	0	1	1.51138496399	None	None	None	None	1
2.7	2015_May_05_1457	s	s	6	2	SIC	234	ABS	0	2	02VD 02VO 02VC 02MD 02MO 02MC 10RD 02RO	0	1	2.17192792892	None	None	None	None	1
2.7	2015_May_05_1457	s	s	6	2	SIC	235	RC	1	2	02VD 02VO 02VC 09MD 02MO 02MC 02RD 02RO	1	0	0.623244047165	191.0	142.0	194	151	1
2.7	2015_May_05_1457	s	s	6	2	SIC	236	RC	1	1	02VD 02VO 02VC 02MD 09MO 02MC 02RD 02RO	1	0	1.72956490517	-493.0	252.0	-487	247	1
2.7	2015_May_05_1457	s	s	6	2	SIC	237	ABS	1	1	02VD 02VO 02VC 02MD 10MO 02MC 02RD 02RO	0	1	3.01264691353	None	None	None	None	1
2.7	2015_May_05_1457	s	s	6	2	SIC	238	ABS	1	0	02VD 02VO 02VC 02MD 02MO 10MC 02RD 02RO	0	1	2.26563310623	None	None	None	None	1
2.7	2015_May_05_1457	s	s	6	2	SIC	239	ABS	2	0	02VD 02VO 10VC 02MD 02MO 02MC 02RD 02RO	0	1	2.25944709778	None	None	None	None	1
2.7	2015_May_05_1457	s	s	6	2	SIC	240	RC	1	0	02VD 02VO 02VC 02MD 02MO 09MC 02RD 02RO	1	0	1.44718003273	399.0	187.0	402	185	1
2.7	2015_May_05_1457	s	s	6	2	SIC	241	ABS	0	1	02VD 02VO 02VC 02MD 02MO 02MC 02RD 10RO	0	1	3.25466108322	None	None	None	None	1
2.7	2015_May_05_1457	s	s	6	2	SIC	242	ABS	1	2	02VD 02VO 02VC 10MD 02MO 02MC 02RD 02RO	0	1	2.3497159481	None	None	None	None	1
2.7	2015_May_05_1457	s	s	6	2	SIC	243	ABS	2	2	10VD 02VO 02VC 02MD 02MO 02MC 02RD 02RO	0	1	2.18912982941	None	None	None	None	1
2.7	2015_May_05_1457	s	s	6	2	SIC	244	RC	0	1	02VD 02VO 02VC 02MD 02MO 02MC 02RD 09RO	1	0	2.43584704399	-503.0	47.0	-513	45	1
2.7	2015_May_05_1457	s	s	6	2	SIC	245	ABS	2	0	02VD 02VO 10VC 02MD 02MO 02MC 02RD 02RO	0	1	2.89498496056	None	None	None	None	1
2.7	2015_May_05_1457	s	s	6	2	SIC	246	RC	1	0	02VD 02VO 02VC 02MD 02MO 09MC 02RD 02RO	1	0	1.95328307152	423.0	322.0	423	317	1
2.7	2015_May_05_1457	s	s	6	2	SIC	247	ABS	1	0	02VD 02VO 02VC 02MD 02MO 10MC 02RD 02RO	0	1	2.89007902145	None	None	None	None	1
2.7	2015_May_05_1457	s	s	6	2	SIC	248	RC	2	1	02VD 09VO 02VC 02MD 02MO 02MC 02RD 02RO	1	0	0.823348045349	293.0	349.0	290	345	1
2.7	2015_May_05_1457	s	s	6	2	SIC	249	RC	2	2	09VD 02VO 02VC 02MD 02MO 02MC 02RD 02RO	1	0	0.747770786285	246.0	188.0	244	183	1
2.7	2015_May_05_1457	s	s	6	2	SIC	250	ABS	0	2	02VD 02VO 02VC 02MD 02MO 02MC 10RD 02RO	0	1	2.51346898079	None	None	None	None	1
2.7	2015_May_05_1457	s	s	6	2	SIC	251	RC	1	2	02VD 02VO 02VC 09MD 02MO 02MC 02RD 02RO	1	0	1.21174693108	293.0	-383.0	296	-393	1
2.7	2015_May_05_1457	s	s	6	2	SIC	252	RC	1	1	02VD 02VO 02VC 02MD 09MO 02MC 02RD 02RO	1	0	1.9885840416	-511.0	-18.0	-525	-9	1
2.7	2015_May_05_1457	s	s	6	2	SIC	253	RC	0	2	02VD 02VO 02VC 02MD 02MO 02MC 09RD 02RO	1	0	0.6430311203	280.0	-6.0	278	-10	1
2.7	2015_May_05_1457	s	s	6	2	SIC	254	RC	2	0	02VD 02VO 09VC 02MD 02MO 02MC 02RD 02RO	1	0	1.66813611984	-524.0	388.0	-530	381	1
2.7	2015_May_05_1457	s	s	6	2	SIC	255	ABS	2	1	02VD 10VO 02VC 02MD 02MO 02MC 02RD 02RO	0	1	1.94143390656	None	None	None	None	1
2.7	2015_May_05_1457	s	s	6	2	SIC	256	ABS	1	1	02VD 02VO 02VC 02MD 10MO 02MC 02RD 02RO	0	1	3.5606880188	None	None	None	None	1
2.7	2015_May_05_1457	s	s	6	2	SIC	257	ABS	2	1	02VD 10VO 02VC 02MD 02MO 02MC 02RD 02RO	0	1	2.41238498688	None	None	None	None	1
2.7	2015_May_05_1457	s	s	6	2	SIC	258	RC	2	1	02VD 09VO 02VC 02MD 02MO 02MC 02RD 02RO	1	0	2.62430000305	-210.0	358.0	-201	354	1
2.7	2015_May_05_1457	s	s	6	2	SIC	259	RC	1	0	02VD 02VO 02VC 02MD 02MO 09MC 02RD 02RO	1	0	1.1832010746	-328.0	338.0	-333	338	1
2.7	2015_May_05_1457	s	s	6	2	SIC	260	ABS	2	0	02VD 02VO 10VC 02MD 02MO 02MC 02RD 02RO	0	1	2.67800498009	None	None	None	None	1
2.7	2015_May_05_1457	s	s	6	2	SIC	261	RC	2	0	02VD 02VO 09VC 02MD 02MO 02MC 02RD 02RO	1	0	0.682068109512	24.0	214.0	32	211	1
2.7	2015_May_05_1457	s	s	6	2	SIC	262	RC	0	2	02VD 02VO 02VC 02MD 02MO 02MC 09RD 02RO	1	0	0.764472961426	287.0	-197.0	272	-191	1
2.7	2015_May_05_1457	s	s	6	2	SIC	263	ABS	2	2	10VD 02VO 02VC 02MD 02MO 02MC 02RD 02RO	0	1	2.01223897934	None	None	None	None	1
2.7	2015_May_05_1457	s	s	6	2	SIC	264	ABS	1	1	02VD 02VO 02VC 02MD 10MO 02MC 02RD 02RO	0	1	3.28081893921	None	None	None	None	1
2.7	2015_May_05_1457	s	s	6	2	SIC	265	ABS	1	2	02VD 02VO 02VC 10MD 02MO 02MC 02RD 02RO	0	1	2.45945596695	None	None	None	None	1
2.7	2015_May_05_1457	s	s	6	2	SIC	266	RC	0	1	02VD 02VO 02VC 02MD 02MO 02MC 02RD 09RO	1	0	1.13623905182	294.0	36.0	287	41	1
2.7	2015_May_05_1457	s	s	6	2	SIC	267	ABS	0	2	02VD 02VO 02VC 02MD 02MO 02MC 10RD 02RO	0	1	2.26760601997	None	None	None	None	1
2.7	2015_May_05_1457	s	s	6	2	SIC	268	RC	1	1	02VD 02VO 02VC 02MD 09MO 02MC 02RD 02RO	1	0	0.665217161179	224.0	267.0	229	263	1
2.7	2015_May_05_1457	s	s	6	2	SIC	269	RC	2	2	09VD 02VO 02VC 02MD 02MO 02MC 02RD 02RO	1	0	1.53308987617	-252.0	220.0	-243	222	1
2.7	2015_May_05_1457	s	s	6	2	SIC	270	ABS	0	1	02VD 02VO 02VC 02MD 02MO 02MC 02RD 10RO	0	1	3.21975302696	None	None	None	None	1
2.7	2015_May_05_1457	s	s	6	2	SIC	271	RC	1	2	02VD 02VO 02VC 09MD 02MO 02MC 02RD 02RO	1	0	1.11787986755	-228.0	81.0	-239	81	1
2.7	2015_May_05_1457	s	s	6	2	SIC	272	ABS	1	0	02VD 02VO 02VC 02MD 02MO 10MC 02RD 02RO	0	1	1.72464203835	None	None	None	None	1
2.7	2015_May_05_1457	s	s	6	2	SIC	273	RC	2	1	02VD 09VO 02VC 02MD 02MO 02MC 02RD 02RO	1	0	1.55310487747	423.0	-133.0	422	-132	1
2.7	2015_May_05_1457	s	s	6	2	SIC	274	ABS	1	0	02VD 02VO 02VC 02MD 02MO 10MC 02RD 02RO	0	1	2.58406877518	None	None	None	None	1
2.7	2015_May_05_1457	s	s	6	2	SIC	275	ABS	2	0	02VD 02VO 10VC 02MD 02MO 02MC 02RD 02RO	0	1	2.28954100609	None	None	None	None	1
2.7	2015_May_05_1457	s	s	6	2	SIC	276	RC	1	2	02VD 02VO 02VC 09MD 02MO 02MC 02RD 02RO	1	0	0.900725126266	530.0	250.0	537	252	1
2.7	2015_May_05_1457	s	s	6	2	SIC	277	RC	0	1	02VD 02VO 02VC 02MD 02MO 02MC 02RD 09RO	1	0	2.40966391563	-493.0	71.0	-485	68	1
2.7	2015_May_05_1457	s	s	6	2	SIC	278	ABS	2	2	10VD 02VO 02VC 02MD 02MO 02MC 02RD 02RO	0	1	1.71301412582	None	None	None	None	1
2.7	2015_May_05_1457	s	s	6	2	SIC	279	RC	1	1	02VD 02VO 02VC 02MD 09MO 02MC 02RD 02RO	1	0	1.91549110413	436.0	-285.0	426	-287	1
2.7	2015_May_05_1457	s	s	6	2	SIC	280	RC	0	2	02VD 02VO 02VC 02MD 02MO 02MC 09RD 02RO	1	0	0.952798843384	440.0	-68.0	446	-69	1
2.7	2015_May_05_1457	s	s	6	2	SIC	281	ABS	0	1	02VD 02VO 02VC 02MD 02MO 02MC 02RD 10RO	0	1	3.71886301041	None	None	None	None	1
2.7	2015_May_05_1457	s	s	6	2	SIC	282	ABS	0	2	02VD 02VO 02VC 02MD 02MO 02MC 10RD 02RO	0	1	2.05419015884	None	None	None	None	1
2.7	2015_May_05_1457	s	s	6	2	SIC	283	RC	2	2	09VD 02VO 02VC 02MD 02MO 02MC 02RD 02RO	1	0	1.8776538372	407.0	411.0	401	411	1
2.7	2015_May_05_1457	s	s	6	2	SIC	284	ABS	2	1	02VD 10VO 02VC 02MD 02MO 02MC 02RD 02RO	0	1	2.41915416718	None	None	None	None	1
2.7	2015_May_05_1457	s	s	6	2	SIC	285	ABS	1	1	02VD 02VO 02VC 02MD 10MO 02MC 02RD 02RO	0	1	3.54844808578	None	None	None	None	1
2.7	2015_May_05_1457	s	s	6	2	SIC	286	ABS	1	2	02VD 02VO 02VC 10MD 02MO 02MC 02RD 02RO	0	1	1.61237311363	None	None	None	None	1
2.7	2015_May_05_1457	s	s	6	2	SIC	287	RC	1	0	02VD 02VO 02VC 02MD 02MO 09MC 02RD 02RO	1	0	2.01954984665	-124.0	-135.0	-116	-126	1
2.7	2015_May_05_1457	s	s	6	2	SIC	288	RC	2	0	02VD 02VO 09VC 02MD 02MO 02MC 02RD 02RO	1	0	1.47071790695	465.0	230.0	460	231	1
2.7	2015_May_05_1457	s	s	6	2	SIC	289	ABS	0	2	02VD 02VO 02VC 02MD 02MO 02MC 10RD 02RO	0	1	2.0307071209	None	None	None	None	1
2.7	2015_May_05_1457	s	s	6	2	SIC	290	ABS	1	0	02VD 02VO 02VC 02MD 02MO 10MC 02RD 02RO	0	1	2.00404405594	None	None	None	None	1
2.7	2015_May_05_1457	s	s	6	2	SIC	291	ABS	1	1	02VD 02VO 02VC 02MD 10MO 02MC 02RD 02RO	0	1	3.07852387428	None	None	None	None	1
2.7	2015_May_05_1457	s	s	6	2	SIC	292	ABS	1	2	02VD 02VO 02VC 10MD 02MO 02MC 02RD 02RO	0	1	1.96509122849	None	None	None	None	1
2.7	2015_May_05_1457	s	s	6	2	SIC	293	RC	2	0	02VD 02VO 09VC 02MD 02MO 02MC 02RD 02RO	0	1	2.20047497749	-50.0	198.0	None	None	0
2.7	2015_May_05_1457	s	s	6	2	SIC	294	RC	2	2	09VD 02VO 02VC 02MD 02MO 02MC 02RD 02RO	1	0	0.724150896072	-364.0	-105.0	-357	-103	1
2.7	2015_May_05_1457	s	s	6	2	SIC	295	ABS	2	1	02VD 10VO 02VC 02MD 02MO 02MC 02RD 02RO	0	1	2.96558094025	None	None	None	None	1
2.7	2015_May_05_1457	s	s	6	2	SIC	296	RC	0	1	02VD 02VO 02VC 02MD 02MO 02MC 02RD 09RO	1	0	3.84197282791	-167.0	228.0	-166	224	1
2.7	2015_May_05_1457	s	s	6	2	SIC	297	RC	1	1	02VD 02VO 02VC 02MD 09MO 02MC 02RD 02RO	1	0	0.841823101044	122.0	252.0	128	246	1
2.7	2015_May_05_1457	s	s	6	2	SIC	298	RC	2	1	02VD 09VO 02VC 02MD 02MO 02MC 02RD 02RO	1	0	1.12358498573	-312.0	-122.0	-313	-137	1
2.7	2015_May_05_1457	s	s	6	2	SIC	299	ABS	2	0	02VD 02VO 10VC 02MD 02MO 02MC 02RD 02RO	0	1	2.08273983002	None	None	None	None	1
2.7	2015_May_05_1457	s	s	6	2	SIC	300	ABS	2	2	10VD 02VO 02VC 02MD 02MO 02MC 02RD 02RO	0	1	2.53695893288	None	None	None	None	1
2.7	2015_May_05_1457	s	s	6	2	SIC	301	RC	1	0	02VD 02VO 02VC 02MD 02MO 09MC 02RD 02RO	1	0	1.34123015404	491.0	164.0	504	167	1
2.7	2015_May_05_1457	s	s	6	2	SIC	302	RC	0	2	02VD 02VO 02VC 02MD 02MO 02MC 09RD 02RO	1	0	1.18328905106	328.0	344.0	340	346	1
2.7	2015_May_05_1457	s	s	6	2	SIC	303	RC	1	2	02VD 02VO 02VC 09MD 02MO 02MC 02RD 02RO	1	0	0.855051994324	-523.0	323.0	-516	318	1
2.7	2015_May_05_1457	s	s	6	2	SIC	304	ABS	0	1	02VD 02VO 02VC 02MD 02MO 02MC 02RD 10RO	0	1	2.71251296997	None	None	None	None	1
2.7	2015_May_05_1457	s	s	6	2	SIC	305	ABS	0	1	02VD 02VO 02VC 02MD 02MO 02MC 02RD 10RO	0	1	3.62512683868	None	None	None	None	1
2.7	2015_May_05_1457	s	s	6	2	SIC	306	RC	0	2	02VD 02VO 02VC 02MD 02MO 02MC 09RD 02RO	1	0	2.24292898178	1.0	-229.0	9	-222	1
2.7	2015_May_05_1457	s	s	6	2	SIC	307	ABS	2	2	10VD 02VO 02VC 02MD 02MO 02MC 02RD 02RO	0	1	2.102643013	None	None	None	None	1
2.7	2015_May_05_1457	s	s	6	2	SIC	308	ABS	1	0	02VD 02VO 02VC 02MD 02MO 10MC 02RD 02RO	0	1	3.02027797699	None	None	None	None	1
2.7	2015_May_05_1457	s	s	6	2	SIC	309	RC	2	0	02VD 02VO 09VC 02MD 02MO 02MC 02RD 02RO	1	0	1.94520497322	139.0	-398.0	149	-396	1
2.7	2015_May_05_1457	s	s	6	2	SIC	310	ABS	1	2	02VD 02VO 02VC 10MD 02MO 02MC 02RD 02RO	0	1	2.08284497261	None	None	None	None	1
2.7	2015_May_05_1457	s	s	6	2	SIC	311	ABS	2	1	02VD 10VO 02VC 02MD 02MO 02MC 02RD 02RO	0	1	1.84283208847	None	None	None	None	1
2.7	2015_May_05_1457	s	s	6	2	SIC	312	ABS	1	1	02VD 02VO 02VC 02MD 10MO 02MC 02RD 02RO	0	1	2.75368618965	None	None	None	None	1
2.7	2015_May_05_1457	s	s	6	2	SIC	313	RC	2	1	02VD 09VO 02VC 02MD 02MO 02MC 02RD 02RO	1	0	0.747673988342	178.0	216.0	178	217	1
2.7	2015_May_05_1457	s	s	6	2	SIC	314	ABS	2	0	02VD 02VO 10VC 02MD 02MO 02MC 02RD 02RO	0	1	1.6708111763	None	None	None	None	1
2.7	2015_May_05_1457	s	s	6	2	SIC	315	RC	2	2	09VD 02VO 02VC 02MD 02MO 02MC 02RD 02RO	1	0	1.99526906013	394.0	130.0	381	133	1
2.7	2015_May_05_1457	s	s	6	2	SIC	316	ABS	0	2	02VD 02VO 02VC 02MD 02MO 02MC 10RD 02RO	0	1	3.13698101044	None	None	None	None	1
2.7	2015_May_05_1457	s	s	6	2	SIC	317	RC	1	1	02VD 02VO 02VC 02MD 09MO 02MC 02RD 02RO	1	0	0.921189785004	305.0	216.0	308	222	1
2.7	2015_May_05_1457	s	s	6	2	SIC	318	RC	0	1	02VD 02VO 02VC 02MD 02MO 02MC 02RD 09RO	1	0	2.00720000267	-418.0	-146.0	-417	-152	1
2.7	2015_May_05_1457	s	s	6	2	SIC	319	RC	1	0	02VD 02VO 02VC 02MD 02MO 09MC 02RD 02RO	1	0	1.66744804382	384.0	106.0	392	110	1
2.7	2015_May_05_1457	s	s	6	2	SIC	320	RC	1	2	02VD 02VO 02VC 09MD 02MO 02MC 02RD 02RO	1	0	1.25078487396	-62.0	-373.0	-61	-374	1
2.7	2015_May_05_1457	s	s	6	2	SIC	321	ABS	1	0	02VD 02VO 02VC 02MD 02MO 10MC 02RD 02RO	0	1	2.30640912056	None	None	None	None	1
2.7	2015_May_05_1457	s	s	6	2	SIC	322	RC	1	0	02VD 02VO 02VC 02MD 02MO 09MC 02RD 02RO	1	0	0.634955883026	120.0	225.0	111	225	1
2.7	2015_May_05_1457	s	s	6	2	SIC	323	ABS	2	2	10VD 02VO 02VC 02MD 02MO 02MC 02RD 02RO	0	1	2.60071492195	None	None	None	None	1
2.7	2015_May_05_1457	s	s	6	2	SIC	324	ABS	0	2	02VD 02VO 02VC 02MD 02MO 02MC 10RD 02RO	0	1	2.05643701553	None	None	None	None	1
2.7	2015_May_05_1457	s	s	6	2	SIC	325	ABS	1	2	02VD 02VO 02VC 10MD 02MO 02MC 02RD 02RO	0	1	1.85902905464	None	None	None	None	1
2.7	2015_May_05_1457	s	s	6	2	SIC	326	RC	2	2	09VD 02VO 02VC 02MD 02MO 02MC 02RD 02RO	1	0	0.752763032913	-262.0	-11.0	-275	-8	1
2.7	2015_May_05_1457	s	s	6	2	SIC	327	RC	2	1	02VD 09VO 02VC 02MD 02MO 02MC 02RD 02RO	1	0	0.894423961639	435.0	13.0	435	15	1
2.7	2015_May_05_1457	s	s	6	2	SIC	328	RC	2	0	02VD 02VO 09VC 02MD 02MO 02MC 02RD 02RO	1	0	2.17695498466	-63.0	-377.0	-77	-372	1
2.7	2015_May_05_1457	s	s	6	2	SIC	329	RC	0	1	02VD 02VO 02VC 02MD 02MO 02MC 02RD 09RO	1	0	2.95378899574	26.0	360.0	32	360	1
2.7	2015_May_05_1457	s	s	6	2	SIC	330	ABS	2	1	02VD 10VO 02VC 02MD 02MO 02MC 02RD 02RO	0	1	1.8093559742	None	None	None	None	1
2.7	2015_May_05_1457	s	s	6	2	SIC	331	ABS	1	1	02VD 02VO 02VC 02MD 10MO 02MC 02RD 02RO	0	1	2.6190290451	None	None	None	None	1
2.7	2015_May_05_1457	s	s	6	2	SIC	332	RC	0	2	02VD 02VO 02VC 02MD 02MO 02MC 09RD 02RO	1	0	1.20676589012	-420.0	353.0	-421	340	1
2.7	2015_May_05_1457	s	s	6	2	SIC	333	ABS	0	1	02VD 02VO 02VC 02MD 02MO 02MC 02RD 10RO	0	1	3.38927984238	None	None	None	None	1
2.7	2015_May_05_1457	s	s	6	2	SIC	334	RC	1	2	02VD 02VO 02VC 09MD 02MO 02MC 02RD 02RO	1	0	2.10986995697	486.0	39.0	489	47	1
2.7	2015_May_05_1457	s	s	6	2	SIC	335	RC	1	1	02VD 02VO 02VC 02MD 09MO 02MC 02RD 02RO	1	0	1.95373797417	-533.0	-370.0	-534	-361	1
2.7	2015_May_05_1457	s	s	6	2	SIC	336	ABS	2	0	02VD 02VO 10VC 02MD 02MO 02MC 02RD 02RO	0	1	2.75368881226	None	None	None	None	1
2.7	2015_May_05_1457	s	s	6	2	SIC	337	RC	0	2	02VD 02VO 02VC 02MD 02MO 02MC 09RD 02RO	1	0	0.764499902725	86.0	274.0	84	277	1
2.7	2015_May_05_1457	s	s	6	2	SIC	338	ABS	2	2	10VD 02VO 02VC 02MD 02MO 02MC 02RD 02RO	0	1	2.50383710861	None	None	None	None	1
2.7	2015_May_05_1457	s	s	6	2	SIC	339	RC	2	1	02VD 09VO 02VC 02MD 02MO 02MC 02RD 02RO	1	0	1.65456199646	3.0	-167.0	-7	-160	1
2.7	2015_May_05_1457	s	s	6	2	SIC	340	ABS	0	2	02VD 02VO 02VC 02MD 02MO 02MC 10RD 02RO	0	1	1.81812381744	None	None	None	None	1
2.7	2015_May_05_1457	s	s	6	2	SIC	341	RC	1	1	02VD 02VO 02VC 02MD 09MO 02MC 02RD 02RO	1	0	1.07782292366	-263.0	-283.0	-261	-286	1
2.7	2015_May_05_1457	s	s	6	2	SIC	342	RC	1	2	02VD 02VO 02VC 09MD 02MO 02MC 02RD 02RO	1	0	1.90158009529	-445.0	255.0	-453	261	1
2.7	2015_May_05_1457	s	s	6	2	SIC	343	RC	0	1	02VD 02VO 02VC 02MD 02MO 02MC 02RD 09RO	1	0	3.26674294472	433.0	-57.0	431	-60	1
2.7	2015_May_05_1457	s	s	6	2	SIC	344	RC	2	2	09VD 02VO 02VC 02MD 02MO 02MC 02RD 02RO	1	0	0.787961959839	233.0	-57.0	233	-56	1
2.7	2015_May_05_1457	s	s	6	2	SIC	345	ABS	1	1	02VD 02VO 02VC 02MD 10MO 02MC 02RD 02RO	0	1	3.38123393059	None	None	None	None	1
2.7	2015_May_05_1457	s	s	6	2	SIC	346	RC	1	0	02VD 02VO 02VC 02MD 02MO 09MC 02RD 02RO	1	0	1.13869404793	381.0	-38.0	378	-30	1
2.7	2015_May_05_1457	s	s	6	2	SIC	347	ABS	1	2	02VD 02VO 02VC 10MD 02MO 02MC 02RD 02RO	1	0	0.924427032471	None	None	235	-152	0
2.7	2015_May_05_1457	s	s	6	2	SIC	348	ABS	2	0	02VD 02VO 10VC 02MD 02MO 02MC 02RD 02RO	0	1	1.99773406982	None	None	None	None	1
2.7	2015_May_05_1457	s	s	6	2	SIC	349	ABS	1	0	02VD 02VO 02VC 02MD 02MO 10MC 02RD 02RO	0	1	2.31836605072	None	None	None	None	1
2.7	2015_May_05_1457	s	s	6	2	SIC	350	ABS	0	1	02VD 02VO 02VC 02MD 02MO 02MC 02RD 10RO	0	1	2.89491415024	None	None	None	None	1
2.7	2015_May_05_1457	s	s	6	2	SIC	351	ABS	2	1	02VD 10VO 02VC 02MD 02MO 02MC 02RD 02RO	0	1	2.30649805069	None	None	None	None	1
2.7	2015_May_05_1457	s	s	6	2	SIC	352	RC	2	0	02VD 02VO 09VC 02MD 02MO 02MC 02RD 02RO	1	0	0.740978002548	24.0	-25.0	27	-22	1
2.7	2015_May_05_1457	s	s	6	2	SIC	353	ABS	1	2	02VD 02VO 02VC 10MD 02MO 02MC 02RD 02RO	0	1	1.64727306366	None	None	None	None	1
2.7	2015_May_05_1457	s	s	6	2	SIC	354	RC	1	0	02VD 02VO 02VC 02MD 02MO 09MC 02RD 02RO	1	0	1.42365717888	136.0	386.0	145	392	1
2.7	2015_May_05_1457	s	s	6	2	SIC	355	RC	0	1	02VD 02VO 02VC 02MD 02MO 02MC 02RD 09RO	1	0	1.05381393433	1.0	-132.0	-9	-133	1
2.7	2015_May_05_1457	s	s	6	2	SIC	356	RC	2	2	09VD 02VO 02VC 02MD 02MO 02MC 02RD 02RO	1	0	0.594650030136	-171.0	87.0	-162	83	1
2.7	2015_May_05_1457	s	s	6	2	SIC	357	RC	1	2	02VD 02VO 02VC 09MD 02MO 02MC 02RD 02RO	1	0	1.23026108742	460.0	-137.0	467	-144	1
2.7	2015_May_05_1457	s	s	6	2	SIC	358	ABS	0	1	02VD 02VO 02VC 02MD 02MO 02MC 02RD 10RO	0	1	3.45994091034	None	None	None	None	1
2.7	2015_May_05_1457	s	s	6	2	SIC	359	RC	1	1	02VD 02VO 02VC 02MD 09MO 02MC 02RD 02RO	1	0	1.07726788521	77.0	-282.0	86	-277	1
2.7	2015_May_05_1457	s	s	6	2	SIC	360	RC	2	0	02VD 02VO 09VC 02MD 02MO 02MC 02RD 02RO	1	0	0.770179986954	-52.0	-412.0	-46	-417	1
2.7	2015_May_05_1457	s	s	6	2	SIC	361	ABS	1	1	02VD 02VO 02VC 02MD 10MO 02MC 02RD 02RO	0	1	2.07778406143	None	None	None	None	1
2.7	2015_May_05_1457	s	s	6	2	SIC	362	RC	0	2	02VD 02VO 02VC 02MD 02MO 02MC 09RD 02RO	1	0	0.797079086304	-255.0	170.0	-248	170	1
2.7	2015_May_05_1457	s	s	6	2	SIC	363	ABS	0	2	02VD 02VO 02VC 02MD 02MO 02MC 10RD 02RO	0	1	3.43155312538	None	None	None	None	1
2.7	2015_May_05_1457	s	s	6	2	SIC	364	RC	2	1	02VD 09VO 02VC 02MD 02MO 02MC 02RD 02RO	1	0	0.941413879395	-368.0	46.0	-367	44	1
2.7	2015_May_05_1457	s	s	6	2	SIC	365	ABS	1	0	02VD 02VO 02VC 02MD 02MO 10MC 02RD 02RO	0	1	2.13670706749	None	None	None	None	1
2.7	2015_May_05_1457	s	s	6	2	SIC	366	ABS	2	2	10VD 02VO 02VC 02MD 02MO 02MC 02RD 02RO	0	1	2.62413096428	None	None	None	None	1
2.7	2015_May_05_1457	s	s	6	2	SIC	367	ABS	2	0	02VD 02VO 10VC 02MD 02MO 02MC 02RD 02RO	0	1	1.74734401703	None	None	None	None	1
2.7	2015_May_05_1457	s	s	6	2	SIC	368	ABS	2	1	02VD 10VO 02VC 02MD 02MO 02MC 02RD 02RO	0	1	1.4353928566	None	None	None	None	1
2.7	2015_May_05_1457	s	s	6	2	SIC	369	ABS	0	2	02VD 02VO 02VC 02MD 02MO 02MC 10RD 02RO	0	1	1.75321602821	None	None	None	None	1
2.7	2015_May_05_1457	s	s	6	2	SIC	370	RC	2	0	02VD 02VO 09VC 02MD 02MO 02MC 02RD 02RO	1	0	1.74141311646	-233.0	126.0	-232	125	1
2.7	2015_May_05_1457	s	s	6	2	SIC	371	RC	0	1	02VD 02VO 02VC 02MD 02MO 02MC 02RD 09RO	1	0	0.90940785408	-225.0	-130.0	-225	-131	1
2.7	2015_May_05_1457	s	s	6	2	SIC	372	ABS	1	1	02VD 02VO 02VC 02MD 10MO 02MC 02RD 02RO	0	1	3.25651597977	None	None	None	None	1
2.7	2015_May_05_1457	s	s	6	2	SIC	373	RC	1	2	02VD 02VO 02VC 09MD 02MO 02MC 02RD 02RO	1	0	1.51758098602	-197.0	336.0	-190	334	1
2.7	2015_May_05_1457	s	s	6	2	SIC	374	ABS	2	0	02VD 02VO 10VC 02MD 02MO 02MC 02RD 02RO	0	1	2.06854605675	None	None	None	None	1
2.7	2015_May_05_1457	s	s	6	2	SIC	375	RC	1	0	02VD 02VO 02VC 02MD 02MO 09MC 02RD 02RO	1	0	0.752649068832	400.0	242.0	410	240	1
2.7	2015_May_05_1457	s	s	6	2	SIC	376	ABS	1	2	02VD 02VO 02VC 10MD 02MO 02MC 02RD 02RO	0	1	1.60013103485	None	None	None	None	1
2.7	2015_May_05_1457	s	s	6	2	SIC	377	RC	2	2	09VD 02VO 02VC 02MD 02MO 02MC 02RD 02RO	1	0	1.8066470623	-451.0	409.0	-454	410	1
2.7	2015_May_05_1457	s	s	6	2	SIC	378	ABS	0	1	02VD 02VO 02VC 02MD 02MO 02MC 02RD 10RO	0	1	4.83214116096	None	None	None	None	1
2.7	2015_May_05_1457	s	s	6	2	SIC	379	ABS	1	0	02VD 02VO 02VC 02MD 02MO 10MC 02RD 02RO	0	1	2.15339612961	None	None	None	None	1
2.7	2015_May_05_1457	s	s	6	2	SIC	380	RC	2	1	02VD 09VO 02VC 02MD 02MO 02MC 02RD 02RO	1	0	0.752655982971	12.0	-37.0	17	-43	1
2.7	2015_May_05_1457	s	s	6	2	SIC	381	RC	0	2	02VD 02VO 02VC 02MD 02MO 02MC 09RD 02RO	1	0	2.24739003181	395.0	-397.0	398	-395	1
2.7	2015_May_05_1457	s	s	6	2	SIC	382	ABS	2	2	10VD 02VO 02VC 02MD 02MO 02MC 02RD 02RO	0	1	1.77163815498	None	None	None	None	1
2.7	2015_May_05_1457	s	s	6	2	SIC	383	ABS	2	1	02VD 10VO 02VC 02MD 02MO 02MC 02RD 02RO	0	1	1.89903211594	None	None	None	None	1
2.7	2015_May_05_1457	s	s	6	2	SIC	384	RC	1	1	02VD 02VO 02VC 02MD 09MO 02MC 02RD 02RO	1	0	1.00783085823	-217.0	-222.0	-202	-214	1
2.7	2015_May_05_1457	s	s	6	2	SIC	385	ABS	2	2	10VD 02VO 02VC 02MD 02MO 02MC 02RD 02RO	0	1	2.2212998867	None	None	None	None	1
2.7	2015_May_05_1457	s	s	6	2	SIC	386	RC	2	0	02VD 02VO 09VC 02MD 02MO 02MC 02RD 02RO	1	0	2.03608012199	-534.0	-253.0	-541	-252	1
2.7	2015_May_05_1457	s	s	6	2	SIC	387	ABS	0	1	02VD 02VO 02VC 02MD 02MO 02MC 02RD 10RO	0	1	3.50705504417	None	None	None	None	1
2.7	2015_May_05_1457	s	s	6	2	SIC	388	ABS	2	0	02VD 02VO 10VC 02MD 02MO 02MC 02RD 02RO	0	1	1.65905785561	None	None	None	None	1
2.7	2015_May_05_1457	s	s	6	2	SIC	389	RC	1	0	02VD 02VO 02VC 02MD 02MO 09MC 02RD 02RO	1	0	1.18340420723	205.0	289.0	204	285	1
2.7	2015_May_05_1457	s	s	6	2	SIC	390	RC	0	2	02VD 02VO 02VC 02MD 02MO 02MC 09RD 02RO	1	0	2.48298287392	308.0	-220.0	296	-218	1
2.7	2015_May_05_1457	s	s	6	2	SIC	391	RC	2	2	09VD 02VO 02VC 02MD 02MO 02MC 02RD 02RO	1	0	1.09773802757	-233.0	254.0	-241	252	1
2.7	2015_May_05_1457	s	s	6	2	SIC	392	ABS	2	1	02VD 10VO 02VC 02MD 02MO 02MC 02RD 02RO	0	1	2.50119018555	None	None	None	None	1
2.7	2015_May_05_1457	s	s	6	2	SIC	393	ABS	0	2	02VD 02VO 02VC 02MD 02MO 02MC 10RD 02RO	0	1	2.2659599781	None	None	None	None	1
2.7	2015_May_05_1457	s	s	6	2	SIC	394	RC	0	1	02VD 02VO 02VC 02MD 02MO 02MC 02RD 09RO	1	0	1.93668699265	213.0	361.0	213	359	1
2.7	2015_May_05_1457	s	s	6	2	SIC	395	RC	1	1	02VD 02VO 02VC 02MD 09MO 02MC 02RD 02RO	1	0	0.729119062424	149.0	337.0	155	340	1
2.7	2015_May_05_1457	s	s	6	2	SIC	396	ABS	1	0	02VD 02VO 02VC 02MD 02MO 10MC 02RD 02RO	0	1	3.04298591614	None	None	None	None	1
2.7	2015_May_05_1457	s	s	6	2	SIC	397	ABS	1	1	02VD 02VO 02VC 02MD 10MO 02MC 02RD 02RO	0	1	2.25663590431	None	None	None	None	1
2.7	2015_May_05_1457	s	s	6	2	SIC	398	RC	1	2	02VD 02VO 02VC 09MD 02MO 02MC 02RD 02RO	1	0	2.35349702835	-470.0	133.0	-480	133	1
2.7	2015_May_05_1457	s	s	6	2	SIC	399	ABS	1	2	02VD 02VO 02VC 10MD 02MO 02MC 02RD 02RO	0	1	2.14163184166	None	None	None	None	1
2.7	2015_May_05_1457	s	s	6	2	SIC	400	RC	2	1	02VD 09VO 02VC 02MD 02MO 02MC 02RD 02RO	1	0	0.706080198288	-20.0	300.0	-18	304	1
2.7	2015_May_05_1457	s	s	6	2	SIC	401	RC	2	1	02VD 09VO 02VC 02MD 02MO 02MC 02RD 02RO	1	0	1.53798317909	307.0	-254.0	301	-250	1
2.7	2015_May_05_1457	s	s	6	2	SIC	402	RC	1	0	02VD 02VO 02VC 02MD 02MO 09MC 02RD 02RO	1	0	1.59546017647	-371.0	302.0	-372	302	1
2.7	2015_May_05_1457	s	s	6	2	SIC	403	ABS	2	1	02VD 10VO 02VC 02MD 02MO 02MC 02RD 02RO	0	1	1.45894694328	None	None	None	None	1
2.7	2015_May_05_1457	s	s	6	2	SIC	404	RC	1	2	02VD 02VO 02VC 09MD 02MO 02MC 02RD 02RO	1	0	1.57666110992	37.0	-397.0	31	-398	1
2.7	2015_May_05_1457	s	s	6	2	SIC	405	ABS	0	1	02VD 02VO 02VC 02MD 02MO 02MC 02RD 10RO	0	1	3.20093607903	None	None	None	None	1
2.7	2015_May_05_1457	s	s	6	2	SIC	406	ABS	1	0	02VD 02VO 02VC 02MD 02MO 10MC 02RD 02RO	0	1	5.63735508919	None	None	None	None	1
2.7	2015_May_05_1457	s	s	6	2	SIC	407	ABS	1	2	02VD 02VO 02VC 10MD 02MO 02MC 02RD 02RO	0	1	2.23080897331	None	None	None	None	1
2.7	2015_May_05_1457	s	s	6	2	SIC	408	RC	2	0	02VD 02VO 09VC 02MD 02MO 02MC 02RD 02RO	1	0	1.14113998413	325.0	193.0	321	195	1
2.7	2015_May_05_1457	s	s	6	2	SIC	409	RC	0	1	02VD 02VO 02VC 02MD 02MO 02MC 02RD 09RO	1	0	1.45891499519	23.0	-243.0	32	-236	1
2.7	2015_May_05_1457	s	s	6	2	SIC	410	ABS	2	2	10VD 02VO 02VC 02MD 02MO 02MC 02RD 02RO	0	1	2.63594102859	None	None	None	None	1
2.7	2015_May_05_1457	s	s	6	2	SIC	411	RC	0	2	02VD 02VO 02VC 02MD 02MO 02MC 09RD 02RO	1	0	1.25912284851	146.0	-254.0	148	-245	1
2.7	2015_May_05_1457	s	s	6	2	SIC	412	ABS	2	0	02VD 02VO 10VC 02MD 02MO 02MC 02RD 02RO	0	1	1.97679495811	None	None	None	None	1
2.7	2015_May_05_1457	s	s	6	2	SIC	413	RC	1	1	02VD 02VO 02VC 02MD 09MO 02MC 02RD 02RO	1	0	2.31258606911	-417.0	409.0	-424	405	1
2.7	2015_May_05_1457	s	s	6	2	SIC	414	ABS	1	1	02VD 02VO 02VC 02MD 10MO 02MC 02RD 02RO	0	1	2.13659691811	None	None	None	None	1
2.7	2015_May_05_1457	s	s	6	2	SIC	415	RC	2	2	09VD 02VO 02VC 02MD 02MO 02MC 02RD 02RO	1	0	0.841650009155	213.0	241.0	213	239	1
2.7	2015_May_05_1457	s	s	6	2	SIC	416	ABS	0	2	02VD 02VO 02VC 02MD 02MO 02MC 10RD 02RO	0	1	2.57750892639	None	None	None	None	1
2.7	2015_May_05_1457	s	s	6	2	SIC	417	ABS	1	1	02VD 02VO 02VC 02MD 10MO 02MC 02RD 02RO	0	1	1.83053994179	None	None	None	None	1
2.7	2015_May_05_1457	s	s	6	2	SIC	418	ABS	2	0	02VD 02VO 10VC 02MD 02MO 02MC 02RD 02RO	0	1	1.69432902336	None	None	None	None	1
2.7	2015_May_05_1457	s	s	6	2	SIC	419	ABS	2	1	02VD 10VO 02VC 02MD 02MO 02MC 02RD 02RO	0	1	2.57231593132	None	None	None	None	1
2.7	2015_May_05_1457	s	s	6	2	SIC	420	RC	1	1	02VD 02VO 02VC 02MD 09MO 02MC 02RD 02RO	1	0	1.85315799713	-466.0	-271.0	-478	-270	1
2.7	2015_May_05_1457	s	s	6	2	SIC	421	ABS	1	2	02VD 02VO 02VC 10MD 02MO 02MC 02RD 02RO	0	1	2.00822782516	None	None	None	None	1
2.7	2015_May_05_1457	s	s	6	2	SIC	422	RC	0	1	02VD 02VO 02VC 02MD 02MO 02MC 02RD 09RO	1	0	1.17160916328	-370.0	202.0	-363	200	1
2.7	2015_May_05_1457	s	s	6	2	SIC	423	ABS	0	2	02VD 02VO 02VC 02MD 02MO 02MC 10RD 02RO	0	1	2.34868407249	None	None	None	None	1
2.7	2015_May_05_1457	s	s	6	2	SIC	424	RC	0	2	02VD 02VO 02VC 02MD 02MO 02MC 09RD 02RO	1	0	1.76064705849	-508.0	-41.0	-502	-43	1
2.7	2015_May_05_1457	s	s	6	2	SIC	425	RC	2	2	09VD 02VO 02VC 02MD 02MO 02MC 02RD 02RO	1	0	0.653571128845	-12.0	75.0	-8	66	1
2.7	2015_May_05_1457	s	s	6	2	SIC	426	RC	1	0	02VD 02VO 02VC 02MD 02MO 09MC 02RD 02RO	1	0	0.936867952347	290.0	207.0	288	201	1
2.7	2015_May_05_1457	s	s	6	2	SIC	427	ABS	0	1	02VD 02VO 02VC 02MD 02MO 02MC 02RD 10RO	0	1	3.07747101784	None	None	None	None	1
2.7	2015_May_05_1457	s	s	6	2	SIC	428	RC	2	0	02VD 02VO 09VC 02MD 02MO 02MC 02RD 02RO	1	0	1.24704098701	-487.0	-51.0	-484	-50	1
2.7	2015_May_05_1457	s	s	6	2	SIC	429	ABS	2	2	10VD 02VO 02VC 02MD 02MO 02MC 02RD 02RO	0	1	2.30154109001	None	None	None	None	1
2.7	2015_May_05_1457	s	s	6	2	SIC	430	ABS	1	0	02VD 02VO 02VC 02MD 02MO 10MC 02RD 02RO	0	1	2.78889489174	None	None	None	None	1
2.7	2015_May_05_1457	s	s	6	2	SIC	431	RC	2	1	02VD 09VO 02VC 02MD 02MO 02MC 02RD 02RO	1	0	1.1597430706	415.0	174.0	9	-3	0
2.7	2015_May_05_1457	s	s	6	2	SIC	432	RC	1	2	02VD 02VO 02VC 09MD 02MO 02MC 02RD 02RO	1	0	0.976354837418	169.0	350.0	173	343	1
2.7	2015_May_05_1457	s	s	6	2	SIC	433	RC	2	2	09VD 02VO 02VC 02MD 02MO 02MC 02RD 02RO	1	0	1.2881090641	61.0	-273.0	62	-270	1
2.7	2015_May_05_1457	s	s	6	2	SIC	434	ABS	0	2	02VD 02VO 02VC 02MD 02MO 02MC 10RD 02RO	0	1	2.77712798119	None	None	None	None	1
2.7	2015_May_05_1457	s	s	6	2	SIC	435	RC	1	1	02VD 02VO 02VC 02MD 09MO 02MC 02RD 02RO	1	0	1.5951359272	367.0	-20.0	377	-20	1
2.7	2015_May_05_1457	s	s	6	2	SIC	436	ABS	2	1	02VD 10VO 02VC 02MD 02MO 02MC 02RD 02RO	0	1	1.9853951931	None	None	None	None	1
2.7	2015_May_05_1457	s	s	6	2	SIC	437	RC	1	0	02VD 02VO 02VC 02MD 02MO 09MC 02RD 02RO	1	0	0.711791992188	154.0	310.0	144	309	1
2.7	2015_May_05_1457	s	s	6	2	SIC	438	ABS	1	1	02VD 02VO 02VC 02MD 10MO 02MC 02RD 02RO	0	1	2.55362510681	None	None	None	None	1
2.7	2015_May_05_1457	s	s	6	2	SIC	439	ABS	0	1	02VD 02VO 02VC 02MD 02MO 02MC 02RD 10RO	0	1	3.60117793083	None	None	None	None	1
2.7	2015_May_05_1457	s	s	6	2	SIC	440	ABS	1	0	02VD 02VO 02VC 02MD 02MO 10MC 02RD 02RO	0	1	4.2214782238	None	None	None	None	1
2.7	2015_May_05_1457	s	s	6	2	SIC	441	RC	2	1	02VD 09VO 02VC 02MD 02MO 02MC 02RD 02RO	1	0	1.51174616814	220.0	-327.0	213	-332	1
2.7	2015_May_05_1457	s	s	6	2	SIC	442	RC	1	2	02VD 02VO 02VC 09MD 02MO 02MC 02RD 02RO	1	0	2.07914185524	356.0	46.0	363	47	1
2.7	2015_May_05_1457	s	s	6	2	SIC	443	ABS	2	0	02VD 02VO 10VC 02MD 02MO 02MC 02RD 02RO	0	1	2.0592019558	None	None	None	None	1
2.7	2015_May_05_1457	s	s	6	2	SIC	444	ABS	2	2	10VD 02VO 02VC 02MD 02MO 02MC 02RD 02RO	0	1	2.10629796982	None	None	None	None	1
2.7	2015_May_05_1457	s	s	6	2	SIC	445	RC	0	1	02VD 02VO 02VC 02MD 02MO 02MC 02RD 09RO	1	0	0.764493942261	29.0	263.0	28	259	1
2.7	2015_May_05_1457	s	s	6	2	SIC	446	ABS	1	2	02VD 02VO 02VC 10MD 02MO 02MC 02RD 02RO	0	1	0.128849029541	None	None	None	None	1
2.7	2015_May_05_1457	s	s	6	2	SIC	447	RC	0	2	02VD 02VO 02VC 02MD 02MO 02MC 09RD 02RO	1	0	2.25937104225	465.0	-374.0	468	-368	1
2.7	2015_May_05_1457	s	s	6	2	SIC	448	RC	2	0	02VD 02VO 09VC 02MD 02MO 02MC 02RD 02RO	1	0	1.40847706795	139.0	-104.0	146	-104	1
2.7	2015_May_05_1457	s	s	6	2	SIC	449	ABS	2	2	10VD 02VO 02VC 02MD 02MO 02MC 02RD 02RO	0	1	3.25588297844	None	None	None	None	1
2.7	2015_May_05_1457	s	s	6	2	SIC	450	RC	0	2	02VD 02VO 02VC 02MD 02MO 02MC 09RD 02RO	1	0	1.19503688812	-464.0	304.0	-468	312	1
2.7	2015_May_05_1457	s	s	6	2	SIC	451	RC	0	1	02VD 02VO 02VC 02MD 02MO 02MC 02RD 09RO	1	0	1.3176651001	-503.0	35.0	-505	43	1
2.7	2015_May_05_1457	s	s	6	2	SIC	452	ABS	0	1	02VD 02VO 02VC 02MD 02MO 02MC 02RD 10RO	0	1	3.84839010239	None	None	None	None	1
2.7	2015_May_05_1457	s	s	6	2	SIC	453	RC	1	2	02VD 02VO 02VC 09MD 02MO 02MC 02RD 02RO	1	0	0.917429924011	139.0	-113.0	148	-107	1
2.7	2015_May_05_1457	s	s	6	2	SIC	454	ABS	0	2	02VD 02VO 02VC 02MD 02MO 02MC 10RD 02RO	0	1	2.51843690872	None	None	None	None	1
2.7	2015_May_05_1457	s	s	6	2	SIC	455	RC	1	1	02VD 02VO 02VC 02MD 09MO 02MC 02RD 02RO	1	0	1.5245320797	264.0	-270.0	263	-267	1
2.7	2015_May_05_1457	s	s	6	2	SIC	456	ABS	1	0	02VD 02VO 02VC 02MD 02MO 10MC 02RD 02RO	0	1	4.01996994019	None	None	None	None	1
2.7	2015_May_05_1457	s	s	6	2	SIC	457	RC	2	0	02VD 02VO 09VC 02MD 02MO 02MC 02RD 02RO	1	0	1.98862099648	-184.0	314.0	-178	309	1
2.7	2015_May_05_1457	s	s	6	2	SIC	458	ABS	2	0	02VD 02VO 10VC 02MD 02MO 02MC 02RD 02RO	0	1	2.43580198288	None	None	None	None	1
2.7	2015_May_05_1457	s	s	6	2	SIC	459	RC	2	1	02VD 09VO 02VC 02MD 02MO 02MC 02RD 02RO	1	0	0.940970182419	-323.0	277.0	-326	281	1
2.7	2015_May_05_1457	s	s	6	2	SIC	460	RC	2	2	09VD 02VO 02VC 02MD 02MO 02MC 02RD 02RO	1	0	2.11503815651	522.0	-2.0	524	-15	1
2.7	2015_May_05_1457	s	s	6	2	SIC	461	ABS	1	2	02VD 02VO 02VC 10MD 02MO 02MC 02RD 02RO	0	1	2.29189991951	None	None	None	None	1
2.7	2015_May_05_1457	s	s	6	2	SIC	462	ABS	1	1	02VD 02VO 02VC 02MD 10MO 02MC 02RD 02RO	0	1	3.9868118763	None	None	None	None	1
2.7	2015_May_05_1457	s	s	6	2	SIC	463	RC	1	0	02VD 02VO 02VC 02MD 02MO 09MC 02RD 02RO	1	0	1.81802392006	-299.0	215.0	-295	209	1
2.7	2015_May_05_1457	s	s	6	2	SIC	464	ABS	2	1	02VD 10VO 02VC 02MD 02MO 02MC 02RD 02RO	0	1	2.16175293922	None	None	None	None	1
2.7	2015_May_05_1457	s	s	6	2	SIC	465	ABS	0	2	02VD 02VO 02VC 02MD 02MO 02MC 10RD 02RO	0	1	2.58889698982	None	None	None	None	1
2.7	2015_May_05_1457	s	s	6	2	SIC	466	ABS	1	0	02VD 02VO 02VC 02MD 02MO 10MC 02RD 02RO	0	1	3.64814090729	None	None	None	None	1
2.7	2015_May_05_1457	s	s	6	2	SIC	467	ABS	2	2	10VD 02VO 02VC 02MD 02MO 02MC 02RD 02RO	0	1	1.76499509811	None	None	None	None	1
2.7	2015_May_05_1457	s	s	6	2	SIC	468	RC	0	1	02VD 02VO 02VC 02MD 02MO 02MC 02RD 09RO	0	1	3.57256793976	461.0	-10.0	None	None	0
2.7	2015_May_05_1457	s	s	6	2	SIC	469	ABS	2	0	02VD 02VO 10VC 02MD 02MO 02MC 02RD 02RO	0	1	2.11813902855	None	None	None	None	1
2.7	2015_May_05_1457	s	s	6	2	SIC	470	ABS	1	1	02VD 02VO 02VC 02MD 10MO 02MC 02RD 02RO	0	1	3.60741305351	None	None	None	None	1
2.7	2015_May_05_1457	s	s	6	2	SIC	471	ABS	0	1	02VD 02VO 02VC 02MD 02MO 02MC 02RD 10RO	0	1	4.24856805801	None	None	None	None	1
2.7	2015_May_05_1457	s	s	6	2	SIC	472	RC	1	2	02VD 02VO 02VC 09MD 02MO 02MC 02RD 02RO	1	0	1.96163487434	-416.0	-374.0	-416	-381	1
2.7	2015_May_05_1457	s	s	6	2	SIC	473	RC	1	0	02VD 02VO 02VC 02MD 02MO 09MC 02RD 02RO	1	0	0.941060066223	43.0	-93.0	46	-96	1
2.7	2015_May_05_1457	s	s	6	2	SIC	474	ABS	1	2	02VD 02VO 02VC 10MD 02MO 02MC 02RD 02RO	0	1	2.17205882072	None	None	None	None	1
2.7	2015_May_05_1457	s	s	6	2	SIC	475	RC	0	2	02VD 02VO 02VC 02MD 02MO 02MC 09RD 02RO	1	0	1.35335588455	307.0	176.0	308	178	1
2.7	2015_May_05_1457	s	s	6	2	SIC	476	RC	2	0	02VD 02VO 09VC 02MD 02MO 02MC 02RD 02RO	1	0	0.902425050735	1.0	295.0	-6	298	1
2.7	2015_May_05_1457	s	s	6	2	SIC	477	RC	1	1	02VD 02VO 02VC 02MD 09MO 02MC 02RD 02RO	1	0	0.740907907486	168.0	384.0	166	374	1
2.7	2015_May_05_1457	s	s	6	2	SIC	478	ABS	2	1	02VD 10VO 02VC 02MD 02MO 02MC 02RD 02RO	0	1	2.44009280205	None	None	None	None	1
2.7	2015_May_05_1457	s	s	6	2	SIC	479	RC	2	2	09VD 02VO 02VC 02MD 02MO 02MC 02RD 02RO	1	0	0.693806171417	123.0	281.0	131	280	1
2.7	2015_May_05_1457	s	s	6	2	SIC	480	RC	2	1	02VD 09VO 02VC 02MD 02MO 02MC 02RD 02RO	1	0	1.11262106895	211.0	-57.0	217	-53	1
