Version	Date	Stimuli	Method	Subject	Session	Condition	Trial	Target	Channel1	Channel2	Distractors	LMouseButton	RMouseButton	RT	TargetX	TargetY	ResponseX	ResponseY	Correct
2.7	2015_May_07_1535	s	s	6	4	Capacity	1	RC	0	1	08RD 15RO	1	0	1.02338314056	423.0	-61.0	434	-58	1
2.7	2015_May_07_1535	s	s	6	4	Capacity	2	RC	0	2	15RD 08RO	1	0	1.74742698669	436.0	-172.0	438	-173	1
2.7	2015_May_07_1535	s	s	6	4	Capacity	3	ABS	0	2	16RD 08RO	0	1	2.50654101372	None	None	None	None	1
2.7	2015_May_07_1535	s	s	6	4	Capacity	4	ABS	0	1	08RD 16RO	0	1	7.11678409576	None	None	None	None	1
2.7	2015_May_07_1535	s	s	6	4	Capacity	5	ABS	0	1	08RD 16RO	0	1	5.26767706871	None	None	None	None	1
2.7	2015_May_07_1535	s	s	6	4	Capacity	6	RC	0	1	08RD 15RO	1	0	1.94828891754	-221.0	-201.0	-217	-209	1
2.7	2015_May_07_1535	s	s	6	4	Capacity	7	RC	0	2	15RD 08RO	1	0	1.29422092438	109.0	-407.0	109	-408	1
2.7	2015_May_07_1535	s	s	6	4	Capacity	8	ABS	0	2	16RD 08RO	0	1	2.80753898621	None	None	None	None	1
2.7	2015_May_07_1535	s	s	6	4	Capacity	9	ABS	0	2	16RD 08RO	0	1	2.76086401939	None	None	None	None	1
2.7	2015_May_07_1535	s	s	6	4	Capacity	10	RC	0	2	15RD 08RO	1	0	0.905701875687	502.0	-227.0	504	-228	1
2.7	2015_May_07_1535	s	s	6	4	Capacity	11	ABS	0	1	08RD 16RO	0	1	4.06703782082	None	None	None	None	1
2.7	2015_May_07_1535	s	s	6	4	Capacity	12	RC	0	1	08RD 15RO	1	0	0.619680166245	312.0	360.0	304	358	1
2.7	2015_May_07_1535	s	s	6	4	Capacity	13	ABS	0	1	08RD 16RO	0	1	4.13765597343	None	None	None	None	1
2.7	2015_May_07_1535	s	s	6	4	Capacity	14	ABS	0	2	16RD 08RO	0	1	2.63305997849	None	None	None	None	1
2.7	2015_May_07_1535	s	s	6	4	Capacity	15	RC	0	1	08RD 15RO	1	0	2.54769992828	-132.0	-294.0	-129	-291	1
2.7	2015_May_07_1535	s	s	6	4	Capacity	16	RC	0	2	15RD 08RO	1	0	0.997074127197	-533.0	-177.0	-526	-174	1
2.7	2015_May_07_1535	s	s	6	4	Capacity	17	RC	0	2	15RD 08RO	1	0	1.48829984665	431.0	166.0	434	160	1
2.7	2015_May_07_1535	s	s	6	4	Capacity	18	ABS	0	2	16RD 08RO	0	1	2.79552602768	None	None	None	None	1
2.7	2015_May_07_1535	s	s	6	4	Capacity	19	RC	0	1	08RD 15RO	1	0	3.59606599808	-48.0	336.0	-44	336	1
2.7	2015_May_07_1535	s	s	6	4	Capacity	20	ABS	0	1	08RD 16RO	0	1	4.43116402626	None	None	None	None	1
2.7	2015_May_07_1535	s	s	6	4	Capacity	21	RC	0	2	15RD 08RO	1	0	0.782953023911	-299.0	283.0	-294	286	1
2.7	2015_May_07_1535	s	s	6	4	Capacity	22	RC	0	1	08RD 15RO	1	0	3.24267888069	495.0	94.0	505	101	1
2.7	2015_May_07_1535	s	s	6	4	Capacity	23	ABS	0	1	08RD 16RO	0	1	5.33818602562	None	None	None	None	1
2.7	2015_May_07_1535	s	s	6	4	Capacity	24	ABS	0	2	16RD 08RO	0	1	2.80079698563	None	None	None	None	1
2.7	2015_May_07_1535	s	s	6	4	Capacity	25	ABS	0	1	08RD 16RO	0	1	4.0908100605	None	None	None	None	1
2.7	2015_May_07_1535	s	s	6	4	Capacity	26	RC	0	1	08RD 15RO	1	0	0.844177007675	267.0	145.0	257	147	1
2.7	2015_May_07_1535	s	s	6	4	Capacity	27	RC	0	2	15RD 08RO	1	0	2.31324911118	-104.0	376.0	-105	369	1
2.7	2015_May_07_1535	s	s	6	4	Capacity	28	ABS	0	2	16RD 08RO	0	1	3.09503912926	None	None	None	None	1
2.7	2015_May_07_1535	s	s	6	4	Capacity	29	RC	0	2	15RD 08RO	1	0	0.71737408638	147.0	69.0	158	69	1
2.7	2015_May_07_1535	s	s	6	4	Capacity	30	RC	0	1	08RD 15RO	1	0	1.45319581032	-111.0	-254.0	-117	-256	1
2.7	2015_May_07_1535	s	s	6	4	Capacity	31	ABS	0	1	08RD 16RO	0	1	6.12007713318	None	None	None	None	1
2.7	2015_May_07_1535	s	s	6	4	Capacity	32	ABS	0	2	16RD 08RO	0	1	3.9608259201	None	None	None	None	1
2.7	2015_May_07_1535	s	s	6	4	Capacity	33	RC	0	2	15RD 08RO	1	0	0.606544971466	-123.0	287.0	-119	290	1
2.7	2015_May_07_1535	s	s	6	4	Capacity	34	RC	0	1	08RD 15RO	1	0	2.81880092621	-142.0	134.0	-140	131	1
2.7	2015_May_07_1535	s	s	6	4	Capacity	35	ABS	0	1	08RD 16RO	0	1	5.319617033	None	None	None	None	1
2.7	2015_May_07_1535	s	s	6	4	Capacity	36	ABS	0	2	16RD 08RO	0	1	3.79648685455	None	None	None	None	1
2.7	2015_May_07_1535	s	s	6	4	Capacity	37	ABS	0	1	08RD 16RO	0	1	5.76190805435	None	None	None	None	1
2.7	2015_May_07_1535	s	s	6	4	Capacity	38	ABS	0	2	16RD 08RO	0	1	4.31922912598	None	None	None	None	1
2.7	2015_May_07_1535	s	s	6	4	Capacity	39	RC	0	1	08RD 15RO	1	0	2.16512107849	-101.0	-234.0	-100	-229	1
2.7	2015_May_07_1535	s	s	6	4	Capacity	40	RC	0	2	15RD 08RO	1	0	0.912183046341	252.0	95.0	243	95	1
2.7	2015_May_07_1535	s	s	6	4	Capacity	41	RC	0	2	15RD 08RO	1	0	0.78802895546	275.0	337.0	270	332	1
2.7	2015_May_07_1535	s	s	6	4	Capacity	42	ABS	0	1	08RD 16RO	0	1	4.80179095268	None	None	None	None	1
2.7	2015_May_07_1535	s	s	6	4	Capacity	43	ABS	0	2	16RD 08RO	0	1	2.90671110153	None	None	None	None	1
2.7	2015_May_07_1535	s	s	6	4	Capacity	44	RC	0	1	08RD 15RO	1	0	3.05453586578	-455.0	360.0	-452	363	1
2.7	2015_May_07_1535	s	s	6	4	Capacity	45	RC	0	1	08RD 15RO	1	0	3.59682703018	-265.0	11.0	-261	4	1
2.7	2015_May_07_1535	s	s	6	4	Capacity	46	ABS	0	2	16RD 08RO	0	1	2.44764208794	None	None	None	None	1
2.7	2015_May_07_1535	s	s	6	4	Capacity	47	ABS	0	1	08RD 16RO	0	1	3.43636798859	None	None	None	None	1
2.7	2015_May_07_1535	s	s	6	4	Capacity	48	RC	0	2	15RD 08RO	1	0	1.10083603859	227.0	-295.0	237	-297	1
2.7	2015_May_07_1535	s	s	6	4	Capacity	49	ABS	0	1	08RD 16RO	0	1	4.47222208977	None	None	None	None	1
2.7	2015_May_07_1535	s	s	6	4	Capacity	50	RC	0	2	15RD 08RO	1	0	2.56045103073	-485.0	303.0	-480	305	1
2.7	2015_May_07_1535	s	s	6	4	Capacity	51	RC	0	1	08RD 15RO	1	0	2.47115683556	-246.0	203.0	-238	199	1
2.7	2015_May_07_1535	s	s	6	4	Capacity	52	ABS	0	2	16RD 08RO	0	1	2.54603219032	None	None	None	None	1
2.7	2015_May_07_1535	s	s	6	4	Capacity	53	ABS	0	1	08RD 16RO	0	1	3.64315795898	None	None	None	None	1
2.7	2015_May_07_1535	s	s	6	4	Capacity	54	RC	0	1	08RD 15RO	1	0	2.87748098373	15.0	-280.0	21	-280	1
2.7	2015_May_07_1535	s	s	6	4	Capacity	55	ABS	0	2	16RD 08RO	0	1	2.04079079628	None	None	None	None	1
2.7	2015_May_07_1535	s	s	6	4	Capacity	56	RC	0	2	15RD 08RO	1	0	0.623200178146	298.0	410.0	302	400	1
2.7	2015_May_07_1535	s	s	6	4	Capacity	57	RC	0	1	08RD 15RO	1	0	3.04793810844	-429.0	285.0	-436	284	1
2.7	2015_May_07_1535	s	s	6	4	Capacity	58	ABS	0	1	08RD 16RO	0	1	3.84278512001	None	None	None	None	1
2.7	2015_May_07_1535	s	s	6	4	Capacity	59	ABS	0	2	16RD 08RO	0	1	2.20724606514	None	None	None	None	1
2.7	2015_May_07_1535	s	s	6	4	Capacity	60	RC	0	2	15RD 08RO	1	0	2.43091821671	-381.0	-315.0	-375	-317	1
2.7	2015_May_07_1535	s	s	6	4	Capacity	61	ABS	0	2	16RD 08RO	0	1	2.27782917023	None	None	None	None	1
2.7	2015_May_07_1535	s	s	6	4	Capacity	62	RC	0	2	15RD 08RO	1	0	1.76490306854	-432.0	214.0	-423	214	1
2.7	2015_May_07_1535	s	s	6	4	Capacity	63	RC	0	1	08RD 15RO	1	0	3.13032484055	-538.0	238.0	-544	229	1
2.7	2015_May_07_1535	s	s	6	4	Capacity	64	ABS	0	1	08RD 16RO	0	1	4.54878401756	None	None	None	None	1
2.7	2015_May_07_1535	s	s	6	4	Capacity	1	RC	2	0	15VC 08MC	1	0	1.17643404007	-480.0	-410.0	-473	-409	1
2.7	2015_May_07_1535	s	s	6	4	Capacity	2	ABS	1	0	08VC 16MC	0	1	3.05480313301	None	None	None	None	1
2.7	2015_May_07_1535	s	s	6	4	Capacity	3	ABS	2	0	16VC 08MC	0	1	3.18926095963	None	None	None	None	1
2.7	2015_May_07_1535	s	s	6	4	Capacity	4	RC	1	0	08VC 15MC	1	0	1.55313491821	509.0	-311.0	507	-309	1
2.7	2015_May_07_1535	s	s	6	4	Capacity	5	RC	2	0	15VC 08MC	1	0	0.911852121353	-230.0	111.0	-235	113	1
2.7	2015_May_07_1535	s	s	6	4	Capacity	6	RC	1	0	08VC 15MC	1	0	1.24196100235	247.0	-395.0	250	-391	1
2.7	2015_May_07_1535	s	s	6	4	Capacity	7	ABS	1	0	08VC 16MC	0	1	2.48986387253	None	None	None	None	1
2.7	2015_May_07_1535	s	s	6	4	Capacity	8	ABS	2	0	16VC 08MC	0	1	2.25447392464	None	None	None	None	1
2.7	2015_May_07_1535	s	s	6	4	Capacity	9	ABS	1	0	08VC 16MC	0	1	2.60894393921	None	None	None	None	1
2.7	2015_May_07_1535	s	s	6	4	Capacity	10	ABS	2	0	16VC 08MC	0	1	2.67791485786	None	None	None	None	1
2.7	2015_May_07_1535	s	s	6	4	Capacity	11	RC	1	0	08VC 15MC	1	0	1.23526215553	254.0	-290.0	255	-290	1
2.7	2015_May_07_1535	s	s	6	4	Capacity	12	RC	2	0	15VC 08MC	1	0	0.817583084106	518.0	-316.0	521	-311	1
2.7	2015_May_07_1535	s	s	6	4	Capacity	13	ABS	2	0	16VC 08MC	0	1	2.64206290245	None	None	None	None	1
2.7	2015_May_07_1535	s	s	6	4	Capacity	14	RC	2	0	15VC 08MC	1	0	0.740873813629	138.0	30.0	140	36	1
2.7	2015_May_07_1535	s	s	6	4	Capacity	15	ABS	1	0	08VC 16MC	0	1	3.56021904945	None	None	None	None	1
2.7	2015_May_07_1535	s	s	6	4	Capacity	16	RC	1	0	08VC 15MC	1	0	0.557890892029	144.0	170.0	153	167	1
2.7	2015_May_07_1535	s	s	6	4	Capacity	17	ABS	2	0	16VC 08MC	0	1	2.559664011	None	None	None	None	1
2.7	2015_May_07_1535	s	s	6	4	Capacity	18	ABS	1	0	08VC 16MC	0	1	3.20917797089	None	None	None	None	1
2.7	2015_May_07_1535	s	s	6	4	Capacity	19	RC	2	0	15VC 08MC	1	0	1.04694199562	-204.0	-302.0	-200	-299	1
2.7	2015_May_07_1535	s	s	6	4	Capacity	20	RC	1	0	08VC 15MC	1	0	1.10578489304	463.0	253.0	473	254	1
2.7	2015_May_07_1535	s	s	6	4	Capacity	21	RC	2	0	15VC 08MC	1	0	0.818242788315	439.0	-250.0	440	-258	1
2.7	2015_May_07_1535	s	s	6	4	Capacity	22	ABS	1	0	08VC 16MC	0	1	1.95049786568	None	None	None	None	1
2.7	2015_May_07_1535	s	s	6	4	Capacity	23	RC	1	0	08VC 15MC	1	0	0.835064172745	473.0	332.0	473	331	1
2.7	2015_May_07_1535	s	s	6	4	Capacity	24	ABS	2	0	16VC 08MC	0	1	1.94152593613	None	None	None	None	1
2.7	2015_May_07_1535	s	s	6	4	Capacity	25	ABS	1	0	08VC 16MC	0	1	2.34855794907	None	None	None	None	1
2.7	2015_May_07_1535	s	s	6	4	Capacity	26	ABS	2	0	16VC 08MC	0	1	4.13995289803	None	None	None	None	1
2.7	2015_May_07_1535	s	s	6	4	Capacity	27	RC	2	0	15VC 08MC	1	0	1.348072052	-512.0	-362.0	-509	-356	1
2.7	2015_May_07_1535	s	s	6	4	Capacity	28	RC	1	0	08VC 15MC	1	0	1.05229902267	-429.0	-300.0	-428	-294	1
2.7	2015_May_07_1535	s	s	6	4	Capacity	29	ABS	2	0	16VC 08MC	0	1	2.0121409893	None	None	None	None	1
2.7	2015_May_07_1535	s	s	6	4	Capacity	30	RC	2	0	15VC 08MC	1	0	0.983217954636	-161.0	-293.0	-167	-294	1
2.7	2015_May_07_1535	s	s	6	4	Capacity	31	ABS	1	0	08VC 16MC	0	1	2.50145792961	None	None	None	None	1
2.7	2015_May_07_1535	s	s	6	4	Capacity	32	RC	1	0	08VC 15MC	1	0	1.32951307297	461.0	-192.0	457	-189	1
2.7	2015_May_07_1535	s	s	6	4	Capacity	33	ABS	2	0	16VC 08MC	0	1	3.90429806709	None	None	None	None	1
2.7	2015_May_07_1535	s	s	6	4	Capacity	34	RC	2	0	15VC 08MC	1	0	0.653160095215	-143.0	127.0	-142	126	1
2.7	2015_May_07_1535	s	s	6	4	Capacity	35	RC	1	0	08VC 15MC	1	0	0.678572177887	122.0	-262.0	129	-268	1
2.7	2015_May_07_1535	s	s	6	4	Capacity	36	ABS	1	0	08VC 16MC	0	1	2.53002309799	None	None	None	None	1
2.7	2015_May_07_1535	s	s	6	4	Capacity	37	RC	1	0	08VC 15MC	1	0	0.984798908234	280.0	-110.0	284	-111	1
2.7	2015_May_07_1535	s	s	6	4	Capacity	38	ABS	2	0	16VC 08MC	0	1	3.31368684769	None	None	None	None	1
2.7	2015_May_07_1535	s	s	6	4	Capacity	39	ABS	1	0	08VC 16MC	0	1	4.04367780685	None	None	None	None	1
2.7	2015_May_07_1535	s	s	6	4	Capacity	40	RC	2	0	15VC 08MC	1	0	1.24703001976	346.0	-326.0	350	-318	1
2.7	2015_May_07_1535	s	s	6	4	Capacity	41	RC	1	0	08VC 15MC	1	0	0.746915817261	-315.0	322.0	-313	316	1
2.7	2015_May_07_1535	s	s	6	4	Capacity	42	RC	2	0	15VC 08MC	1	0	0.823292016983	-497.0	233.0	-500	227	1
2.7	2015_May_07_1535	s	s	6	4	Capacity	43	ABS	1	0	08VC 16MC	0	1	1.97683286667	None	None	None	None	1
2.7	2015_May_07_1535	s	s	6	4	Capacity	44	ABS	2	0	16VC 08MC	0	1	3.07644915581	None	None	None	None	1
2.7	2015_May_07_1535	s	s	6	4	Capacity	45	RC	2	0	15VC 08MC	1	0	0.947664022446	-294.0	-338.0	-287	-343	1
2.7	2015_May_07_1535	s	s	6	4	Capacity	46	ABS	1	0	08VC 16MC	0	1	2.25935101509	None	None	None	None	1
2.7	2015_May_07_1535	s	s	6	4	Capacity	47	RC	1	0	08VC 15MC	1	0	0.759437799454	-85.0	229.0	-95	238	1
2.7	2015_May_07_1535	s	s	6	4	Capacity	48	ABS	2	0	16VC 08MC	0	1	1.91794085503	None	None	None	None	1
2.7	2015_May_07_1535	s	s	6	4	Capacity	49	RC	1	0	08VC 15MC	1	0	0.759232997894	-149.0	216.0	-152	217	1
2.7	2015_May_07_1535	s	s	6	4	Capacity	50	RC	2	0	15VC 08MC	1	0	1.27062892914	4.0	131.0	7	129	1
2.7	2015_May_07_1535	s	s	6	4	Capacity	51	ABS	2	0	16VC 08MC	0	1	1.58326411247	None	None	None	None	1
2.7	2015_May_07_1535	s	s	6	4	Capacity	52	ABS	1	0	08VC 16MC	0	1	3.07937097549	None	None	None	None	1
2.7	2015_May_07_1535	s	s	6	4	Capacity	53	RC	1	0	08VC 15MC	1	0	0.641674041748	56.0	-183.0	50	-175	1
2.7	2015_May_07_1535	s	s	6	4	Capacity	54	RC	2	0	15VC 08MC	1	0	0.702924966812	165.0	-131.0	176	-126	1
2.7	2015_May_07_1535	s	s	6	4	Capacity	55	ABS	2	0	16VC 08MC	0	1	2.47120499611	None	None	None	None	1
2.7	2015_May_07_1535	s	s	6	4	Capacity	56	ABS	1	0	08VC 16MC	0	1	2.7852499485	None	None	None	None	1
2.7	2015_May_07_1535	s	s	6	4	Capacity	57	RC	2	0	15VC 08MC	1	0	0.630126953125	-130.0	-240.0	-141	-233	1
2.7	2015_May_07_1535	s	s	6	4	Capacity	58	RC	1	0	08VC 15MC	1	0	1.73633098602	88.0	-285.0	87	-279	1
2.7	2015_May_07_1535	s	s	6	4	Capacity	59	ABS	1	0	08VC 16MC	0	1	2.14153814316	None	None	None	None	1
2.7	2015_May_07_1535	s	s	6	4	Capacity	60	ABS	2	0	16VC 08MC	0	1	2.45419096947	None	None	None	None	1
2.7	2015_May_07_1535	s	s	6	4	Capacity	61	RC	1	0	08VC 15MC	1	0	0.635023832321	82.0	38.0	79	25	1
2.7	2015_May_07_1535	s	s	6	4	Capacity	62	ABS	2	0	16VC 08MC	0	1	1.5249171257	None	None	None	None	1
2.7	2015_May_07_1535	s	s	6	4	Capacity	63	RC	2	0	15VC 08MC	1	0	0.882173061371	-501.0	221.0	-500	221	1
2.7	2015_May_07_1535	s	s	6	4	Capacity	64	ABS	1	0	08VC 16MC	0	1	2.06614899635	None	None	None	None	1
2.7	2015_May_07_1535	s	s	6	4	SIC	1	RC	1	0	02VD 02VO 02VC 02MD 02MO 09MC 02RD 02RO	1	0	1.4541618824	300.0	-199.0	303	-191	1
2.7	2015_May_07_1535	s	s	6	4	SIC	2	ABS	1	1	02VD 02VO 02VC 02MD 10MO 02MC 02RD 02RO	0	1	2.95375585556	None	None	None	None	1
2.7	2015_May_07_1535	s	s	6	4	SIC	3	ABS	1	0	02VD 02VO 02VC 02MD 02MO 10MC 02RD 02RO	0	1	2.42433786392	None	None	None	None	1
2.7	2015_May_07_1535	s	s	6	4	SIC	4	ABS	0	1	02VD 02VO 02VC 02MD 02MO 02MC 02RD 10RO	0	1	3.61292910576	None	None	None	None	1
2.7	2015_May_07_1535	s	s	6	4	SIC	5	RC	2	1	02VD 09VO 02VC 02MD 02MO 02MC 02RD 02RO	1	0	0.964455127716	290.0	227.0	285	225	1
2.7	2015_May_07_1535	s	s	6	4	SIC	6	ABS	2	2	10VD 02VO 02VC 02MD 02MO 02MC 02RD 02RO	0	1	1.98854994774	None	None	None	None	1
2.7	2015_May_07_1535	s	s	6	4	SIC	7	RC	0	2	02VD 02VO 02VC 02MD 02MO 02MC 09RD 02RO	1	0	0.89391207695	432.0	-76.0	429	-73	1
2.7	2015_May_07_1535	s	s	6	4	SIC	8	ABS	2	1	02VD 10VO 02VC 02MD 02MO 02MC 02RD 02RO	0	1	2.05443120003	None	None	None	None	1
2.7	2015_May_07_1535	s	s	6	4	SIC	9	RC	1	1	02VD 02VO 02VC 02MD 09MO 02MC 02RD 02RO	1	0	1.48245310783	-191.0	-276.0	-193	-271	1
2.7	2015_May_07_1535	s	s	6	4	SIC	10	RC	0	1	02VD 02VO 02VC 02MD 02MO 02MC 02RD 09RO	1	0	0.952824115753	-235.0	-80.0	-236	-77	1
2.7	2015_May_07_1535	s	s	6	4	SIC	11	RC	1	2	02VD 02VO 02VC 09MD 02MO 02MC 02RD 02RO	1	0	1.33614778519	13.0	-340.0	14	-348	1
2.7	2015_May_07_1535	s	s	6	4	SIC	12	ABS	2	0	02VD 02VO 10VC 02MD 02MO 02MC 02RD 02RO	0	1	1.96010494232	None	None	None	None	1
2.7	2015_May_07_1535	s	s	6	4	SIC	13	RC	2	0	02VD 02VO 09VC 02MD 02MO 02MC 02RD 02RO	1	0	0.870431900024	-109.0	81.0	-104	80	1
2.7	2015_May_07_1535	s	s	6	4	SIC	14	ABS	0	2	02VD 02VO 02VC 02MD 02MO 02MC 10RD 02RO	0	1	2.01904916763	None	None	None	None	1
2.7	2015_May_07_1535	s	s	6	4	SIC	15	RC	2	2	09VD 02VO 02VC 02MD 02MO 02MC 02RD 02RO	1	0	0.972897052765	-402.0	51.0	-393	47	1
2.7	2015_May_07_1535	s	s	6	4	SIC	16	ABS	1	2	02VD 02VO 02VC 10MD 02MO 02MC 02RD 02RO	0	1	1.63053703308	None	None	None	None	1
2.7	2015_May_07_1535	s	s	6	4	SIC	17	ABS	2	1	02VD 10VO 02VC 02MD 02MO 02MC 02RD 02RO	0	1	2.18604707718	None	None	None	None	1
2.7	2015_May_07_1535	s	s	6	4	SIC	18	RC	0	1	02VD 02VO 02VC 02MD 02MO 02MC 02RD 09RO	1	0	3.52563309669	414.0	-222.0	420	-213	1
2.7	2015_May_07_1535	s	s	6	4	SIC	19	RC	2	1	02VD 09VO 02VC 02MD 02MO 02MC 02RD 02RO	1	0	0.667817115784	309.0	35.0	307	36	1
2.7	2015_May_07_1535	s	s	6	4	SIC	20	ABS	2	2	10VD 02VO 02VC 02MD 02MO 02MC 02RD 02RO	0	1	2.22396492958	None	None	None	None	1
2.7	2015_May_07_1535	s	s	6	4	SIC	21	ABS	1	1	02VD 02VO 02VC 02MD 10MO 02MC 02RD 02RO	0	1	2.22836303711	None	None	None	None	1
2.7	2015_May_07_1535	s	s	6	4	SIC	22	ABS	1	0	02VD 02VO 02VC 02MD 02MO 10MC 02RD 02RO	0	1	2.85964179039	None	None	None	None	1
2.7	2015_May_07_1535	s	s	6	4	SIC	23	ABS	0	2	02VD 02VO 02VC 02MD 02MO 02MC 10RD 02RO	0	1	2.23574781418	None	None	None	None	1
2.7	2015_May_07_1535	s	s	6	4	SIC	24	RC	1	0	02VD 02VO 02VC 02MD 02MO 09MC 02RD 02RO	1	0	0.92410993576	-188.0	-148.0	-187	-141	1
2.7	2015_May_07_1535	s	s	6	4	SIC	25	ABS	0	1	02VD 02VO 02VC 02MD 02MO 02MC 02RD 10RO	0	1	4.44454288483	None	None	None	None	1
2.7	2015_May_07_1535	s	s	6	4	SIC	26	RC	1	2	02VD 02VO 02VC 09MD 02MO 02MC 02RD 02RO	1	0	1.02360892296	-207.0	-197.0	-202	-202	1
2.7	2015_May_07_1535	s	s	6	4	SIC	27	RC	1	1	02VD 02VO 02VC 02MD 09MO 02MC 02RD 02RO	1	0	0.929315090179	426.0	190.0	427	189	1
2.7	2015_May_07_1535	s	s	6	4	SIC	28	RC	0	2	02VD 02VO 02VC 02MD 02MO 02MC 09RD 02RO	1	0	1.80029010773	276.0	-247.0	271	-242	1
2.7	2015_May_07_1535	s	s	6	4	SIC	29	ABS	1	2	02VD 02VO 02VC 10MD 02MO 02MC 02RD 02RO	0	1	1.65903902054	None	None	None	None	1
2.7	2015_May_07_1535	s	s	6	4	SIC	30	RC	2	2	09VD 02VO 02VC 02MD 02MO 02MC 02RD 02RO	1	0	1.08223700523	-406.0	192.0	-398	187	1
2.7	2015_May_07_1535	s	s	6	4	SIC	31	RC	2	0	02VD 02VO 09VC 02MD 02MO 02MC 02RD 02RO	1	0	0.729157924652	-178.0	258.0	-171	252	1
2.7	2015_May_07_1535	s	s	6	4	SIC	32	ABS	2	0	02VD 02VO 10VC 02MD 02MO 02MC 02RD 02RO	0	1	1.93874406815	None	None	None	None	1
2.7	2015_May_07_1535	s	s	6	4	SIC	33	ABS	2	2	10VD 02VO 02VC 02MD 02MO 02MC 02RD 02RO	0	1	2.0894100666	None	None	None	None	1
2.7	2015_May_07_1535	s	s	6	4	SIC	34	ABS	0	2	02VD 02VO 02VC 02MD 02MO 02MC 10RD 02RO	0	1	1.94516706467	None	None	None	None	1
2.7	2015_May_07_1535	s	s	6	4	SIC	35	ABS	1	1	02VD 02VO 02VC 02MD 10MO 02MC 02RD 02RO	0	1	2.67132902145	None	None	None	None	1
2.7	2015_May_07_1535	s	s	6	4	SIC	36	RC	2	2	09VD 02VO 02VC 02MD 02MO 02MC 02RD 02RO	1	0	0.817887067795	-376.0	-56.0	-380	-66	1
2.7	2015_May_07_1535	s	s	6	4	SIC	37	RC	1	2	02VD 02VO 02VC 09MD 02MO 02MC 02RD 02RO	1	0	1.12933778763	-292.0	236.0	-288	235	1
2.7	2015_May_07_1535	s	s	6	4	SIC	38	RC	1	1	02VD 02VO 02VC 02MD 09MO 02MC 02RD 02RO	1	0	1.05876207352	-244.0	195.0	-253	198	1
2.7	2015_May_07_1535	s	s	6	4	SIC	39	RC	2	0	02VD 02VO 09VC 02MD 02MO 02MC 02RD 02RO	1	0	0.682038068771	215.0	121.0	208	122	1
2.7	2015_May_07_1535	s	s	6	4	SIC	40	RC	2	1	02VD 09VO 02VC 02MD 02MO 02MC 02RD 02RO	1	0	0.690502882004	62.0	-10.0	53	-8	1
2.7	2015_May_07_1535	s	s	6	4	SIC	41	ABS	1	2	02VD 02VO 02VC 10MD 02MO 02MC 02RD 02RO	0	1	1.6119890213	None	None	None	None	1
2.7	2015_May_07_1535	s	s	6	4	SIC	42	RC	0	1	02VD 02VO 02VC 02MD 02MO 02MC 02RD 09RO	1	0	2.09009599686	-328.0	29.0	-325	25	1
2.7	2015_May_07_1535	s	s	6	4	SIC	43	ABS	0	1	02VD 02VO 02VC 02MD 02MO 02MC 02RD 10RO	0	1	3.61294102669	None	None	None	None	1
2.7	2015_May_07_1535	s	s	6	4	SIC	44	ABS	2	1	02VD 10VO 02VC 02MD 02MO 02MC 02RD 02RO	0	1	1.75299882889	None	None	None	None	1
2.7	2015_May_07_1535	s	s	6	4	SIC	45	RC	1	0	02VD 02VO 02VC 02MD 02MO 09MC 02RD 02RO	1	0	1.91803002357	130.0	-341.0	117	-333	1
2.7	2015_May_07_1535	s	s	6	4	SIC	46	ABS	1	0	02VD 02VO 02VC 02MD 02MO 10MC 02RD 02RO	0	1	2.12647294998	None	None	None	None	1
2.7	2015_May_07_1535	s	s	6	4	SIC	47	RC	0	2	02VD 02VO 02VC 02MD 02MO 02MC 09RD 02RO	1	0	0.882177114487	45.0	-149.0	31	-140	1
2.7	2015_May_07_1535	s	s	6	4	SIC	48	ABS	2	0	02VD 02VO 10VC 02MD 02MO 02MC 02RD 02RO	0	1	1.6776330471	None	None	None	None	1
2.7	2015_May_07_1535	s	s	6	4	SIC	49	ABS	1	2	02VD 02VO 02VC 10MD 02MO 02MC 02RD 02RO	0	1	1.53658103943	None	None	None	None	1
2.7	2015_May_07_1535	s	s	6	4	SIC	50	RC	0	1	02VD 02VO 02VC 02MD 02MO 02MC 02RD 09RO	1	0	1.1411690712	311.0	179.0	302	176	1
2.7	2015_May_07_1535	s	s	6	4	SIC	51	ABS	1	1	02VD 02VO 02VC 02MD 10MO 02MC 02RD 02RO	0	1	1.8681139946	None	None	None	None	1
2.7	2015_May_07_1535	s	s	6	4	SIC	52	ABS	2	1	02VD 10VO 02VC 02MD 02MO 02MC 02RD 02RO	0	1	2.16252994537	None	None	None	None	1
2.7	2015_May_07_1535	s	s	6	4	SIC	53	ABS	0	1	02VD 02VO 02VC 02MD 02MO 02MC 02RD 10RO	0	1	3.98675608635	None	None	None	None	1
2.7	2015_May_07_1535	s	s	6	4	SIC	54	ABS	1	0	02VD 02VO 02VC 02MD 02MO 10MC 02RD 02RO	0	1	3.67184305191	None	None	None	None	1
2.7	2015_May_07_1535	s	s	6	4	SIC	55	RC	1	2	02VD 02VO 02VC 09MD 02MO 02MC 02RD 02RO	1	0	1.1808180809	-270.0	328.0	-265	335	1
2.7	2015_May_07_1535	s	s	6	4	SIC	56	RC	2	0	02VD 02VO 09VC 02MD 02MO 02MC 02RD 02RO	1	0	1.65903496742	-163.0	-408.0	-166	-410	1
2.7	2015_May_07_1535	s	s	6	4	SIC	57	ABS	2	0	02VD 02VO 10VC 02MD 02MO 02MC 02RD 02RO	0	1	1.91822910309	None	None	None	None	1
2.7	2015_May_07_1535	s	s	6	4	SIC	58	RC	2	1	02VD 09VO 02VC 02MD 02MO 02MC 02RD 02RO	1	0	0.771730899811	174.0	208.0	170	214	1
2.7	2015_May_07_1535	s	s	6	4	SIC	59	ABS	2	2	10VD 02VO 02VC 02MD 02MO 02MC 02RD 02RO	0	1	1.51814413071	None	None	None	None	1
2.7	2015_May_07_1535	s	s	6	4	SIC	60	ABS	0	2	02VD 02VO 02VC 02MD 02MO 02MC 10RD 02RO	0	1	2.33680200577	None	None	None	None	1
2.7	2015_May_07_1535	s	s	6	4	SIC	61	RC	2	2	09VD 02VO 02VC 02MD 02MO 02MC 02RD 02RO	1	0	0.877599954605	350.0	214.0	349	200	1
2.7	2015_May_07_1535	s	s	6	4	SIC	62	RC	1	1	02VD 02VO 02VC 02MD 09MO 02MC 02RD 02RO	1	0	0.658562898636	-57.0	-214.0	-54	-212	1
2.7	2015_May_07_1535	s	s	6	4	SIC	63	RC	0	2	02VD 02VO 02VC 02MD 02MO 02MC 09RD 02RO	1	0	1.39996790886	409.0	-225.0	413	-226	1
2.7	2015_May_07_1535	s	s	6	4	SIC	64	RC	1	0	02VD 02VO 02VC 02MD 02MO 09MC 02RD 02RO	1	0	2.35345292091	-437.0	-322.0	-436	-317	1
2.7	2015_May_07_1535	s	s	6	4	SIC	65	RC	0	1	02VD 02VO 02VC 02MD 02MO 02MC 02RD 09RO	1	0	0.552581071854	58.0	-26.0	56	-33	1
2.7	2015_May_07_1535	s	s	6	4	SIC	66	ABS	0	1	02VD 02VO 02VC 02MD 02MO 02MC 02RD 10RO	0	1	3.2752161026	None	None	None	None	1
2.7	2015_May_07_1535	s	s	6	4	SIC	67	ABS	1	0	02VD 02VO 02VC 02MD 02MO 10MC 02RD 02RO	0	1	2.45290589333	None	None	None	None	1
2.7	2015_May_07_1535	s	s	6	4	SIC	68	RC	2	0	02VD 02VO 09VC 02MD 02MO 02MC 02RD 02RO	1	0	0.972701072693	-101.0	-134.0	-117	-125	1
2.7	2015_May_07_1535	s	s	6	4	SIC	69	RC	2	1	02VD 09VO 02VC 02MD 02MO 02MC 02RD 02RO	1	0	0.576132059097	-50.0	81.0	-49	79	1
2.7	2015_May_07_1535	s	s	6	4	SIC	70	RC	1	2	02VD 02VO 02VC 09MD 02MO 02MC 02RD 02RO	1	0	0.846727132797	50.0	351.0	47	351	1
2.7	2015_May_07_1535	s	s	6	4	SIC	71	ABS	1	2	02VD 02VO 02VC 10MD 02MO 02MC 02RD 02RO	0	1	1.75304603577	None	None	None	None	1
2.7	2015_May_07_1535	s	s	6	4	SIC	72	RC	1	1	02VD 02VO 02VC 02MD 09MO 02MC 02RD 02RO	1	0	0.635009050369	399.0	21.0	397	16	1
2.7	2015_May_07_1535	s	s	6	4	SIC	73	ABS	2	0	02VD 02VO 10VC 02MD 02MO 02MC 02RD 02RO	0	1	1.6588408947	None	None	None	None	1
2.7	2015_May_07_1535	s	s	6	4	SIC	74	ABS	2	1	02VD 10VO 02VC 02MD 02MO 02MC 02RD 02RO	0	1	2.2876470089	None	None	None	None	1
2.7	2015_May_07_1535	s	s	6	4	SIC	75	RC	2	2	09VD 02VO 02VC 02MD 02MO 02MC 02RD 02RO	1	0	1.11181688309	534.0	-38.0	522	-33	1
2.7	2015_May_07_1535	s	s	6	4	SIC	76	RC	1	0	02VD 02VO 02VC 02MD 02MO 09MC 02RD 02RO	1	0	0.670323848724	118.0	-257.0	123	-263	1
2.7	2015_May_07_1535	s	s	6	4	SIC	77	ABS	2	2	10VD 02VO 02VC 02MD 02MO 02MC 02RD 02RO	0	1	2.66864895821	None	None	None	None	1
2.7	2015_May_07_1535	s	s	6	4	SIC	78	ABS	1	1	02VD 02VO 02VC 02MD 10MO 02MC 02RD 02RO	0	1	2.61923003197	None	None	None	None	1
2.7	2015_May_07_1535	s	s	6	4	SIC	79	RC	0	2	02VD 02VO 02VC 02MD 02MO 02MC 09RD 02RO	1	0	1.02348518372	203.0	-257.0	212	-261	1
2.7	2015_May_07_1535	s	s	6	4	SIC	80	ABS	0	2	02VD 02VO 02VC 02MD 02MO 02MC 10RD 02RO	0	1	2.39704203606	None	None	None	None	1
2.7	2015_May_07_1535	s	s	6	4	SIC	81	ABS	2	0	02VD 02VO 10VC 02MD 02MO 02MC 02RD 02RO	0	1	1.85916996002	None	None	None	None	1
2.7	2015_May_07_1535	s	s	6	4	SIC	82	RC	2	0	02VD 02VO 09VC 02MD 02MO 02MC 02RD 02RO	1	0	0.817801952362	53.0	266.0	60	267	1
2.7	2015_May_07_1535	s	s	6	4	SIC	83	ABS	1	0	02VD 02VO 02VC 02MD 02MO 10MC 02RD 02RO	0	1	2.56533789635	None	None	None	None	1
2.7	2015_May_07_1535	s	s	6	4	SIC	84	RC	2	1	02VD 09VO 02VC 02MD 02MO 02MC 02RD 02RO	1	0	1.12417793274	-475.0	273.0	-474	269	1
2.7	2015_May_07_1535	s	s	6	4	SIC	85	RC	0	2	02VD 02VO 02VC 02MD 02MO 02MC 09RD 02RO	1	0	1.9708468914	-475.0	284.0	-478	283	1
2.7	2015_May_07_1535	s	s	6	4	SIC	86	RC	2	2	09VD 02VO 02VC 02MD 02MO 02MC 02RD 02RO	1	0	0.835036993027	403.0	157.0	396	152	1
2.7	2015_May_07_1535	s	s	6	4	SIC	87	RC	1	2	02VD 02VO 02VC 09MD 02MO 02MC 02RD 02RO	1	0	0.665326833725	211.0	17.0	200	19	1
2.7	2015_May_07_1535	s	s	6	4	SIC	88	ABS	0	1	02VD 02VO 02VC 02MD 02MO 02MC 02RD 10RO	0	1	3.40108513832	None	None	None	None	1
2.7	2015_May_07_1535	s	s	6	4	SIC	89	RC	1	0	02VD 02VO 02VC 02MD 02MO 09MC 02RD 02RO	1	0	1.20665597916	-214.0	1.0	-212	2	1
2.7	2015_May_07_1535	s	s	6	4	SIC	90	ABS	2	2	10VD 02VO 02VC 02MD 02MO 02MC 02RD 02RO	0	1	1.58342599869	None	None	None	None	1
2.7	2015_May_07_1535	s	s	6	4	SIC	91	ABS	0	2	02VD 02VO 02VC 02MD 02MO 02MC 10RD 02RO	0	1	1.71787810326	None	None	None	None	1
2.7	2015_May_07_1535	s	s	6	4	SIC	92	ABS	2	1	02VD 10VO 02VC 02MD 02MO 02MC 02RD 02RO	0	1	2.51831483841	None	None	None	None	1
2.7	2015_May_07_1535	s	s	6	4	SIC	93	RC	0	1	02VD 02VO 02VC 02MD 02MO 02MC 02RD 09RO	1	0	1.85398197174	379.0	-331.0	383	-335	1
2.7	2015_May_07_1535	s	s	6	4	SIC	94	ABS	1	1	02VD 02VO 02VC 02MD 10MO 02MC 02RD 02RO	0	1	2.57357096672	None	None	None	None	1
2.7	2015_May_07_1535	s	s	6	4	SIC	95	ABS	1	2	02VD 02VO 02VC 10MD 02MO 02MC 02RD 02RO	0	1	2.153414011	None	None	None	None	1
2.7	2015_May_07_1535	s	s	6	4	SIC	96	RC	1	1	02VD 02VO 02VC 02MD 09MO 02MC 02RD 02RO	1	0	0.641814947128	-187.0	135.0	-177	138	1
2.7	2015_May_07_1535	s	s	6	4	SIC	97	RC	0	1	02VD 02VO 02VC 02MD 02MO 02MC 02RD 09RO	1	0	1.717856884	30.0	-242.0	26	-244	1
2.7	2015_May_07_1535	s	s	6	4	SIC	98	RC	1	2	02VD 02VO 02VC 09MD 02MO 02MC 02RD 02RO	1	0	1.39551210403	377.0	127.0	382	126	1
2.7	2015_May_07_1535	s	s	6	4	SIC	99	RC	0	2	02VD 02VO 02VC 02MD 02MO 02MC 09RD 02RO	1	0	0.711642980576	-101.0	-119.0	-105	-118	1
2.7	2015_May_07_1535	s	s	6	4	SIC	100	ABS	2	0	02VD 02VO 10VC 02MD 02MO 02MC 02RD 02RO	0	1	1.61952805519	None	None	None	None	1
2.7	2015_May_07_1535	s	s	6	4	SIC	101	RC	1	1	02VD 02VO 02VC 02MD 09MO 02MC 02RD 02RO	1	0	1.07660293579	-237.0	-252.0	-244	-251	1
2.7	2015_May_07_1535	s	s	6	4	SIC	102	ABS	0	2	02VD 02VO 02VC 02MD 02MO 02MC 10RD 02RO	0	1	2.96268892288	None	None	None	None	1
2.7	2015_May_07_1535	s	s	6	4	SIC	103	ABS	1	1	02VD 02VO 02VC 02MD 10MO 02MC 02RD 02RO	0	1	3.01623606682	None	None	None	None	1
2.7	2015_May_07_1535	s	s	6	4	SIC	104	RC	2	2	09VD 02VO 02VC 02MD 02MO 02MC 02RD 02RO	1	0	1.11403489113	452.0	-53.0	443	-43	1
2.7	2015_May_07_1535	s	s	6	4	SIC	105	ABS	1	2	02VD 02VO 02VC 10MD 02MO 02MC 02RD 02RO	0	1	1.67075300217	None	None	None	None	1
2.7	2015_May_07_1535	s	s	6	4	SIC	106	RC	2	1	02VD 09VO 02VC 02MD 02MO 02MC 02RD 02RO	1	0	0.91742682457	273.0	255.0	273	246	1
2.7	2015_May_07_1535	s	s	6	4	SIC	107	ABS	0	1	02VD 02VO 02VC 02MD 02MO 02MC 02RD 10RO	0	1	3.30193591118	None	None	None	None	1
2.7	2015_May_07_1535	s	s	6	4	SIC	108	RC	2	0	02VD 02VO 09VC 02MD 02MO 02MC 02RD 02RO	1	0	1.29399108887	321.0	213.0	322	216	1
2.7	2015_May_07_1535	s	s	6	4	SIC	109	RC	1	0	02VD 02VO 02VC 02MD 02MO 09MC 02RD 02RO	1	0	1.52954006195	-424.0	-242.0	-416	-244	1
2.7	2015_May_07_1535	s	s	6	4	SIC	110	ABS	2	1	02VD 10VO 02VC 02MD 02MO 02MC 02RD 02RO	0	1	1.64726305008	None	None	None	None	1
2.7	2015_May_07_1535	s	s	6	4	SIC	111	ABS	1	0	02VD 02VO 02VC 02MD 02MO 10MC 02RD 02RO	0	1	4.83194613457	None	None	None	None	1
2.7	2015_May_07_1535	s	s	6	4	SIC	112	ABS	2	2	10VD 02VO 02VC 02MD 02MO 02MC 02RD 02RO	0	1	2.57713603973	None	None	None	None	1
2.7	2015_May_07_1535	s	s	6	4	SIC	113	ABS	2	2	10VD 02VO 02VC 02MD 02MO 02MC 02RD 02RO	0	1	3.28339886665	None	None	None	None	1
2.7	2015_May_07_1535	s	s	6	4	SIC	114	RC	0	1	02VD 02VO 02VC 02MD 02MO 02MC 02RD 09RO	1	0	0.976263046265	341.0	101.0	342	106	1
2.7	2015_May_07_1535	s	s	6	4	SIC	115	ABS	1	2	02VD 02VO 02VC 10MD 02MO 02MC 02RD 02RO	0	1	2.17194199562	None	None	None	None	1
2.7	2015_May_07_1535	s	s	6	4	SIC	116	RC	2	0	02VD 02VO 09VC 02MD 02MO 02MC 02RD 02RO	1	0	0.723619937897	-78.0	250.0	-67	250	1
2.7	2015_May_07_1535	s	s	6	4	SIC	117	ABS	2	1	02VD 10VO 02VC 02MD 02MO 02MC 02RD 02RO	0	1	1.80702400208	None	None	None	None	1
2.7	2015_May_07_1535	s	s	6	4	SIC	118	ABS	0	2	02VD 02VO 02VC 02MD 02MO 02MC 10RD 02RO	0	1	2.36527299881	None	None	None	None	1
2.7	2015_May_07_1535	s	s	6	4	SIC	119	RC	2	2	09VD 02VO 02VC 02MD 02MO 02MC 02RD 02RO	1	0	0.917351961136	-397.0	199.0	-392	201	1
2.7	2015_May_07_1535	s	s	6	4	SIC	120	RC	1	0	02VD 02VO 02VC 02MD 02MO 09MC 02RD 02RO	1	0	3.46012592316	-403.0	9.0	-413	15	1
2.7	2015_May_07_1535	s	s	6	4	SIC	121	RC	1	1	02VD 02VO 02VC 02MD 09MO 02MC 02RD 02RO	1	0	0.599682092667	51.0	90.0	59	89	1
2.7	2015_May_07_1535	s	s	6	4	SIC	122	RC	1	2	02VD 02VO 02VC 09MD 02MO 02MC 02RD 02RO	1	0	1.10081481934	212.0	-211.0	208	-207	1
2.7	2015_May_07_1535	s	s	6	4	SIC	123	ABS	1	1	02VD 02VO 02VC 02MD 10MO 02MC 02RD 02RO	0	1	2.21230196953	None	None	None	None	1
2.7	2015_May_07_1535	s	s	6	4	SIC	124	ABS	0	1	02VD 02VO 02VC 02MD 02MO 02MC 02RD 10RO	0	1	3.66666698456	None	None	None	None	1
2.7	2015_May_07_1535	s	s	6	4	SIC	125	RC	2	1	02VD 09VO 02VC 02MD 02MO 02MC 02RD 02RO	1	0	1.2189040184	-10.0	-390.0	1	-381	1
2.7	2015_May_07_1535	s	s	6	4	SIC	126	RC	0	2	02VD 02VO 02VC 02MD 02MO 02MC 09RD 02RO	1	0	1.90053701401	-164.0	354.0	-166	350	1
2.7	2015_May_07_1535	s	s	6	4	SIC	127	ABS	1	0	02VD 02VO 02VC 02MD 02MO 10MC 02RD 02RO	0	1	3.83173680305	None	None	None	None	1
2.7	2015_May_07_1535	s	s	6	4	SIC	128	ABS	2	0	02VD 02VO 10VC 02MD 02MO 02MC 02RD 02RO	0	1	3.00772714615	None	None	None	None	1
2.7	2015_May_07_1535	s	s	6	4	SIC	129	RC	0	1	02VD 02VO 02VC 02MD 02MO 02MC 02RD 09RO	1	0	2.23578500748	-119.0	-353.0	-111	-356	1
2.7	2015_May_07_1535	s	s	6	4	SIC	130	ABS	0	2	02VD 02VO 02VC 02MD 02MO 02MC 10RD 02RO	0	1	1.9889690876	None	None	None	None	1
2.7	2015_May_07_1535	s	s	6	4	SIC	131	ABS	1	2	02VD 02VO 02VC 10MD 02MO 02MC 02RD 02RO	0	1	2.10131788254	None	None	None	None	1
2.7	2015_May_07_1535	s	s	6	4	SIC	132	ABS	2	1	02VD 10VO 02VC 02MD 02MO 02MC 02RD 02RO	0	1	2.49475502968	None	None	None	None	1
2.7	2015_May_07_1535	s	s	6	4	SIC	133	ABS	2	2	10VD 02VO 02VC 02MD 02MO 02MC 02RD 02RO	0	1	2.50654101372	None	None	None	None	1
2.7	2015_May_07_1535	s	s	6	4	SIC	134	RC	2	2	09VD 02VO 02VC 02MD 02MO 02MC 02RD 02RO	1	0	1.22347998619	290.0	110.0	293	118	1
2.7	2015_May_07_1535	s	s	6	4	SIC	135	RC	1	1	02VD 02VO 02VC 02MD 09MO 02MC 02RD 02RO	1	0	0.699773073196	246.0	-22.0	241	-25	1
2.7	2015_May_07_1535	s	s	6	4	SIC	136	RC	0	2	02VD 02VO 02VC 02MD 02MO 02MC 09RD 02RO	1	0	1.1012198925	36.0	-372.0	29	-373	1
2.7	2015_May_07_1535	s	s	6	4	SIC	137	ABS	1	0	02VD 02VO 02VC 02MD 02MO 10MC 02RD 02RO	0	1	3.77227306366	None	None	None	None	1
2.7	2015_May_07_1535	s	s	6	4	SIC	138	ABS	1	1	02VD 02VO 02VC 02MD 10MO 02MC 02RD 02RO	0	1	3.63655304909	None	None	None	None	1
2.7	2015_May_07_1535	s	s	6	4	SIC	139	RC	1	0	02VD 02VO 02VC 02MD 02MO 09MC 02RD 02RO	1	0	1.17686486244	358.0	-197.0	365	-204	1
2.7	2015_May_07_1535	s	s	6	4	SIC	140	RC	2	1	02VD 09VO 02VC 02MD 02MO 02MC 02RD 02RO	1	0	1.00586009026	-315.0	-334.0	-327	-325	1
2.7	2015_May_07_1535	s	s	6	4	SIC	141	ABS	2	0	02VD 02VO 10VC 02MD 02MO 02MC 02RD 02RO	0	1	0.135954856873	None	None	None	None	1
2.7	2015_May_07_1535	s	s	6	4	SIC	142	ABS	0	1	02VD 02VO 02VC 02MD 02MO 02MC 02RD 10RO	0	1	4.13759899139	None	None	None	None	1
2.7	2015_May_07_1535	s	s	6	4	SIC	143	RC	1	2	02VD 02VO 02VC 09MD 02MO 02MC 02RD 02RO	1	0	1.90110206604	90.0	-303.0	87	-301	1
2.7	2015_May_07_1535	s	s	6	4	SIC	144	RC	2	0	02VD 02VO 09VC 02MD 02MO 02MC 02RD 02RO	1	0	0.699772119522	377.0	-28.0	367	-25	1
2.7	2015_May_07_1535	s	s	6	4	SIC	145	ABS	0	2	02VD 02VO 02VC 02MD 02MO 02MC 10RD 02RO	0	1	2.05422711372	None	None	None	None	1
2.7	2015_May_07_1535	s	s	6	4	SIC	146	ABS	2	0	02VD 02VO 10VC 02MD 02MO 02MC 02RD 02RO	0	1	2.76036906242	None	None	None	None	1
2.7	2015_May_07_1535	s	s	6	4	SIC	147	RC	1	1	02VD 02VO 02VC 02MD 09MO 02MC 02RD 02RO	1	0	0.811558961868	-142.0	361.0	-148	369	1
2.7	2015_May_07_1535	s	s	6	4	SIC	148	ABS	2	1	02VD 10VO 02VC 02MD 02MO 02MC 02RD 02RO	0	1	1.88882184029	None	None	None	None	1
2.7	2015_May_07_1535	s	s	6	4	SIC	149	RC	1	2	02VD 02VO 02VC 09MD 02MO 02MC 02RD 02RO	1	0	1.31770086288	-235.0	-200.0	-221	-195	1
2.7	2015_May_07_1535	s	s	6	4	SIC	150	RC	0	2	02VD 02VO 02VC 02MD 02MO 02MC 09RD 02RO	1	0	0.806468963623	-141.0	135.0	-146	135	1
2.7	2015_May_07_1535	s	s	6	4	SIC	151	RC	2	1	02VD 09VO 02VC 02MD 02MO 02MC 02RD 02RO	1	0	0.712277889252	299.0	240.0	302	233	1
2.7	2015_May_07_1535	s	s	6	4	SIC	152	ABS	1	2	02VD 02VO 02VC 10MD 02MO 02MC 02RD 02RO	0	1	2.07109904289	None	None	None	None	1
2.7	2015_May_07_1535	s	s	6	4	SIC	153	RC	2	0	02VD 02VO 09VC 02MD 02MO 02MC 02RD 02RO	1	0	0.65075302124	-16.0	165.0	-14	165	1
2.7	2015_May_07_1535	s	s	6	4	SIC	154	RC	2	2	09VD 02VO 02VC 02MD 02MO 02MC 02RD 02RO	1	0	0.865617990494	-58.0	-274.0	-53	-276	1
2.7	2015_May_07_1535	s	s	6	4	SIC	155	ABS	1	0	02VD 02VO 02VC 02MD 02MO 10MC 02RD 02RO	0	1	3.86703109741	None	None	None	None	1
2.7	2015_May_07_1535	s	s	6	4	SIC	156	ABS	2	2	10VD 02VO 02VC 02MD 02MO 02MC 02RD 02RO	0	1	3.53059101105	None	None	None	None	1
2.7	2015_May_07_1535	s	s	6	4	SIC	157	RC	0	1	02VD 02VO 02VC 02MD 02MO 02MC 02RD 09RO	1	0	1.9536550045	-269.0	212.0	-267	216	1
2.7	2015_May_07_1535	s	s	6	4	SIC	158	RC	1	0	02VD 02VO 02VC 02MD 02MO 09MC 02RD 02RO	1	0	0.999908924103	-269.0	25.0	-277	25	1
2.7	2015_May_07_1535	s	s	6	4	SIC	159	ABS	1	1	02VD 02VO 02VC 02MD 10MO 02MC 02RD 02RO	0	1	3.31372904778	None	None	None	None	1
2.7	2015_May_07_1535	s	s	6	4	SIC	160	ABS	0	1	02VD 02VO 02VC 02MD 02MO 02MC 02RD 10RO	0	1	3.49539995193	None	None	None	None	1
2.7	2015_May_07_1535	s	s	6	4	SIC	161	RC	1	0	02VD 02VO 02VC 02MD 02MO 09MC 02RD 02RO	1	0	1.4540450573	432.0	-330.0	435	-336	1
2.7	2015_May_07_1535	s	s	6	4	SIC	162	ABS	1	1	02VD 02VO 02VC 02MD 10MO 02MC 02RD 02RO	0	1	3.13704109192	None	None	None	None	1
2.7	2015_May_07_1535	s	s	6	4	SIC	163	RC	2	1	02VD 09VO 02VC 02MD 02MO 02MC 02RD 02RO	1	0	1.39468884468	532.0	-66.0	527	-68	1
2.7	2015_May_07_1535	s	s	6	4	SIC	164	ABS	2	0	02VD 02VO 10VC 02MD 02MO 02MC 02RD 02RO	0	1	2.35710597038	None	None	None	None	1
2.7	2015_May_07_1535	s	s	6	4	SIC	165	ABS	2	2	10VD 02VO 02VC 02MD 02MO 02MC 02RD 02RO	0	1	2.45929384232	None	None	None	None	1
2.7	2015_May_07_1535	s	s	6	4	SIC	166	RC	0	1	02VD 02VO 02VC 02MD 02MO 02MC 02RD 09RO	1	0	3.5252931118	536.0	-126.0	530	-122	1
2.7	2015_May_07_1535	s	s	6	4	SIC	167	RC	0	2	02VD 02VO 02VC 02MD 02MO 02MC 09RD 02RO	1	0	1.40022492409	-338.0	164.0	-337	153	1
2.7	2015_May_07_1535	s	s	6	4	SIC	168	ABS	0	1	02VD 02VO 02VC 02MD 02MO 02MC 02RD 10RO	0	1	3.30192399025	None	None	None	None	1
2.7	2015_May_07_1535	s	s	6	4	SIC	169	ABS	1	2	02VD 02VO 02VC 10MD 02MO 02MC 02RD 02RO	0	1	2.41964888573	None	None	None	None	1
2.7	2015_May_07_1535	s	s	6	4	SIC	170	RC	1	1	02VD 02VO 02VC 02MD 09MO 02MC 02RD 02RO	1	0	0.752723932266	-6.0	-55.0	6	-54	1
2.7	2015_May_07_1535	s	s	6	4	SIC	171	ABS	2	1	02VD 10VO 02VC 02MD 02MO 02MC 02RD 02RO	0	1	2.04254102707	None	None	None	None	1
2.7	2015_May_07_1535	s	s	6	4	SIC	172	RC	1	2	02VD 02VO 02VC 09MD 02MO 02MC 02RD 02RO	1	0	0.670465946198	18.0	-125.0	19	-129	1
2.7	2015_May_07_1535	s	s	6	4	SIC	173	ABS	1	0	02VD 02VO 02VC 02MD 02MO 10MC 02RD 02RO	0	1	6.07287788391	None	None	None	None	1
2.7	2015_May_07_1535	s	s	6	4	SIC	174	ABS	0	2	02VD 02VO 02VC 02MD 02MO 02MC 10RD 02RO	0	1	3.45994710922	None	None	None	None	1
2.7	2015_May_07_1535	s	s	6	4	SIC	175	RC	2	2	09VD 02VO 02VC 02MD 02MO 02MC 02RD 02RO	1	0	1.44718194008	-258.0	126.0	-251	124	1
2.7	2015_May_07_1535	s	s	6	4	SIC	176	RC	2	0	02VD 02VO 09VC 02MD 02MO 02MC 02RD 02RO	1	0	0.893882989883	-463.0	389.0	-462	392	1
2.7	2015_May_07_1535	s	s	6	4	SIC	177	ABS	2	2	10VD 02VO 02VC 02MD 02MO 02MC 02RD 02RO	0	1	1.90089583397	None	None	None	None	1
2.7	2015_May_07_1535	s	s	6	4	SIC	178	RC	1	0	02VD 02VO 02VC 02MD 02MO 09MC 02RD 02RO	1	0	0.806627035141	168.0	227.0	176	234	1
2.7	2015_May_07_1535	s	s	6	4	SIC	179	RC	2	1	02VD 09VO 02VC 02MD 02MO 02MC 02RD 02RO	1	0	0.964337825775	-100.0	-175.0	-104	-176	1
2.7	2015_May_07_1535	s	s	6	4	SIC	180	ABS	1	2	02VD 02VO 02VC 10MD 02MO 02MC 02RD 02RO	0	1	2.87140989304	None	None	None	None	1
2.7	2015_May_07_1535	s	s	6	4	SIC	181	RC	1	2	02VD 02VO 02VC 09MD 02MO 02MC 02RD 02RO	1	0	0.611426115036	163.0	211.0	157	215	1
2.7	2015_May_07_1535	s	s	6	4	SIC	182	RC	2	0	02VD 02VO 09VC 02MD 02MO 02MC 02RD 02RO	1	0	1.84732198715	-328.0	-307.0	-338	-305	1
2.7	2015_May_07_1535	s	s	6	4	SIC	183	ABS	1	1	02VD 02VO 02VC 02MD 10MO 02MC 02RD 02RO	0	1	2.84497904778	None	None	None	None	1
2.7	2015_May_07_1535	s	s	6	4	SIC	184	RC	0	1	02VD 02VO 02VC 02MD 02MO 02MC 02RD 09RO	1	0	2.54180502892	-219.0	340.0	-218	345	1
2.7	2015_May_07_1535	s	s	6	4	SIC	185	RC	1	1	02VD 02VO 02VC 02MD 09MO 02MC 02RD 02RO	1	0	0.665464162827	-312.0	265.0	-297	271	1
2.7	2015_May_07_1535	s	s	6	4	SIC	186	ABS	1	0	02VD 02VO 02VC 02MD 02MO 10MC 02RD 02RO	0	1	4.54915094376	None	None	None	None	1
2.7	2015_May_07_1535	s	s	6	4	SIC	187	ABS	0	2	02VD 02VO 02VC 02MD 02MO 02MC 10RD 02RO	0	1	3.32547998428	None	None	None	None	1
2.7	2015_May_07_1535	s	s	6	4	SIC	188	ABS	2	1	02VD 10VO 02VC 02MD 02MO 02MC 02RD 02RO	0	1	2.06810212135	None	None	None	None	1
2.7	2015_May_07_1535	s	s	6	4	SIC	189	ABS	0	1	02VD 02VO 02VC 02MD 02MO 02MC 02RD 10RO	0	1	4.03205299377	None	None	None	None	1
2.7	2015_May_07_1535	s	s	6	4	SIC	190	RC	2	2	09VD 02VO 02VC 02MD 02MO 02MC 02RD 02RO	1	0	1.05374503136	-142.0	-138.0	-137	-136	1
2.7	2015_May_07_1535	s	s	6	4	SIC	191	RC	0	2	02VD 02VO 02VC 02MD 02MO 02MC 09RD 02RO	1	0	0.705636978149	183.0	-354.0	186	-354	1
2.7	2015_May_07_1535	s	s	6	4	SIC	192	ABS	2	0	02VD 02VO 10VC 02MD 02MO 02MC 02RD 02RO	0	1	1.51777887344	None	None	None	None	1
2.7	2015_May_07_1535	s	s	6	4	SIC	193	RC	2	1	02VD 09VO 02VC 02MD 02MO 02MC 02RD 02RO	1	0	1.27743506432	323.0	349.0	319	349	1
2.7	2015_May_07_1535	s	s	6	4	SIC	194	ABS	1	1	02VD 02VO 02VC 02MD 10MO 02MC 02RD 02RO	0	1	4.06632995605	None	None	None	None	1
2.7	2015_May_07_1535	s	s	6	4	SIC	195	RC	1	0	02VD 02VO 02VC 02MD 02MO 09MC 02RD 02RO	1	0	2.45982599258	-387.0	-221.0	-394	-221	1
2.7	2015_May_07_1535	s	s	6	4	SIC	196	ABS	2	0	02VD 02VO 10VC 02MD 02MO 02MC 02RD 02RO	0	1	2.37700986862	None	None	None	None	1
2.7	2015_May_07_1535	s	s	6	4	SIC	197	RC	2	0	02VD 02VO 09VC 02MD 02MO 02MC 02RD 02RO	1	0	1.34120988846	-120.0	265.0	-110	266	1
2.7	2015_May_07_1535	s	s	6	4	SIC	198	RC	0	2	02VD 02VO 02VC 02MD 02MO 02MC 09RD 02RO	1	0	1.43533706665	-62.0	-267.0	-58	-262	1
2.7	2015_May_07_1535	s	s	6	4	SIC	199	RC	0	1	02VD 02VO 02VC 02MD 02MO 02MC 02RD 09RO	1	0	2.56531620026	188.0	402.0	196	399	1
2.7	2015_May_07_1535	s	s	6	4	SIC	200	ABS	1	0	02VD 02VO 02VC 02MD 02MO 10MC 02RD 02RO	0	1	3.8248591423	None	None	None	None	1
2.7	2015_May_07_1535	s	s	6	4	SIC	201	ABS	1	2	02VD 02VO 02VC 10MD 02MO 02MC 02RD 02RO	0	1	3.94776415825	None	None	None	None	1
2.7	2015_May_07_1535	s	s	6	4	SIC	202	ABS	2	1	02VD 10VO 02VC 02MD 02MO 02MC 02RD 02RO	0	1	2.28289794922	None	None	None	None	1
2.7	2015_May_07_1535	s	s	6	4	SIC	203	RC	1	1	02VD 02VO 02VC 02MD 09MO 02MC 02RD 02RO	1	0	1.87761497498	-379.0	-277.0	-377	-280	1
2.7	2015_May_07_1535	s	s	6	4	SIC	204	RC	1	2	02VD 02VO 02VC 09MD 02MO 02MC 02RD 02RO	1	0	1.57662010193	519.0	-225.0	511	-225	1
2.7	2015_May_07_1535	s	s	6	4	SIC	205	RC	2	2	09VD 02VO 02VC 02MD 02MO 02MC 02RD 02RO	1	0	2.05917191505	486.0	-359.0	490	-372	1
2.7	2015_May_07_1535	s	s	6	4	SIC	206	ABS	0	1	02VD 02VO 02VC 02MD 02MO 02MC 02RD 10RO	0	1	3.46353507042	None	None	None	None	1
2.7	2015_May_07_1535	s	s	6	4	SIC	207	ABS	2	2	10VD 02VO 02VC 02MD 02MO 02MC 02RD 02RO	0	1	2.74782204628	None	None	None	None	1
2.7	2015_May_07_1535	s	s	6	4	SIC	208	ABS	0	2	02VD 02VO 02VC 02MD 02MO 02MC 10RD 02RO	0	1	2.07767295837	None	None	None	None	1
2.7	2015_May_07_1535	s	s	6	4	SIC	209	RC	1	2	02VD 02VO 02VC 09MD 02MO 02MC 02RD 02RO	1	0	1.18846011162	-494.0	216.0	-487	217	1
2.7	2015_May_07_1535	s	s	6	4	SIC	210	ABS	1	0	02VD 02VO 02VC 02MD 02MO 10MC 02RD 02RO	0	1	3.50705885887	None	None	None	None	1
2.7	2015_May_07_1535	s	s	6	4	SIC	211	RC	1	0	02VD 02VO 02VC 02MD 02MO 09MC 02RD 02RO	1	0	1.97175812721	320.0	112.0	315	108	1
2.7	2015_May_07_1535	s	s	6	4	SIC	212	ABS	2	2	10VD 02VO 02VC 02MD 02MO 02MC 02RD 02RO	0	1	1.94148206711	None	None	None	None	1
2.7	2015_May_07_1535	s	s	6	4	SIC	213	RC	0	1	02VD 02VO 02VC 02MD 02MO 02MC 02RD 09RO	1	0	1.72457289696	346.0	236.0	340	227	1
2.7	2015_May_07_1535	s	s	6	4	SIC	214	ABS	1	2	02VD 02VO 02VC 10MD 02MO 02MC 02RD 02RO	0	1	2.45946598053	None	None	None	None	1
2.7	2015_May_07_1535	s	s	6	4	SIC	215	ABS	0	1	02VD 02VO 02VC 02MD 02MO 02MC 02RD 10RO	0	1	3.44318199158	None	None	None	None	1
2.7	2015_May_07_1535	s	s	6	4	SIC	216	ABS	1	1	02VD 02VO 02VC 02MD 10MO 02MC 02RD 02RO	0	1	3.7024409771	None	None	None	None	1
2.7	2015_May_07_1535	s	s	6	4	SIC	217	RC	1	1	02VD 02VO 02VC 02MD 09MO 02MC 02RD 02RO	1	0	1.00350499153	-308.0	265.0	-298	264	1
2.7	2015_May_07_1535	s	s	6	4	SIC	218	ABS	0	2	02VD 02VO 02VC 02MD 02MO 02MC 10RD 02RO	0	1	2.18868017197	None	None	None	None	1
2.7	2015_May_07_1535	s	s	6	4	SIC	219	RC	2	1	02VD 09VO 02VC 02MD 02MO 02MC 02RD 02RO	1	0	0.92925620079	-436.0	-27.0	-432	-32	1
2.7	2015_May_07_1535	s	s	6	4	SIC	220	ABS	2	0	02VD 02VO 10VC 02MD 02MO 02MC 02RD 02RO	0	1	2.39665985107	None	None	None	None	1
2.7	2015_May_07_1535	s	s	6	4	SIC	221	RC	2	0	02VD 02VO 09VC 02MD 02MO 02MC 02RD 02RO	1	0	1.58339500427	-443.0	-351.0	-440	-357	1
2.7	2015_May_07_1535	s	s	6	4	SIC	222	RC	0	2	02VD 02VO 02VC 02MD 02MO 02MC 09RD 02RO	1	0	2.21221780777	108.0	-344.0	110	-343	1
2.7	2015_May_07_1535	s	s	6	4	SIC	223	RC	2	2	09VD 02VO 02VC 02MD 02MO 02MC 02RD 02RO	1	0	1.24183297157	469.0	273.0	470	272	1
2.7	2015_May_07_1535	s	s	6	4	SIC	224	ABS	2	1	02VD 10VO 02VC 02MD 02MO 02MC 02RD 02RO	0	1	2.36026382446	None	None	None	None	1
2.7	2015_May_07_1535	s	s	6	4	SIC	225	ABS	0	1	02VD 02VO 02VC 02MD 02MO 02MC 02RD 10RO	0	1	4.34269595146	None	None	None	None	1
2.7	2015_May_07_1535	s	s	6	4	SIC	226	ABS	1	0	02VD 02VO 02VC 02MD 02MO 10MC 02RD 02RO	0	1	5.01360487938	None	None	None	None	1
2.7	2015_May_07_1535	s	s	6	4	SIC	227	ABS	2	0	02VD 02VO 10VC 02MD 02MO 02MC 02RD 02RO	0	1	1.92972302437	None	None	None	None	1
2.7	2015_May_07_1535	s	s	6	4	SIC	228	RC	2	2	09VD 02VO 02VC 02MD 02MO 02MC 02RD 02RO	1	0	0.79480099678	78.0	184.0	72	193	1
2.7	2015_May_07_1535	s	s	6	4	SIC	229	RC	2	1	02VD 09VO 02VC 02MD 02MO 02MC 02RD 02RO	1	0	1.32941699028	-489.0	230.0	-489	228	1
2.7	2015_May_07_1535	s	s	6	4	SIC	230	RC	0	2	02VD 02VO 02VC 02MD 02MO 02MC 09RD 02RO	1	0	0.576061010361	-105.0	66.0	-101	70	1
2.7	2015_May_07_1535	s	s	6	4	SIC	231	RC	1	1	02VD 02VO 02VC 02MD 09MO 02MC 02RD 02RO	1	0	0.81831407547	-236.0	244.0	-231	244	1
2.7	2015_May_07_1535	s	s	6	4	SIC	232	RC	1	2	02VD 02VO 02VC 09MD 02MO 02MC 02RD 02RO	1	0	0.517312049866	19.0	210.0	26	208	1
2.7	2015_May_07_1535	s	s	6	4	SIC	233	ABS	1	1	02VD 02VO 02VC 02MD 10MO 02MC 02RD 02RO	0	1	2.14846682549	None	None	None	None	1
2.7	2015_May_07_1535	s	s	6	4	SIC	234	ABS	2	2	10VD 02VO 02VC 02MD 02MO 02MC 02RD 02RO	0	1	2.45944094658	None	None	None	None	1
2.7	2015_May_07_1535	s	s	6	4	SIC	235	ABS	2	1	02VD 10VO 02VC 02MD 02MO 02MC 02RD 02RO	0	1	2.66623210907	None	None	None	None	1
2.7	2015_May_07_1535	s	s	6	4	SIC	236	RC	0	1	02VD 02VO 02VC 02MD 02MO 02MC 02RD 09RO	1	0	1.59516716003	-37.0	279.0	-37	273	1
2.7	2015_May_07_1535	s	s	6	4	SIC	237	ABS	1	2	02VD 02VO 02VC 10MD 02MO 02MC 02RD 02RO	0	1	3.09007692337	None	None	None	None	1
2.7	2015_May_07_1535	s	s	6	4	SIC	238	RC	2	0	02VD 02VO 09VC 02MD 02MO 02MC 02RD 02RO	1	0	0.582899093628	77.0	117.0	69	124	1
2.7	2015_May_07_1535	s	s	6	4	SIC	239	RC	1	0	02VD 02VO 02VC 02MD 02MO 09MC 02RD 02RO	1	0	1.32952308655	-176.0	405.0	-185	401	1
2.7	2015_May_07_1535	s	s	6	4	SIC	240	ABS	0	2	02VD 02VO 02VC 02MD 02MO 02MC 10RD 02RO	0	1	1.69416213036	None	None	None	None	1
2.7	2015_May_07_1535	s	s	6	4	SIC	241	ABS	0	2	02VD 02VO 02VC 02MD 02MO 02MC 10RD 02RO	0	1	2.48948812485	None	None	None	None	1
2.7	2015_May_07_1535	s	s	6	4	SIC	242	ABS	2	0	02VD 02VO 10VC 02MD 02MO 02MC 02RD 02RO	0	1	2.348954916	None	None	None	None	1
2.7	2015_May_07_1535	s	s	6	4	SIC	243	RC	2	2	09VD 02VO 02VC 02MD 02MO 02MC 02RD 02RO	1	0	0.752701044083	-208.0	46.0	-210	46	1
2.7	2015_May_07_1535	s	s	6	4	SIC	244	RC	1	0	02VD 02VO 02VC 02MD 02MO 09MC 02RD 02RO	1	0	3.07151508331	358.0	250.0	366	244	1
2.7	2015_May_07_1535	s	s	6	4	SIC	245	RC	1	2	02VD 02VO 02VC 09MD 02MO 02MC 02RD 02RO	1	0	1.17141699791	-299.0	137.0	-313	147	1
2.7	2015_May_07_1535	s	s	6	4	SIC	246	ABS	1	2	02VD 02VO 02VC 10MD 02MO 02MC 02RD 02RO	0	1	3.30677080154	None	None	None	None	1
2.7	2015_May_07_1535	s	s	6	4	SIC	247	RC	2	1	02VD 09VO 02VC 02MD 02MO 02MC 02RD 02RO	1	0	0.906135082245	136.0	-316.0	139	-321	1
2.7	2015_May_07_1535	s	s	6	4	SIC	248	ABS	1	1	02VD 02VO 02VC 02MD 10MO 02MC 02RD 02RO	0	1	3.43647098541	None	None	None	None	1
2.7	2015_May_07_1535	s	s	6	4	SIC	249	ABS	1	0	02VD 02VO 02VC 02MD 02MO 10MC 02RD 02RO	0	1	2.64378595352	None	None	None	None	1
2.7	2015_May_07_1535	s	s	6	4	SIC	250	RC	0	1	02VD 02VO 02VC 02MD 02MO 02MC 02RD 09RO	1	0	1.71278595924	485.0	176.0	483	176	1
2.7	2015_May_07_1535	s	s	6	4	SIC	251	ABS	2	1	02VD 10VO 02VC 02MD 02MO 02MC 02RD 02RO	0	1	1.99520087242	None	None	None	None	1
2.7	2015_May_07_1535	s	s	6	4	SIC	252	RC	0	2	02VD 02VO 02VC 02MD 02MO 02MC 09RD 02RO	1	0	1.19995594025	-201.0	54.0	-193	50	1
2.7	2015_May_07_1535	s	s	6	4	SIC	253	ABS	0	1	02VD 02VO 02VC 02MD 02MO 02MC 02RD 10RO	0	1	3.70058512688	None	None	None	None	1
2.7	2015_May_07_1535	s	s	6	4	SIC	254	RC	2	0	02VD 02VO 09VC 02MD 02MO 02MC 02RD 02RO	1	0	1.56486010551	-302.0	-351.0	-297	-347	1
2.7	2015_May_07_1535	s	s	6	4	SIC	255	RC	1	1	02VD 02VO 02VC 02MD 09MO 02MC 02RD 02RO	1	0	1.77216482162	-444.0	104.0	-438	110	1
2.7	2015_May_07_1535	s	s	6	4	SIC	256	ABS	2	2	10VD 02VO 02VC 02MD 02MO 02MC 02RD 02RO	0	1	2.22152709961	None	None	None	None	1
2.7	2015_May_07_1535	s	s	6	4	SIC	257	ABS	2	1	02VD 10VO 02VC 02MD 02MO 02MC 02RD 02RO	0	1	2.04348993301	None	None	None	None	1
2.7	2015_May_07_1535	s	s	6	4	SIC	258	RC	2	0	02VD 02VO 09VC 02MD 02MO 02MC 02RD 02RO	1	0	0.794424057007	-434.0	2.0	-438	12	1
2.7	2015_May_07_1535	s	s	6	4	SIC	259	RC	0	1	02VD 02VO 02VC 02MD 02MO 02MC 02RD 09RO	1	0	1.49417495728	-64.0	-210.0	-71	-212	1
2.7	2015_May_07_1535	s	s	6	4	SIC	260	ABS	0	2	02VD 02VO 02VC 02MD 02MO 02MC 10RD 02RO	0	1	2.27780008316	None	None	None	None	1
2.7	2015_May_07_1535	s	s	6	4	SIC	261	RC	1	2	02VD 02VO 02VC 09MD 02MO 02MC 02RD 02RO	1	0	0.752725124359	88.0	-221.0	93	-228	1
2.7	2015_May_07_1535	s	s	6	4	SIC	262	ABS	1	0	02VD 02VO 02VC 02MD 02MO 10MC 02RD 02RO	0	1	3.60121512413	None	None	None	None	1
2.7	2015_May_07_1535	s	s	6	4	SIC	263	RC	0	2	02VD 02VO 02VC 02MD 02MO 02MC 09RD 02RO	1	0	0.788079023361	4.0	245.0	2	249	1
2.7	2015_May_07_1535	s	s	6	4	SIC	264	ABS	1	2	02VD 02VO 02VC 10MD 02MO 02MC 02RD 02RO	0	1	2.10635781288	None	None	None	None	1
2.7	2015_May_07_1535	s	s	6	4	SIC	265	RC	1	0	02VD 02VO 02VC 02MD 02MO 09MC 02RD 02RO	1	0	1.01161408424	68.0	-204.0	71	-202	1
2.7	2015_May_07_1535	s	s	6	4	SIC	266	ABS	2	2	10VD 02VO 02VC 02MD 02MO 02MC 02RD 02RO	0	1	2.56042504311	None	None	None	None	1
2.7	2015_May_07_1535	s	s	6	4	SIC	267	RC	1	1	02VD 02VO 02VC 02MD 09MO 02MC 02RD 02RO	1	0	0.799798965454	179.0	98.0	180	101	1
2.7	2015_May_07_1535	s	s	6	4	SIC	268	RC	2	2	09VD 02VO 02VC 02MD 02MO 02MC 02RD 02RO	1	0	2.24759697914	489.0	-116.0	489	-107	1
2.7	2015_May_07_1535	s	s	6	4	SIC	269	ABS	2	0	02VD 02VO 10VC 02MD 02MO 02MC 02RD 02RO	0	1	2.51300883293	None	None	None	None	1
2.7	2015_May_07_1535	s	s	6	4	SIC	270	RC	2	1	02VD 09VO 02VC 02MD 02MO 02MC 02RD 02RO	1	0	0.75914311409	76.0	249.0	85	245	1
2.7	2015_May_07_1535	s	s	6	4	SIC	271	ABS	0	1	02VD 02VO 02VC 02MD 02MO 02MC 02RD 10RO	0	1	4.18969202042	None	None	None	None	1
2.7	2015_May_07_1535	s	s	6	4	SIC	272	ABS	1	1	02VD 02VO 02VC 02MD 10MO 02MC 02RD 02RO	0	1	3.48346710205	None	None	None	None	1
2.7	2015_May_07_1535	s	s	6	4	SIC	273	ABS	2	1	02VD 10VO 02VC 02MD 02MO 02MC 02RD 02RO	0	1	2.40733504295	None	None	None	None	1
2.7	2015_May_07_1535	s	s	6	4	SIC	274	RC	1	2	02VD 02VO 02VC 09MD 02MO 02MC 02RD 02RO	1	0	0.699794054031	-188.0	263.0	-200	264	1
2.7	2015_May_07_1535	s	s	6	4	SIC	275	ABS	2	0	02VD 02VO 10VC 02MD 02MO 02MC 02RD 02RO	0	1	1.78358006477	None	None	None	None	1
2.7	2015_May_07_1535	s	s	6	4	SIC	276	ABS	2	2	10VD 02VO 02VC 02MD 02MO 02MC 02RD 02RO	0	1	2.10635089874	None	None	None	None	1
2.7	2015_May_07_1535	s	s	6	4	SIC	277	ABS	1	0	02VD 02VO 02VC 02MD 02MO 10MC 02RD 02RO	0	1	4.77408695221	None	None	None	None	1
2.7	2015_May_07_1535	s	s	6	4	SIC	278	RC	0	2	02VD 02VO 02VC 02MD 02MO 02MC 09RD 02RO	1	0	0.830471992493	-173.0	-104.0	-166	-94	1
2.7	2015_May_07_1535	s	s	6	4	SIC	279	ABS	0	2	02VD 02VO 02VC 02MD 02MO 02MC 10RD 02RO	0	1	3.79865694046	None	None	None	None	1
2.7	2015_May_07_1535	s	s	6	4	SIC	280	RC	2	2	09VD 02VO 02VC 02MD 02MO 02MC 02RD 02RO	1	0	0.764379024506	-207.0	157.0	-212	154	1
2.7	2015_May_07_1535	s	s	6	4	SIC	281	RC	0	1	02VD 02VO 02VC 02MD 02MO 02MC 02RD 09RO	0	1	0.246541976929	-332.0	-31.0	None	None	0
2.7	2015_May_07_1535	s	s	6	4	SIC	282	RC	1	1	02VD 02VO 02VC 02MD 09MO 02MC 02RD 02RO	1	0	0.88573884964	-212.0	-259.0	-215	-254	1
2.7	2015_May_07_1535	s	s	6	4	SIC	283	RC	2	1	02VD 09VO 02VC 02MD 02MO 02MC 02RD 02RO	1	0	0.835144042969	-181.0	-24.0	-181	-24	1
2.7	2015_May_07_1535	s	s	6	4	SIC	284	ABS	0	1	02VD 02VO 02VC 02MD 02MO 02MC 02RD 10RO	0	1	3.33767390251	None	None	None	None	1
2.7	2015_May_07_1535	s	s	6	4	SIC	285	ABS	1	1	02VD 02VO 02VC 02MD 10MO 02MC 02RD 02RO	0	1	2.22403812408	None	None	None	None	1
2.7	2015_May_07_1535	s	s	6	4	SIC	286	RC	1	0	02VD 02VO 02VC 02MD 02MO 09MC 02RD 02RO	1	0	1.00593113899	125.0	365.0	126	353	1
2.7	2015_May_07_1535	s	s	6	4	SIC	287	RC	2	0	02VD 02VO 09VC 02MD 02MO 02MC 02RD 02RO	1	0	1.39194607735	-520.0	336.0	-517	324	1
2.7	2015_May_07_1535	s	s	6	4	SIC	288	ABS	1	2	02VD 02VO 02VC 10MD 02MO 02MC 02RD 02RO	0	1	2.43088507652	None	None	None	None	1
2.7	2015_May_07_1535	s	s	6	4	SIC	289	RC	1	2	02VD 02VO 02VC 09MD 02MO 02MC 02RD 02RO	1	0	0.740906000137	-5.0	328.0	-1	327	1
2.7	2015_May_07_1535	s	s	6	4	SIC	290	ABS	2	0	02VD 02VO 10VC 02MD 02MO 02MC 02RD 02RO	0	1	2.84785914421	None	None	None	None	1
2.7	2015_May_07_1535	s	s	6	4	SIC	291	ABS	2	1	02VD 10VO 02VC 02MD 02MO 02MC 02RD 02RO	0	1	1.87885284424	None	None	None	None	1
2.7	2015_May_07_1535	s	s	6	4	SIC	292	RC	1	0	02VD 02VO 02VC 02MD 02MO 09MC 02RD 02RO	1	0	0.935836076736	-84.0	268.0	-91	261	1
2.7	2015_May_07_1535	s	s	6	4	SIC	293	RC	1	1	02VD 02VO 02VC 02MD 09MO 02MC 02RD 02RO	1	0	0.959578037262	435.0	360.0	430	366	1
2.7	2015_May_07_1535	s	s	6	4	SIC	294	RC	2	0	02VD 02VO 09VC 02MD 02MO 02MC 02RD 02RO	1	0	2.1651930809	391.0	-343.0	397	-345	1
2.7	2015_May_07_1535	s	s	6	4	SIC	295	ABS	0	2	02VD 02VO 02VC 02MD 02MO 02MC 10RD 02RO	0	1	2.64493393898	None	None	None	None	1
2.7	2015_May_07_1535	s	s	6	4	SIC	296	RC	2	2	09VD 02VO 02VC 02MD 02MO 02MC 02RD 02RO	1	0	0.642158985138	-117.0	-99.0	-108	-101	1
2.7	2015_May_07_1535	s	s	6	4	SIC	297	RC	0	1	02VD 02VO 02VC 02MD 02MO 02MC 02RD 09RO	1	0	1.39488506317	161.0	-125.0	157	-126	1
2.7	2015_May_07_1535	s	s	6	4	SIC	298	ABS	1	2	02VD 02VO 02VC 10MD 02MO 02MC 02RD 02RO	0	1	1.8062851429	None	None	None	None	1
2.7	2015_May_07_1535	s	s	6	4	SIC	299	ABS	1	0	02VD 02VO 02VC 02MD 02MO 10MC 02RD 02RO	0	1	4.1662311554	None	None	None	None	1
2.7	2015_May_07_1535	s	s	6	4	SIC	300	RC	0	2	02VD 02VO 02VC 02MD 02MO 02MC 09RD 02RO	1	0	1.48246383667	427.0	366.0	415	367	1
2.7	2015_May_07_1535	s	s	6	4	SIC	301	ABS	0	1	02VD 02VO 02VC 02MD 02MO 02MC 02RD 10RO	0	1	3.50203704834	None	None	None	None	1
2.7	2015_May_07_1535	s	s	6	4	SIC	302	ABS	2	2	10VD 02VO 02VC 02MD 02MO 02MC 02RD 02RO	0	1	1.97411108017	None	None	None	None	1
2.7	2015_May_07_1535	s	s	6	4	SIC	303	RC	2	1	02VD 09VO 02VC 02MD 02MO 02MC 02RD 02RO	1	0	1.69986391068	465.0	-371.0	466	-366	1
2.7	2015_May_07_1535	s	s	6	4	SIC	304	ABS	1	1	02VD 02VO 02VC 02MD 10MO 02MC 02RD 02RO	0	1	2.92696595192	None	None	None	None	1
2.7	2015_May_07_1535	s	s	6	4	SIC	305	RC	0	1	02VD 02VO 02VC 02MD 02MO 02MC 02RD 09RO	1	0	0.571171998978	-30.0	100.0	-36	101	1
2.7	2015_May_07_1535	s	s	6	4	SIC	306	ABS	1	2	02VD 02VO 02VC 10MD 02MO 02MC 02RD 02RO	0	1	1.8591709137	None	None	None	None	1
2.7	2015_May_07_1535	s	s	6	4	SIC	307	ABS	2	0	02VD 02VO 10VC 02MD 02MO 02MC 02RD 02RO	0	1	2.7860250473	None	None	None	None	1
2.7	2015_May_07_1535	s	s	6	4	SIC	308	RC	2	1	02VD 09VO 02VC 02MD 02MO 02MC 02RD 02RO	1	0	0.999857902527	-340.0	-100.0	-340	-102	1
2.7	2015_May_07_1535	s	s	6	4	SIC	309	ABS	1	0	02VD 02VO 02VC 02MD 02MO 10MC 02RD 02RO	0	1	4.73113393784	None	None	None	None	1
2.7	2015_May_07_1535	s	s	6	4	SIC	310	RC	0	2	02VD 02VO 02VC 02MD 02MO 02MC 09RD 02RO	1	0	1.08223795891	502.0	263.0	509	256	1
2.7	2015_May_07_1535	s	s	6	4	SIC	311	RC	1	1	02VD 02VO 02VC 02MD 09MO 02MC 02RD 02RO	1	0	0.713937997818	56.0	-108.0	61	-114	1
2.7	2015_May_07_1535	s	s	6	4	SIC	312	ABS	0	1	02VD 02VO 02VC 02MD 02MO 02MC 02RD 10RO	0	1	3.53052997589	None	None	None	None	1
2.7	2015_May_07_1535	s	s	6	4	SIC	313	ABS	0	2	02VD 02VO 02VC 02MD 02MO 02MC 10RD 02RO	1	0	0.700608968735	None	None	32	-12	0
2.7	2015_May_07_1535	s	s	6	4	SIC	314	RC	1	0	02VD 02VO 02VC 02MD 02MO 09MC 02RD 02RO	1	0	1.95311999321	-437.0	-287.0	-432	-286	1
2.7	2015_May_07_1535	s	s	6	4	SIC	315	RC	2	0	02VD 02VO 09VC 02MD 02MO 02MC 02RD 02RO	1	0	0.693884849548	222.0	330.0	216	326	1
2.7	2015_May_07_1535	s	s	6	4	SIC	316	ABS	2	1	02VD 10VO 02VC 02MD 02MO 02MC 02RD 02RO	0	1	2.17691493034	None	None	None	None	1
2.7	2015_May_07_1535	s	s	6	4	SIC	317	RC	1	2	02VD 02VO 02VC 09MD 02MO 02MC 02RD 02RO	1	0	2.23982000351	399.0	-291.0	395	-284	1
2.7	2015_May_07_1535	s	s	6	4	SIC	318	ABS	1	1	02VD 02VO 02VC 02MD 10MO 02MC 02RD 02RO	0	1	3.90395307541	None	None	None	None	1
2.7	2015_May_07_1535	s	s	6	4	SIC	319	RC	2	2	09VD 02VO 02VC 02MD 02MO 02MC 02RD 02RO	1	0	0.964762926102	292.0	120.0	294	122	1
2.7	2015_May_07_1535	s	s	6	4	SIC	320	ABS	2	2	10VD 02VO 02VC 02MD 02MO 02MC 02RD 02RO	0	1	3.00919294357	None	None	None	None	1
2.7	2015_May_07_1535	s	s	6	4	SIC	321	ABS	1	0	02VD 02VO 02VC 02MD 02MO 10MC 02RD 02RO	0	1	4.69580888748	None	None	None	None	1
2.7	2015_May_07_1535	s	s	6	4	SIC	322	RC	1	2	02VD 02VO 02VC 09MD 02MO 02MC 02RD 02RO	1	0	1.30589103699	-46.0	-380.0	-59	-377	1
2.7	2015_May_07_1535	s	s	6	4	SIC	323	ABS	0	2	02VD 02VO 02VC 02MD 02MO 02MC 10RD 02RO	0	1	2.33671998978	None	None	None	None	1
2.7	2015_May_07_1535	s	s	6	4	SIC	324	RC	2	1	02VD 09VO 02VC 02MD 02MO 02MC 02RD 02RO	1	0	1.24702692032	467.0	-247.0	458	-245	1
2.7	2015_May_07_1535	s	s	6	4	SIC	325	ABS	0	1	02VD 02VO 02VC 02MD 02MO 02MC 02RD 10RO	0	1	4.4434530735	None	None	None	None	1
2.7	2015_May_07_1535	s	s	6	4	SIC	326	RC	1	1	02VD 02VO 02VC 02MD 09MO 02MC 02RD 02RO	1	0	2.16025900841	-173.0	264.0	-163	264	1
2.7	2015_May_07_1535	s	s	6	4	SIC	327	RC	2	0	02VD 02VO 09VC 02MD 02MO 02MC 02RD 02RO	1	0	2.38384604454	-7.0	-396.0	-9	-387	1
2.7	2015_May_07_1535	s	s	6	4	SIC	328	RC	0	1	02VD 02VO 02VC 02MD 02MO 02MC 02RD 09RO	1	0	2.4476339817	294.0	-358.0	299	-356	1
2.7	2015_May_07_1535	s	s	6	4	SIC	329	ABS	2	1	02VD 10VO 02VC 02MD 02MO 02MC 02RD 02RO	0	1	2.10989499092	None	None	None	None	1
2.7	2015_May_07_1535	s	s	6	4	SIC	330	ABS	2	2	10VD 02VO 02VC 02MD 02MO 02MC 02RD 02RO	0	1	1.70159983635	None	None	None	None	1
2.7	2015_May_07_1535	s	s	6	4	SIC	331	RC	2	2	09VD 02VO 02VC 02MD 02MO 02MC 02RD 02RO	1	0	1.45495986938	392.0	180.0	394	179	1
2.7	2015_May_07_1535	s	s	6	4	SIC	332	RC	0	2	02VD 02VO 02VC 02MD 02MO 02MC 09RD 02RO	1	0	1.54118490219	431.0	-236.0	432	-241	1
2.7	2015_May_07_1535	s	s	6	4	SIC	333	ABS	1	2	02VD 02VO 02VC 10MD 02MO 02MC 02RD 02RO	0	1	1.85401082039	None	None	None	None	1
2.7	2015_May_07_1535	s	s	6	4	SIC	334	ABS	2	0	02VD 02VO 10VC 02MD 02MO 02MC 02RD 02RO	0	1	1.90615200996	None	None	None	None	1
2.7	2015_May_07_1535	s	s	6	4	SIC	335	RC	1	0	02VD 02VO 02VC 02MD 02MO 09MC 02RD 02RO	1	0	2.20049095154	-182.0	-288.0	-190	-280	1
2.7	2015_May_07_1535	s	s	6	4	SIC	336	ABS	1	1	02VD 02VO 02VC 02MD 10MO 02MC 02RD 02RO	0	1	3.1842918396	None	None	None	None	1
2.7	2015_May_07_1535	s	s	6	4	SIC	337	ABS	2	0	02VD 02VO 10VC 02MD 02MO 02MC 02RD 02RO	0	1	2.08627295494	None	None	None	None	1
2.7	2015_May_07_1535	s	s	6	4	SIC	338	ABS	1	1	02VD 02VO 02VC 02MD 10MO 02MC 02RD 02RO	0	1	3.37765908241	None	None	None	None	1
2.7	2015_May_07_1535	s	s	6	4	SIC	339	ABS	0	1	02VD 02VO 02VC 02MD 02MO 02MC 02RD 10RO	0	1	3.33934211731	None	None	None	None	1
2.7	2015_May_07_1535	s	s	6	4	SIC	340	ABS	2	1	02VD 10VO 02VC 02MD 02MO 02MC 02RD 02RO	0	1	2.32477211952	None	None	None	None	1
2.7	2015_May_07_1535	s	s	6	4	SIC	341	RC	1	2	02VD 02VO 02VC 09MD 02MO 02MC 02RD 02RO	1	0	2.30140089989	-485.0	-267.0	-478	-271	1
2.7	2015_May_07_1535	s	s	6	4	SIC	342	ABS	1	0	02VD 02VO 02VC 02MD 02MO 10MC 02RD 02RO	0	1	6.44678282738	None	None	None	None	1
2.7	2015_May_07_1535	s	s	6	4	SIC	343	RC	1	1	02VD 02VO 02VC 02MD 09MO 02MC 02RD 02RO	1	0	1.03521299362	356.0	279.0	348	280	1
2.7	2015_May_07_1535	s	s	6	4	SIC	344	RC	0	1	02VD 02VO 02VC 02MD 02MO 02MC 02RD 09RO	1	0	1.07411384583	-188.0	26.0	-178	26	1
2.7	2015_May_07_1535	s	s	6	4	SIC	345	ABS	1	2	02VD 02VO 02VC 10MD 02MO 02MC 02RD 02RO	0	1	0.0228729248047	None	None	None	None	1
2.7	2015_May_07_1535	s	s	6	4	SIC	346	RC	2	0	02VD 02VO 09VC 02MD 02MO 02MC 02RD 02RO	1	0	0.750114917755	251.0	0.0	243	-4	1
2.7	2015_May_07_1535	s	s	6	4	SIC	347	RC	2	2	09VD 02VO 02VC 02MD 02MO 02MC 02RD 02RO	1	0	1.44051194191	-162.0	361.0	-168	361	1
2.7	2015_May_07_1535	s	s	6	4	SIC	348	RC	1	0	02VD 02VO 02VC 02MD 02MO 09MC 02RD 02RO	1	0	2.1272277832	511.0	-19.0	508	-13	1
2.7	2015_May_07_1535	s	s	6	4	SIC	349	RC	2	1	02VD 09VO 02VC 02MD 02MO 02MC 02RD 02RO	1	0	2.27854990959	344.0	-339.0	343	-335	1
2.7	2015_May_07_1535	s	s	6	4	SIC	350	ABS	0	2	02VD 02VO 02VC 02MD 02MO 02MC 10RD 02RO	0	1	2.29029321671	None	None	None	None	1
2.7	2015_May_07_1535	s	s	6	4	SIC	351	RC	0	2	02VD 02VO 02VC 02MD 02MO 02MC 09RD 02RO	1	0	3.36576890945	-152.0	179.0	-162	181	1
2.7	2015_May_07_1535	s	s	6	4	SIC	352	ABS	2	2	10VD 02VO 02VC 02MD 02MO 02MC 02RD 02RO	0	1	2.45941400528	None	None	None	None	1
2.7	2015_May_07_1535	s	s	6	4	SIC	353	ABS	1	2	02VD 02VO 02VC 10MD 02MO 02MC 02RD 02RO	0	1	1.98254108429	None	None	None	None	1
2.7	2015_May_07_1535	s	s	6	4	SIC	354	RC	1	0	02VD 02VO 02VC 02MD 02MO 09MC 02RD 02RO	1	0	2.12435984612	-215.0	-111.0	-208	-117	1
2.7	2015_May_07_1535	s	s	6	4	SIC	355	RC	0	1	02VD 02VO 02VC 02MD 02MO 02MC 02RD 09RO	1	0	0.86532497406	173.0	-156.0	163	-157	1
2.7	2015_May_07_1535	s	s	6	4	SIC	356	ABS	1	0	02VD 02VO 02VC 02MD 02MO 10MC 02RD 02RO	0	1	3.78432393074	None	None	None	None	1
2.7	2015_May_07_1535	s	s	6	4	SIC	357	RC	1	2	02VD 02VO 02VC 09MD 02MO 02MC 02RD 02RO	1	0	1.58840680122	-412.0	-287.0	-418	-288	1
2.7	2015_May_07_1535	s	s	6	4	SIC	358	ABS	0	1	02VD 02VO 02VC 02MD 02MO 02MC 02RD 10RO	0	1	3.67182278633	None	None	None	None	1
2.7	2015_May_07_1535	s	s	6	4	SIC	359	RC	2	2	09VD 02VO 02VC 02MD 02MO 02MC 02RD 02RO	1	0	1.73565196991	476.0	-297.0	481	-290	1
2.7	2015_May_07_1535	s	s	6	4	SIC	360	ABS	1	1	02VD 02VO 02VC 02MD 10MO 02MC 02RD 02RO	0	1	2.8771071434	None	None	None	None	1
2.7	2015_May_07_1535	s	s	6	4	SIC	361	ABS	0	2	02VD 02VO 02VC 02MD 02MO 02MC 10RD 02RO	0	1	2.50644302368	None	None	None	None	1
2.7	2015_May_07_1535	s	s	6	4	SIC	362	RC	2	1	02VD 09VO 02VC 02MD 02MO 02MC 02RD 02RO	1	0	1.88306212425	-15.0	-295.0	-14	-297	1
2.7	2015_May_07_1535	s	s	6	4	SIC	363	RC	1	1	02VD 02VO 02VC 02MD 09MO 02MC 02RD 02RO	1	0	0.958812952042	-142.0	85.0	-136	89	1
2.7	2015_May_07_1535	s	s	6	4	SIC	364	ABS	2	1	02VD 10VO 02VC 02MD 02MO 02MC 02RD 02RO	0	1	2.00041103363	None	None	None	None	1
2.7	2015_May_07_1535	s	s	6	4	SIC	365	ABS	2	2	10VD 02VO 02VC 02MD 02MO 02MC 02RD 02RO	0	1	2.97274589539	None	None	None	None	1
2.7	2015_May_07_1535	s	s	6	4	SIC	366	RC	2	0	02VD 02VO 09VC 02MD 02MO 02MC 02RD 02RO	1	0	1.84773993492	453.0	-270.0	466	-266	1
2.7	2015_May_07_1535	s	s	6	4	SIC	367	ABS	2	0	02VD 02VO 10VC 02MD 02MO 02MC 02RD 02RO	0	1	2.73016500473	None	None	None	None	1
2.7	2015_May_07_1535	s	s	6	4	SIC	368	RC	0	2	02VD 02VO 02VC 02MD 02MO 02MC 09RD 02RO	1	0	0.867084026337	-329.0	-96.0	-324	-104	1
2.7	2015_May_07_1535	s	s	6	4	SIC	369	ABS	2	1	02VD 10VO 02VC 02MD 02MO 02MC 02RD 02RO	0	1	3.10302090645	None	None	None	None	1
2.7	2015_May_07_1535	s	s	6	4	SIC	370	RC	2	2	09VD 02VO 02VC 02MD 02MO 02MC 02RD 02RO	1	0	0.688293933868	200.0	10.0	193	20	1
2.7	2015_May_07_1535	s	s	6	4	SIC	371	RC	0	2	02VD 02VO 02VC 02MD 02MO 02MC 09RD 02RO	1	0	1.19634485245	-308.0	-90.0	-299	-93	1
2.7	2015_May_07_1535	s	s	6	4	SIC	372	RC	1	2	02VD 02VO 02VC 09MD 02MO 02MC 02RD 02RO	1	0	3.70711994171	484.0	-52.0	486	-47	1
2.7	2015_May_07_1535	s	s	6	4	SIC	373	ABS	1	0	02VD 02VO 02VC 02MD 02MO 10MC 02RD 02RO	0	1	4.22004199028	None	None	None	None	1
2.7	2015_May_07_1535	s	s	6	4	SIC	374	ABS	0	1	02VD 02VO 02VC 02MD 02MO 02MC 02RD 10RO	0	1	3.85514807701	None	None	None	None	1
2.7	2015_May_07_1535	s	s	6	4	SIC	375	RC	1	0	02VD 02VO 02VC 02MD 02MO 09MC 02RD 02RO	1	0	1.14113903046	-216.0	71.0	-213	77	1
2.7	2015_May_07_1535	s	s	6	4	SIC	376	ABS	2	0	02VD 02VO 10VC 02MD 02MO 02MC 02RD 02RO	0	1	3.28334212303	None	None	None	None	1
2.7	2015_May_07_1535	s	s	6	4	SIC	377	RC	2	1	02VD 09VO 02VC 02MD 02MO 02MC 02RD 02RO	1	0	1.2828271389	-24.0	301.0	-30	308	1
2.7	2015_May_07_1535	s	s	6	4	SIC	378	RC	0	1	02VD 02VO 02VC 02MD 02MO 02MC 02RD 09RO	1	0	0.759598016739	-147.0	358.0	-141	354	1
2.7	2015_May_07_1535	s	s	6	4	SIC	379	ABS	1	1	02VD 02VO 02VC 02MD 10MO 02MC 02RD 02RO	0	1	2.63060092926	None	None	None	None	1
2.7	2015_May_07_1535	s	s	6	4	SIC	380	ABS	2	2	10VD 02VO 02VC 02MD 02MO 02MC 02RD 02RO	0	1	2.64356088638	None	None	None	None	1
2.7	2015_May_07_1535	s	s	6	4	SIC	381	ABS	1	2	02VD 02VO 02VC 10MD 02MO 02MC 02RD 02RO	0	1	2.33655905724	None	None	None	None	1
2.7	2015_May_07_1535	s	s	6	4	SIC	382	RC	2	0	02VD 02VO 09VC 02MD 02MO 02MC 02RD 02RO	1	0	0.670269012451	117.0	166.0	119	168	1
2.7	2015_May_07_1535	s	s	6	4	SIC	383	RC	1	1	02VD 02VO 02VC 02MD 09MO 02MC 02RD 02RO	0	1	0.0768718719482	303.0	133.0	None	None	0
2.7	2015_May_07_1535	s	s	6	4	SIC	384	ABS	0	2	02VD 02VO 02VC 02MD 02MO 02MC 10RD 02RO	0	1	2.76541996002	None	None	None	None	1
2.7	2015_May_07_1535	s	s	6	4	SIC	385	RC	0	2	02VD 02VO 02VC 02MD 02MO 02MC 09RD 02RO	1	0	1.86641407013	324.0	-299.0	327	-307	1
2.7	2015_May_07_1535	s	s	6	4	SIC	386	ABS	0	2	02VD 02VO 02VC 02MD 02MO 02MC 10RD 02RO	0	1	2.41862392426	None	None	None	None	1
2.7	2015_May_07_1535	s	s	6	4	SIC	387	RC	2	2	09VD 02VO 02VC 02MD 02MO 02MC 02RD 02RO	1	0	1.86567306519	278.0	-207.0	264	-201	1
2.7	2015_May_07_1535	s	s	6	4	SIC	388	RC	1	2	02VD 02VO 02VC 09MD 02MO 02MC 02RD 02RO	1	0	1.7597849369	491.0	-54.0	498	-61	1
2.7	2015_May_07_1535	s	s	6	4	SIC	389	RC	2	1	02VD 09VO 02VC 02MD 02MO 02MC 02RD 02RO	1	0	1.20676183701	-282.0	158.0	-289	152	1
2.7	2015_May_07_1535	s	s	6	4	SIC	390	ABS	1	1	02VD 02VO 02VC 02MD 10MO 02MC 02RD 02RO	0	1	3.34227609634	None	None	None	None	1
2.7	2015_May_07_1535	s	s	6	4	SIC	391	RC	1	1	02VD 02VO 02VC 02MD 09MO 02MC 02RD 02RO	1	0	1.48252391815	355.0	-97.0	348	-101	1
2.7	2015_May_07_1535	s	s	6	4	SIC	392	ABS	2	2	10VD 02VO 02VC 02MD 02MO 02MC 02RD 02RO	0	1	3.05979084969	None	None	None	None	1
2.7	2015_May_07_1535	s	s	6	4	SIC	393	ABS	2	1	02VD 10VO 02VC 02MD 02MO 02MC 02RD 02RO	0	1	2.80118894577	None	None	None	None	1
2.7	2015_May_07_1535	s	s	6	4	SIC	394	ABS	2	0	02VD 02VO 10VC 02MD 02MO 02MC 02RD 02RO	0	1	2.45993614197	None	None	None	None	1
2.7	2015_May_07_1535	s	s	6	4	SIC	395	RC	0	1	02VD 02VO 02VC 02MD 02MO 02MC 02RD 09RO	1	0	1.38876485825	165.0	230.0	162	218	1
2.7	2015_May_07_1535	s	s	6	4	SIC	396	ABS	1	0	02VD 02VO 02VC 02MD 02MO 10MC 02RD 02RO	0	1	5.76402401924	None	None	None	None	1
2.7	2015_May_07_1535	s	s	6	4	SIC	397	RC	1	0	02VD 02VO 02VC 02MD 02MO 09MC 02RD 02RO	1	0	1.74142503738	-315.0	-297.0	-316	-301	1
2.7	2015_May_07_1535	s	s	6	4	SIC	398	ABS	1	2	02VD 02VO 02VC 10MD 02MO 02MC 02RD 02RO	0	1	2.38876795769	None	None	None	None	1
2.7	2015_May_07_1535	s	s	6	4	SIC	399	ABS	0	1	02VD 02VO 02VC 02MD 02MO 02MC 02RD 10RO	0	1	5.30229210854	None	None	None	None	1
2.7	2015_May_07_1535	s	s	6	4	SIC	400	RC	2	0	02VD 02VO 09VC 02MD 02MO 02MC 02RD 02RO	1	0	2.21897697449	350.0	-298.0	351	-298	1
2.7	2015_May_07_1535	s	s	6	4	SIC	401	ABS	1	2	02VD 02VO 02VC 10MD 02MO 02MC 02RD 02RO	0	1	2.10053801537	None	None	None	None	1
2.7	2015_May_07_1535	s	s	6	4	SIC	402	ABS	1	1	02VD 02VO 02VC 02MD 10MO 02MC 02RD 02RO	0	1	3.70710396767	None	None	None	None	1
2.7	2015_May_07_1535	s	s	6	4	SIC	403	ABS	1	0	02VD 02VO 02VC 02MD 02MO 10MC 02RD 02RO	0	1	3.64279603958	None	None	None	None	1
2.7	2015_May_07_1535	s	s	6	4	SIC	404	ABS	0	1	02VD 02VO 02VC 02MD 02MO 02MC 02RD 10RO	0	1	4.03347110748	None	None	None	None	1
2.7	2015_May_07_1535	s	s	6	4	SIC	405	ABS	2	0	02VD 02VO 10VC 02MD 02MO 02MC 02RD 02RO	0	1	2.07096004486	None	None	None	None	1
2.7	2015_May_07_1535	s	s	6	4	SIC	406	ABS	0	2	02VD 02VO 02VC 02MD 02MO 02MC 10RD 02RO	0	1	3.44514489174	None	None	None	None	1
2.7	2015_May_07_1535	s	s	6	4	SIC	407	RC	0	2	02VD 02VO 02VC 02MD 02MO 02MC 09RD 02RO	1	0	1.10064792633	-375.0	340.0	-366	341	1
2.7	2015_May_07_1535	s	s	6	4	SIC	408	ABS	2	1	02VD 10VO 02VC 02MD 02MO 02MC 02RD 02RO	0	1	2.31809782982	None	None	None	None	1
2.7	2015_May_07_1535	s	s	6	4	SIC	409	RC	1	1	02VD 02VO 02VC 02MD 09MO 02MC 02RD 02RO	1	0	1.03009200096	-247.0	10.0	-239	9	1
2.7	2015_May_07_1535	s	s	6	4	SIC	410	RC	2	1	02VD 09VO 02VC 02MD 02MO 02MC 02RD 02RO	1	0	2.01873803139	-226.0	182.0	-230	173	1
2.7	2015_May_07_1535	s	s	6	4	SIC	411	RC	0	1	02VD 02VO 02VC 02MD 02MO 02MC 02RD 09RO	1	0	2.15343308449	395.0	-205.0	393	-215	1
2.7	2015_May_07_1535	s	s	6	4	SIC	412	RC	2	0	02VD 02VO 09VC 02MD 02MO 02MC 02RD 02RO	1	0	2.09446620941	-463.0	201.0	-462	205	1
2.7	2015_May_07_1535	s	s	6	4	SIC	413	RC	1	2	02VD 02VO 02VC 09MD 02MO 02MC 02RD 02RO	1	0	1.00608181953	-514.0	17.0	-507	16	1
2.7	2015_May_07_1535	s	s	6	4	SIC	414	RC	1	0	02VD 02VO 02VC 02MD 02MO 09MC 02RD 02RO	1	0	0.799655914307	-205.0	-23.0	-213	-13	1
2.7	2015_May_07_1535	s	s	6	4	SIC	415	ABS	2	2	10VD 02VO 02VC 02MD 02MO 02MC 02RD 02RO	0	1	2.33659005165	None	None	None	None	1
2.7	2015_May_07_1535	s	s	6	4	SIC	416	RC	2	2	09VD 02VO 02VC 02MD 02MO 02MC 02RD 02RO	1	0	0.811537981033	150.0	152.0	161	155	1
2.7	2015_May_07_1535	s	s	6	4	SIC	417	RC	1	0	02VD 02VO 02VC 02MD 02MO 09MC 02RD 02RO	1	0	0.976360797882	-252.0	387.0	-245	384	1
2.7	2015_May_07_1535	s	s	6	4	SIC	418	RC	1	2	02VD 02VO 02VC 09MD 02MO 02MC 02RD 02RO	1	0	0.862206935883	-463.0	291.0	-455	292	1
2.7	2015_May_07_1535	s	s	6	4	SIC	419	ABS	0	1	02VD 02VO 02VC 02MD 02MO 02MC 02RD 10RO	0	1	3.25984406471	None	None	None	None	1
2.7	2015_May_07_1535	s	s	6	4	SIC	420	RC	2	2	09VD 02VO 02VC 02MD 02MO 02MC 02RD 02RO	1	0	2.30643892288	476.0	-251.0	465	-250	1
2.7	2015_May_07_1535	s	s	6	4	SIC	421	RC	0	2	02VD 02VO 02VC 02MD 02MO 02MC 09RD 02RO	1	0	0.888638019562	-87.0	280.0	-87	273	1
2.7	2015_May_07_1535	s	s	6	4	SIC	422	ABS	1	2	02VD 02VO 02VC 10MD 02MO 02MC 02RD 02RO	0	1	1.55984997749	None	None	None	None	1
2.7	2015_May_07_1535	s	s	6	4	SIC	423	ABS	1	1	02VD 02VO 02VC 02MD 10MO 02MC 02RD 02RO	0	1	2.92533707619	None	None	None	None	1
2.7	2015_May_07_1535	s	s	6	4	SIC	424	RC	0	1	02VD 02VO 02VC 02MD 02MO 02MC 02RD 09RO	1	0	3.10675787926	254.0	-167.0	258	-160	1
2.7	2015_May_07_1535	s	s	6	4	SIC	425	RC	1	1	02VD 02VO 02VC 02MD 09MO 02MC 02RD 02RO	1	0	1.34952116013	418.0	195.0	425	194	1
2.7	2015_May_07_1535	s	s	6	4	SIC	426	RC	2	0	02VD 02VO 09VC 02MD 02MO 02MC 02RD 02RO	1	0	0.823321819305	275.0	294.0	274	298	1
2.7	2015_May_07_1535	s	s	6	4	SIC	427	ABS	2	1	02VD 10VO 02VC 02MD 02MO 02MC 02RD 02RO	0	1	2.87138700485	None	None	None	None	1
2.7	2015_May_07_1535	s	s	6	4	SIC	428	ABS	2	0	02VD 02VO 10VC 02MD 02MO 02MC 02RD 02RO	0	1	3.15395092964	None	None	None	None	1
2.7	2015_May_07_1535	s	s	6	4	SIC	429	RC	2	1	02VD 09VO 02VC 02MD 02MO 02MC 02RD 02RO	1	0	0.779796123505	384.0	167.0	374	171	1
2.7	2015_May_07_1535	s	s	6	4	SIC	430	ABS	1	0	02VD 02VO 02VC 02MD 02MO 10MC 02RD 02RO	0	1	2.84448504448	None	None	None	None	1
2.7	2015_May_07_1535	s	s	6	4	SIC	431	ABS	2	2	10VD 02VO 02VC 02MD 02MO 02MC 02RD 02RO	0	1	1.94872188568	None	None	None	None	1
2.7	2015_May_07_1535	s	s	6	4	SIC	432	ABS	0	2	02VD 02VO 02VC 02MD 02MO 02MC 10RD 02RO	0	1	2.1473441124	None	None	None	None	1
2.7	2015_May_07_1535	s	s	6	4	SIC	433	ABS	0	2	02VD 02VO 02VC 02MD 02MO 02MC 10RD 02RO	0	1	2.0945661068	None	None	None	None	1
2.7	2015_May_07_1535	s	s	6	4	SIC	434	ABS	2	1	02VD 10VO 02VC 02MD 02MO 02MC 02RD 02RO	0	1	1.54564094543	None	None	None	None	1
2.7	2015_May_07_1535	s	s	6	4	SIC	435	ABS	1	2	02VD 02VO 02VC 10MD 02MO 02MC 02RD 02RO	0	1	2.20718407631	None	None	None	None	1
2.7	2015_May_07_1535	s	s	6	4	SIC	436	RC	2	2	09VD 02VO 02VC 02MD 02MO 02MC 02RD 02RO	1	0	0.717388153076	49.0	197.0	44	201	1
2.7	2015_May_07_1535	s	s	6	4	SIC	437	RC	0	2	02VD 02VO 02VC 02MD 02MO 02MC 09RD 02RO	1	0	1.2470729351	-63.0	-137.0	-61	-128	1
2.7	2015_May_07_1535	s	s	6	4	SIC	438	RC	2	1	02VD 09VO 02VC 02MD 02MO 02MC 02RD 02RO	1	0	1.03522801399	-304.0	375.0	-293	377	1
2.7	2015_May_07_1535	s	s	6	4	SIC	439	ABS	2	0	02VD 02VO 10VC 02MD 02MO 02MC 02RD 02RO	0	1	2.30643701553	None	None	None	None	1
2.7	2015_May_07_1535	s	s	6	4	SIC	440	RC	1	0	02VD 02VO 02VC 02MD 02MO 09MC 02RD 02RO	1	0	1.95334410667	301.0	-301.0	304	-293	1
2.7	2015_May_07_1535	s	s	6	4	SIC	441	RC	1	1	02VD 02VO 02VC 02MD 09MO 02MC 02RD 02RO	1	0	3.32622814178	96.0	-405.0	99	-415	1
2.7	2015_May_07_1535	s	s	6	4	SIC	442	ABS	1	0	02VD 02VO 02VC 02MD 02MO 10MC 02RD 02RO	0	1	2.36508488655	None	None	None	None	1
2.7	2015_May_07_1535	s	s	6	4	SIC	443	RC	1	2	02VD 02VO 02VC 09MD 02MO 02MC 02RD 02RO	1	0	1.89003705978	-240.0	-314.0	-233	-313	1
2.7	2015_May_07_1535	s	s	6	4	SIC	444	ABS	0	1	02VD 02VO 02VC 02MD 02MO 02MC 02RD 10RO	0	1	3.0867421627	None	None	None	None	1
2.7	2015_May_07_1535	s	s	6	4	SIC	445	RC	2	0	02VD 02VO 09VC 02MD 02MO 02MC 02RD 02RO	1	0	0.835474014282	-346.0	199.0	-336	200	1
2.7	2015_May_07_1535	s	s	6	4	SIC	446	ABS	2	2	10VD 02VO 02VC 02MD 02MO 02MC 02RD 02RO	0	1	2.45392894745	None	None	None	None	1
2.7	2015_May_07_1535	s	s	6	4	SIC	447	RC	0	1	02VD 02VO 02VC 02MD 02MO 02MC 02RD 09RO	1	0	2.77472996712	-207.0	179.0	-204	174	1
2.7	2015_May_07_1535	s	s	6	4	SIC	448	ABS	1	1	02VD 02VO 02VC 02MD 10MO 02MC 02RD 02RO	0	1	3.4671561718	None	None	None	None	1
2.7	2015_May_07_1535	s	s	6	4	SIC	449	RC	1	0	02VD 02VO 02VC 02MD 02MO 09MC 02RD 02RO	1	0	3.66904711723	-442.0	14.0	-433	23	1
2.7	2015_May_07_1535	s	s	6	4	SIC	450	RC	2	0	02VD 02VO 09VC 02MD 02MO 02MC 02RD 02RO	1	0	0.863953828812	192.0	-62.0	200	-60	1
2.7	2015_May_07_1535	s	s	6	4	SIC	451	ABS	0	1	02VD 02VO 02VC 02MD 02MO 02MC 02RD 10RO	0	1	3.6365377903	None	None	None	None	1
2.7	2015_May_07_1535	s	s	6	4	SIC	452	RC	2	1	02VD 09VO 02VC 02MD 02MO 02MC 02RD 02RO	1	0	2.56888794899	492.0	-398.0	491	-398	1
2.7	2015_May_07_1535	s	s	6	4	SIC	453	RC	2	2	09VD 02VO 02VC 02MD 02MO 02MC 02RD 02RO	1	0	0.929308176041	-328.0	347.0	-338	348	1
2.7	2015_May_07_1535	s	s	6	4	SIC	454	RC	0	1	02VD 02VO 02VC 02MD 02MO 02MC 02RD 09RO	1	0	2.3363711834	348.0	7.0	347	10	1
2.7	2015_May_07_1535	s	s	6	4	SIC	455	ABS	2	1	02VD 10VO 02VC 02MD 02MO 02MC 02RD 02RO	0	1	2.08267998695	None	None	None	None	1
2.7	2015_May_07_1535	s	s	6	4	SIC	456	ABS	1	1	02VD 02VO 02VC 02MD 10MO 02MC 02RD 02RO	0	1	2.37190389633	None	None	None	None	1
2.7	2015_May_07_1535	s	s	6	4	SIC	457	ABS	1	0	02VD 02VO 02VC 02MD 02MO 10MC 02RD 02RO	0	1	2.76545500755	None	None	None	None	1
2.7	2015_May_07_1535	s	s	6	4	SIC	458	RC	0	2	02VD 02VO 02VC 02MD 02MO 02MC 09RD 02RO	1	0	3.03119397163	-251.0	-83.0	-258	-82	1
2.7	2015_May_07_1535	s	s	6	4	SIC	459	RC	1	2	02VD 02VO 02VC 09MD 02MO 02MC 02RD 02RO	1	0	0.693763017654	33.0	-208.0	40	-211	1
2.7	2015_May_07_1535	s	s	6	4	SIC	460	ABS	0	2	02VD 02VO 02VC 02MD 02MO 02MC 10RD 02RO	0	1	1.69446587563	None	None	None	None	1
2.7	2015_May_07_1535	s	s	6	4	SIC	461	RC	1	1	02VD 02VO 02VC 02MD 09MO 02MC 02RD 02RO	1	0	0.877101898193	-130.0	345.0	-138	348	1
2.7	2015_May_07_1535	s	s	6	4	SIC	462	ABS	2	2	10VD 02VO 02VC 02MD 02MO 02MC 02RD 02RO	0	1	1.95814299583	None	None	None	None	1
2.7	2015_May_07_1535	s	s	6	4	SIC	463	ABS	1	2	02VD 02VO 02VC 10MD 02MO 02MC 02RD 02RO	0	1	1.80024790764	None	None	None	None	1
2.7	2015_May_07_1535	s	s	6	4	SIC	464	ABS	2	0	02VD 02VO 10VC 02MD 02MO 02MC 02RD 02RO	0	1	2.52494096756	None	None	None	None	1
2.7	2015_May_07_1535	s	s	6	4	SIC	465	RC	1	0	02VD 02VO 02VC 02MD 02MO 09MC 02RD 02RO	1	0	1.04700613022	84.0	5.0	92	3	1
2.7	2015_May_07_1535	s	s	6	4	SIC	466	ABS	1	0	02VD 02VO 02VC 02MD 02MO 10MC 02RD 02RO	0	1	3.13035106659	None	None	None	None	1
2.7	2015_May_07_1535	s	s	6	4	SIC	467	ABS	1	1	02VD 02VO 02VC 02MD 10MO 02MC 02RD 02RO	0	1	2.05924391747	None	None	None	None	1
2.7	2015_May_07_1535	s	s	6	4	SIC	468	ABS	0	1	02VD 02VO 02VC 02MD 02MO 02MC 02RD 10RO	0	1	3.05613279343	None	None	None	None	1
2.7	2015_May_07_1535	s	s	6	4	SIC	469	ABS	2	2	10VD 02VO 02VC 02MD 02MO 02MC 02RD 02RO	0	1	2.21949386597	None	None	None	None	1
2.7	2015_May_07_1535	s	s	6	4	SIC	470	RC	2	1	02VD 09VO 02VC 02MD 02MO 02MC 02RD 02RO	1	0	1.94154500961	501.0	135.0	492	133	1
2.7	2015_May_07_1535	s	s	6	4	SIC	471	RC	0	1	02VD 02VO 02VC 02MD 02MO 02MC 02RD 09RO	1	0	1.0304479599	370.0	236.0	378	242	1
2.7	2015_May_07_1535	s	s	6	4	SIC	472	ABS	1	2	02VD 02VO 02VC 10MD 02MO 02MC 02RD 02RO	0	1	2.8546640873	None	None	None	None	1
2.7	2015_May_07_1535	s	s	6	4	SIC	473	ABS	2	0	02VD 02VO 10VC 02MD 02MO 02MC 02RD 02RO	0	1	2.4317817688	None	None	None	None	1
2.7	2015_May_07_1535	s	s	6	4	SIC	474	ABS	0	2	02VD 02VO 02VC 02MD 02MO 02MC 10RD 02RO	0	1	3.80128407478	None	None	None	None	1
2.7	2015_May_07_1535	s	s	6	4	SIC	475	ABS	2	1	02VD 10VO 02VC 02MD 02MO 02MC 02RD 02RO	0	1	3.12696003914	None	None	None	None	1
2.7	2015_May_07_1535	s	s	6	4	SIC	476	RC	2	0	02VD 02VO 09VC 02MD 02MO 02MC 02RD 02RO	1	0	1.65549397469	360.0	-380.0	346	-374	1
2.7	2015_May_07_1535	s	s	6	4	SIC	477	RC	1	1	02VD 02VO 02VC 02MD 09MO 02MC 02RD 02RO	1	0	2.04250001907	-62.0	-225.0	-77	-219	1
2.7	2015_May_07_1535	s	s	6	4	SIC	478	RC	0	2	02VD 02VO 02VC 02MD 02MO 02MC 09RD 02RO	1	0	0.97629404068	223.0	221.0	228	229	1
2.7	2015_May_07_1535	s	s	6	4	SIC	479	RC	1	2	02VD 02VO 02VC 09MD 02MO 02MC 02RD 02RO	1	0	0.701962947845	120.0	228.0	128	237	1
2.7	2015_May_07_1535	s	s	6	4	SIC	480	RC	2	2	09VD 02VO 02VC 02MD 02MO 02MC 02RD 02RO	1	0	0.787961006165	235.0	328.0	229	323	1
