Version	Date	Stimuli	Method	Subject	Session	Condition	Trial	Target	Channel1	Channel2	Distractors	LMouseButton	RMouseButton	RT	TargetX	TargetY	ResponseX	ResponseY	Correct
2.7	2015_May_06_1505	s	s	6	3	Capacity	1	ABS	2	0	16VC 08MC	0	1	2.4828851223	None	None	None	None	1
2.7	2015_May_06_1505	s	s	6	3	Capacity	2	ABS	1	0	08VC 16MC	0	1	2.37724590302	None	None	None	None	1
2.7	2015_May_06_1505	s	s	6	3	Capacity	3	RC	2	0	15VC 08MC	1	0	0.694068908691	-200.0	202.0	-198	188	1
2.7	2015_May_06_1505	s	s	6	3	Capacity	4	RC	1	0	08VC 15MC	1	0	1.02341389656	352.0	124.0	354	122	1
2.7	2015_May_06_1505	s	s	6	3	Capacity	5	ABS	1	0	08VC 16MC	0	1	2.28298592567	None	None	None	None	1
2.7	2015_May_06_1505	s	s	6	3	Capacity	6	RC	2	0	15VC 08MC	1	0	0.947031974792	391.0	-19.0	393	-17	1
2.7	2015_May_06_1505	s	s	6	3	Capacity	7	RC	1	0	08VC 15MC	1	0	1.69452095032	-81.0	166.0	-76	172	1
2.7	2015_May_06_1505	s	s	6	3	Capacity	8	ABS	2	0	16VC 08MC	0	1	1.75955796242	None	None	None	None	1
2.7	2015_May_06_1505	s	s	6	3	Capacity	9	RC	1	0	08VC 15MC	1	0	1.55998706818	-336.0	-252.0	-339	-254	1
2.7	2015_May_06_1505	s	s	6	3	Capacity	10	ABS	1	0	08VC 16MC	0	1	2.28992605209	None	None	None	None	1
2.7	2015_May_06_1505	s	s	6	3	Capacity	11	RC	2	0	15VC 08MC	1	0	0.820960044861	393.0	-145.0	400	-147	1
2.7	2015_May_06_1505	s	s	6	3	Capacity	12	ABS	2	0	16VC 08MC	0	1	1.86652898788	None	None	None	None	1
2.7	2015_May_06_1505	s	s	6	3	Capacity	13	RC	1	0	08VC 15MC	1	0	0.61762714386	244.0	44.0	241	42	1
2.7	2015_May_06_1505	s	s	6	3	Capacity	14	ABS	1	0	08VC 16MC	0	1	2.96097588539	None	None	None	None	1
2.7	2015_May_06_1505	s	s	6	3	Capacity	15	ABS	2	0	16VC 08MC	0	1	1.98378014565	None	None	None	None	1
2.7	2015_May_06_1505	s	s	6	3	Capacity	16	RC	2	0	15VC 08MC	1	0	0.729171037674	418.0	346.0	409	346	1
2.7	2015_May_06_1505	s	s	6	3	Capacity	17	RC	2	0	15VC 08MC	1	0	0.997334003448	-194.0	-153.0	-186	-153	1
2.7	2015_May_06_1505	s	s	6	3	Capacity	18	ABS	1	0	08VC 16MC	0	1	2.15098190308	None	None	None	None	1
2.7	2015_May_06_1505	s	s	6	3	Capacity	19	ABS	2	0	16VC 08MC	0	1	2.04163694382	None	None	None	None	1
2.7	2015_May_06_1505	s	s	6	3	Capacity	20	RC	1	0	08VC 15MC	1	0	1.51783418655	-477.0	-319.0	-467	-318	1
2.7	2015_May_06_1505	s	s	6	3	Capacity	21	ABS	2	0	16VC 08MC	0	1	2.24435305595	None	None	None	None	1
2.7	2015_May_06_1505	s	s	6	3	Capacity	22	RC	1	0	08VC 15MC	1	0	1.22054386139	-63.0	-196.0	-74	-196	1
2.7	2015_May_06_1505	s	s	6	3	Capacity	23	RC	2	0	15VC 08MC	1	0	1.35306811333	-286.0	-364.0	-289	-363	1
2.7	2015_May_06_1505	s	s	6	3	Capacity	24	ABS	1	0	08VC 16MC	0	1	1.9805791378	None	None	None	None	1
2.7	2015_May_06_1505	s	s	6	3	Capacity	25	ABS	1	0	08VC 16MC	0	1	2.1016690731	None	None	None	None	1
2.7	2015_May_06_1505	s	s	6	3	Capacity	26	ABS	2	0	16VC 08MC	0	1	1.91801810265	None	None	None	None	1
2.7	2015_May_06_1505	s	s	6	3	Capacity	27	RC	1	0	08VC 15MC	1	0	0.752707958221	322.0	387.0	331	384	1
2.7	2015_May_06_1505	s	s	6	3	Capacity	28	RC	2	0	15VC 08MC	1	0	0.724873065948	507.0	-163.0	502	-159	1
2.7	2015_May_06_1505	s	s	6	3	Capacity	29	ABS	1	0	08VC 16MC	0	1	2.18518996239	None	None	None	None	1
2.7	2015_May_06_1505	s	s	6	3	Capacity	30	RC	1	0	08VC 15MC	1	0	0.917216062546	-413.0	-237.0	-405	-237	1
2.7	2015_May_06_1505	s	s	6	3	Capacity	31	ABS	2	0	16VC 08MC	0	1	1.70142316818	None	None	None	None	1
2.7	2015_May_06_1505	s	s	6	3	Capacity	32	RC	2	0	15VC 08MC	1	0	0.768193006516	-171.0	-220.0	-161	-220	1
2.7	2015_May_06_1505	s	s	6	3	Capacity	33	RC	2	0	15VC 08MC	1	0	0.630072116852	-530.0	-382.0	-532	-378	1
2.7	2015_May_06_1505	s	s	6	3	Capacity	34	RC	1	0	08VC 15MC	1	0	1.1477689743	-360.0	408.0	-358	406	1
2.7	2015_May_06_1505	s	s	6	3	Capacity	35	ABS	1	0	08VC 16MC	0	1	2.06592106819	None	None	None	None	1
2.7	2015_May_06_1505	s	s	6	3	Capacity	36	ABS	2	0	16VC 08MC	0	1	2.45330691338	None	None	None	None	1
2.7	2015_May_06_1505	s	s	6	3	Capacity	37	RC	2	0	15VC 08MC	1	0	1.22008991241	526.0	207.0	533	207	1
2.7	2015_May_06_1505	s	s	6	3	Capacity	38	ABS	2	0	16VC 08MC	0	1	2.31805205345	None	None	None	None	1
2.7	2015_May_06_1505	s	s	6	3	Capacity	39	RC	1	0	08VC 15MC	1	0	0.726646900177	101.0	-2.0	106	-7	1
2.7	2015_May_06_1505	s	s	6	3	Capacity	40	ABS	1	0	08VC 16MC	0	1	2.08649277687	None	None	None	None	1
2.7	2015_May_06_1505	s	s	6	3	Capacity	41	RC	2	0	15VC 08MC	1	0	0.903167963028	445.0	331.0	446	335	1
2.7	2015_May_06_1505	s	s	6	3	Capacity	42	ABS	2	0	16VC 08MC	0	1	1.62372016907	None	None	None	None	1
2.7	2015_May_06_1505	s	s	6	3	Capacity	43	RC	1	0	08VC 15MC	1	0	0.850630998611	-310.0	-103.0	-311	-93	1
2.7	2015_May_06_1505	s	s	6	3	Capacity	44	ABS	1	0	08VC 16MC	0	1	2.8949341774	None	None	None	None	1
2.7	2015_May_06_1505	s	s	6	3	Capacity	45	RC	2	0	15VC 08MC	1	0	1.00678896904	137.0	-301.0	140	-293	1
2.7	2015_May_06_1505	s	s	6	3	Capacity	46	RC	1	0	08VC 15MC	1	0	0.787987947464	15.0	341.0	26	347	1
2.7	2015_May_06_1505	s	s	6	3	Capacity	47	ABS	1	0	08VC 16MC	0	1	1.84738302231	None	None	None	None	1
2.7	2015_May_06_1505	s	s	6	3	Capacity	48	ABS	2	0	16VC 08MC	0	1	2.18879699707	None	None	None	None	1
2.7	2015_May_06_1505	s	s	6	3	Capacity	49	ABS	1	0	08VC 16MC	0	1	2.49847388268	None	None	None	None	1
2.7	2015_May_06_1505	s	s	6	3	Capacity	50	RC	2	0	15VC 08MC	1	0	1.13305091858	-196.0	270.0	-198	271	1
2.7	2015_May_06_1505	s	s	6	3	Capacity	51	ABS	2	0	16VC 08MC	0	1	2.00746107101	None	None	None	None	1
2.7	2015_May_06_1505	s	s	6	3	Capacity	52	RC	1	0	08VC 15MC	1	0	0.938211917877	-523.0	-346.0	-528	-345	1
2.7	2015_May_06_1505	s	s	6	3	Capacity	53	ABS	1	0	08VC 16MC	0	1	2.59525299072	None	None	None	None	1
2.7	2015_May_06_1505	s	s	6	3	Capacity	54	RC	1	0	08VC 15MC	1	0	0.796409130096	-331.0	-74.0	-333	-72	1
2.7	2015_May_06_1505	s	s	6	3	Capacity	55	ABS	2	0	16VC 08MC	0	1	1.37654805183	None	None	None	None	1
2.7	2015_May_06_1505	s	s	6	3	Capacity	56	RC	2	0	15VC 08MC	1	0	0.608884096146	-379.0	290.0	-373	286	1
2.7	2015_May_06_1505	s	s	6	3	Capacity	57	ABS	2	0	16VC 08MC	0	1	1.85914087296	None	None	None	None	1
2.7	2015_May_06_1505	s	s	6	3	Capacity	58	RC	1	0	08VC 15MC	1	0	0.746942996979	442.0	-202.0	447	-201	1
2.7	2015_May_06_1505	s	s	6	3	Capacity	59	RC	2	0	15VC 08MC	1	0	1.13622522354	-188.0	97.0	-185	96	1
2.7	2015_May_06_1505	s	s	6	3	Capacity	60	ABS	1	0	08VC 16MC	0	1	1.67080593109	None	None	None	None	1
2.7	2015_May_06_1505	s	s	6	3	Capacity	61	RC	1	0	08VC 15MC	1	0	1.14486098289	-160.0	-300.0	-157	-306	1
2.7	2015_May_06_1505	s	s	6	3	Capacity	62	ABS	2	0	16VC 08MC	0	1	1.38018107414	None	None	None	None	1
2.7	2015_May_06_1505	s	s	6	3	Capacity	63	RC	2	0	15VC 08MC	1	0	1.10562801361	-496.0	-213.0	-498	-211	1
2.7	2015_May_06_1505	s	s	6	3	Capacity	64	ABS	1	0	08VC 16MC	0	1	1.42362594604	None	None	None	None	1
2.7	2015_May_06_1505	s	s	6	3	Capacity	1	ABS	0	2	16RD 08RO	0	1	2.61928701401	None	None	None	None	1
2.7	2015_May_06_1505	s	s	6	3	Capacity	2	RC	0	1	08RD 15RO	1	0	0.794064998627	-176.0	34.0	-169	32	1
2.7	2015_May_06_1505	s	s	6	3	Capacity	3	ABS	0	1	08RD 16RO	0	1	3.84929513931	None	None	None	None	1
2.7	2015_May_06_1505	s	s	6	3	Capacity	4	RC	0	2	15RD 08RO	1	0	1.98889303207	486.0	-74.0	486	-67	1
2.7	2015_May_06_1505	s	s	6	3	Capacity	5	RC	0	2	15RD 08RO	1	0	1.20663499832	-28.0	338.0	-35	339	1
2.7	2015_May_06_1505	s	s	6	3	Capacity	6	ABS	0	1	08RD 16RO	0	1	3.68352794647	None	None	None	None	1
2.7	2015_May_06_1505	s	s	6	3	Capacity	7	ABS	0	2	16RD 08RO	0	1	2.60069203377	None	None	None	None	1
2.7	2015_May_06_1505	s	s	6	3	Capacity	8	RC	0	1	08RD 15RO	1	0	1.81885313988	-111.0	-190.0	-113	-188	1
2.7	2015_May_06_1505	s	s	6	3	Capacity	9	ABS	0	1	08RD 16RO	0	1	3.97777199745	None	None	None	None	1
2.7	2015_May_06_1505	s	s	6	3	Capacity	10	RC	0	2	15RD 08RO	1	0	1.31769394875	84.0	-203.0	83	-208	1
2.7	2015_May_06_1505	s	s	6	3	Capacity	11	RC	0	1	08RD 15RO	1	0	1.31275606155	-435.0	-383.0	-426	-377	1
2.7	2015_May_06_1505	s	s	6	3	Capacity	12	ABS	0	2	16RD 08RO	0	1	2.24423909187	None	None	None	None	1
2.7	2015_May_06_1505	s	s	6	3	Capacity	13	ABS	0	2	16RD 08RO	0	1	2.10623192787	None	None	None	None	1
2.7	2015_May_06_1505	s	s	6	3	Capacity	14	RC	0	2	15RD 08RO	1	0	0.964567899704	332.0	91.0	322	95	1
2.7	2015_May_06_1505	s	s	6	3	Capacity	15	RC	0	1	08RD 15RO	1	0	2.19750714302	252.0	-202.0	262	-204	1
2.7	2015_May_06_1505	s	s	6	3	Capacity	16	ABS	0	1	08RD 16RO	0	1	3.41979694366	None	None	None	None	1
2.7	2015_May_06_1505	s	s	6	3	Capacity	17	RC	0	1	08RD 15RO	1	0	1.64725112915	-194.0	-285.0	-184	-286	1
2.7	2015_May_06_1505	s	s	6	3	Capacity	18	ABS	0	1	08RD 16RO	0	1	3.7032430172	None	None	None	None	1
2.7	2015_May_06_1505	s	s	6	3	Capacity	19	RC	0	2	15RD 08RO	1	0	1.84737491608	-352.0	-96.0	-365	-92	1
2.7	2015_May_06_1505	s	s	6	3	Capacity	20	ABS	0	2	16RD 08RO	0	1	2.40059518814	None	None	None	None	1
2.7	2015_May_06_1505	s	s	6	3	Capacity	21	ABS	0	2	16RD 08RO	0	1	2.43589282036	None	None	None	None	1
2.7	2015_May_06_1505	s	s	6	3	Capacity	22	RC	0	1	08RD 15RO	1	0	1.8534309864	24.0	-217.0	31	-208	1
2.7	2015_May_06_1505	s	s	6	3	Capacity	23	RC	0	2	15RD 08RO	1	0	1.76495289803	-475.0	-116.0	-464	-114	1
2.7	2015_May_06_1505	s	s	6	3	Capacity	24	ABS	0	1	08RD 16RO	0	1	3.66700100899	None	None	None	None	1
2.7	2015_May_06_1505	s	s	6	3	Capacity	25	ABS	0	1	08RD 16RO	0	1	4.46044898033	None	None	None	None	1
2.7	2015_May_06_1505	s	s	6	3	Capacity	26	ABS	0	2	16RD 08RO	0	1	2.76050901413	None	None	None	None	1
2.7	2015_May_06_1505	s	s	6	3	Capacity	27	RC	0	2	15RD 08RO	1	0	1.76496100426	-382.0	286.0	-389	286	1
2.7	2015_May_06_1505	s	s	6	3	Capacity	28	RC	0	1	08RD 15RO	1	0	0.846801996231	-21.0	298.0	-15	289	1
2.7	2015_May_06_1505	s	s	6	3	Capacity	29	ABS	0	1	08RD 16RO	0	1	4.67914795876	None	None	None	None	1
2.7	2015_May_06_1505	s	s	6	3	Capacity	30	RC	0	1	08RD 15RO	1	0	1.99470114708	421.0	-210.0	425	-203	1
2.7	2015_May_06_1505	s	s	6	3	Capacity	31	ABS	0	2	16RD 08RO	0	1	2.47119903564	None	None	None	None	1
2.7	2015_May_06_1505	s	s	6	3	Capacity	32	RC	0	2	15RD 08RO	1	0	1.7967300415	-296.0	338.0	-300	343	1
2.7	2015_May_06_1505	s	s	6	3	Capacity	33	RC	0	2	15RD 08RO	1	0	1.69464898109	34.0	-28.0	39	-39	1
2.7	2015_May_06_1505	s	s	6	3	Capacity	34	ABS	0	1	08RD 16RO	0	1	3.40843510628	None	None	None	None	1
2.7	2015_May_06_1505	s	s	6	3	Capacity	35	RC	0	1	08RD 15RO	1	0	1.69107699394	-117.0	114.0	-111	121	1
2.7	2015_May_06_1505	s	s	6	3	Capacity	36	ABS	0	2	16RD 08RO	0	1	2.02395105362	None	None	None	None	1
2.7	2015_May_06_1505	s	s	6	3	Capacity	37	RC	0	2	15RD 08RO	1	0	2.0356760025	-75.0	-228.0	-68	-229	1
2.7	2015_May_06_1505	s	s	6	3	Capacity	38	RC	0	1	08RD 15RO	1	0	1.99770689011	-241.0	72.0	-229	79	1
2.7	2015_May_06_1505	s	s	6	3	Capacity	39	ABS	0	2	16RD 08RO	0	1	2.17189097404	None	None	None	None	1
2.7	2015_May_06_1505	s	s	6	3	Capacity	40	ABS	0	1	08RD 16RO	0	1	3.94937586784	None	None	None	None	1
2.7	2015_May_06_1505	s	s	6	3	Capacity	41	RC	0	2	15RD 08RO	1	0	0.862305164337	423.0	64.0	410	72	1
2.7	2015_May_06_1505	s	s	6	3	Capacity	42	ABS	0	2	16RD 08RO	0	1	2.47542095184	None	None	None	None	1
2.7	2015_May_06_1505	s	s	6	3	Capacity	43	RC	0	1	08RD 15RO	1	0	1.15961503983	451.0	152.0	458	152	1
2.7	2015_May_06_1505	s	s	6	3	Capacity	44	ABS	0	1	08RD 16RO	0	1	3.23628497124	None	None	None	None	1
2.7	2015_May_06_1505	s	s	6	3	Capacity	45	RC	0	2	15RD 08RO	1	0	1.5606648922	-244.0	-67.0	-235	-57	1
2.7	2015_May_06_1505	s	s	6	3	Capacity	46	ABS	0	1	08RD 16RO	0	1	2.73005795479	None	None	None	None	1
2.7	2015_May_06_1505	s	s	6	3	Capacity	47	ABS	0	2	16RD 08RO	0	1	1.83018898964	None	None	None	None	1
2.7	2015_May_06_1505	s	s	6	3	Capacity	48	RC	0	1	08RD 15RO	1	0	1.27754402161	-395.0	-86.0	-395	-92	1
2.7	2015_May_06_1505	s	s	6	3	Capacity	49	ABS	0	2	16RD 08RO	0	1	1.91798305511	None	None	None	None	1
2.7	2015_May_06_1505	s	s	6	3	Capacity	50	RC	0	2	15RD 08RO	1	0	1.32977604866	-67.0	-388.0	-75	-394	1
2.7	2015_May_06_1505	s	s	6	3	Capacity	51	RC	0	1	08RD 15RO	1	0	2.92522192001	114.0	331.0	108	333	1
2.7	2015_May_06_1505	s	s	6	3	Capacity	52	ABS	0	1	08RD 16RO	0	1	3.47160410881	None	None	None	None	1
2.7	2015_May_06_1505	s	s	6	3	Capacity	53	RC	0	1	08RD 15RO	1	0	2.63116621971	-500.0	-330.0	-511	-328	1
2.7	2015_May_06_1505	s	s	6	3	Capacity	54	RC	0	2	15RD 08RO	1	0	0.700778007507	264.0	107.0	263	99	1
2.7	2015_May_06_1505	s	s	6	3	Capacity	55	ABS	0	2	16RD 08RO	0	1	2.83305382729	None	None	None	None	1
2.7	2015_May_06_1505	s	s	6	3	Capacity	56	ABS	0	1	08RD 16RO	0	1	3.08331394196	None	None	None	None	1
2.7	2015_May_06_1505	s	s	6	3	Capacity	57	ABS	0	1	08RD 16RO	0	1	3.77754807472	None	None	None	None	1
2.7	2015_May_06_1505	s	s	6	3	Capacity	58	ABS	0	2	16RD 08RO	0	1	1.71290206909	None	None	None	None	1
2.7	2015_May_06_1505	s	s	6	3	Capacity	59	RC	0	1	08RD 15RO	1	0	2.54839086533	252.0	163.0	261	159	1
2.7	2015_May_06_1505	s	s	6	3	Capacity	60	RC	0	2	15RD 08RO	1	0	1.14727520943	79.0	-306.0	82	-310	1
2.7	2015_May_06_1505	s	s	6	3	Capacity	61	ABS	0	1	08RD 16RO	0	1	4.49578404427	None	None	None	None	1
2.7	2015_May_06_1505	s	s	6	3	Capacity	62	RC	0	1	08RD 15RO	1	0	1.258852005	124.0	144.0	109	151	1
2.7	2015_May_06_1505	s	s	6	3	Capacity	63	ABS	0	2	16RD 08RO	1	0	1.62363290787	None	None	64	-86	0
2.7	2015_May_06_1505	s	s	6	3	Capacity	64	RC	0	2	15RD 08RO	1	0	1.03515315056	28.0	-102.0	30	-106	1
2.7	2015_May_06_1505	s	s	6	3	SIC	1	RC	1	2	02VD 02VO 02VC 09MD 02MO 02MC 02RD 02RO	1	0	1.85906219482	-42.0	-384.0	-27	-376	1
2.7	2015_May_06_1505	s	s	6	3	SIC	2	ABS	0	2	02VD 02VO 02VC 02MD 02MO 02MC 10RD 02RO	0	1	2.14165401459	None	None	None	None	1
2.7	2015_May_06_1505	s	s	6	3	SIC	3	ABS	1	0	02VD 02VO 02VC 02MD 02MO 10MC 02RD 02RO	0	1	2.65946602821	None	None	None	None	1
2.7	2015_May_06_1505	s	s	6	3	SIC	4	ABS	2	1	02VD 10VO 02VC 02MD 02MO 02MC 02RD 02RO	0	1	2.16027498245	None	None	None	None	1
2.7	2015_May_06_1505	s	s	6	3	SIC	5	RC	0	2	02VD 02VO 02VC 02MD 02MO 02MC 09RD 02RO	1	0	1.82829999924	-475.0	2.0	-474	8	1
2.7	2015_May_06_1505	s	s	6	3	SIC	6	ABS	1	1	02VD 02VO 02VC 02MD 10MO 02MC 02RD 02RO	0	1	1.71297883987	None	None	None	None	1
2.7	2015_May_06_1505	s	s	6	3	SIC	7	ABS	0	1	02VD 02VO 02VC 02MD 02MO 02MC 02RD 10RO	0	1	3.10678100586	None	None	None	None	1
2.7	2015_May_06_1505	s	s	6	3	SIC	8	RC	2	1	02VD 09VO 02VC 02MD 02MO 02MC 02RD 02RO	1	0	1.43016505241	172.0	283.0	172	289	1
2.7	2015_May_06_1505	s	s	6	3	SIC	9	ABS	1	2	02VD 02VO 02VC 10MD 02MO 02MC 02RD 02RO	0	1	1.82383298874	None	None	None	None	1
2.7	2015_May_06_1505	s	s	6	3	SIC	10	ABS	2	2	10VD 02VO 02VC 02MD 02MO 02MC 02RD 02RO	0	1	2.00073885918	None	None	None	None	1
2.7	2015_May_06_1505	s	s	6	3	SIC	11	RC	0	1	02VD 02VO 02VC 02MD 02MO 02MC 02RD 09RO	1	0	1.71816897392	121.0	239.0	126	232	1
2.7	2015_May_06_1505	s	s	6	3	SIC	12	RC	1	0	02VD 02VO 02VC 02MD 02MO 09MC 02RD 02RO	1	0	1.50676512718	-210.0	-283.0	-213	-277	1
2.7	2015_May_06_1505	s	s	6	3	SIC	13	ABS	2	0	02VD 02VO 10VC 02MD 02MO 02MC 02RD 02RO	0	1	2.28052401543	None	None	None	None	1
2.7	2015_May_06_1505	s	s	6	3	SIC	14	RC	1	1	02VD 02VO 02VC 02MD 09MO 02MC 02RD 02RO	1	0	2.55354499817	351.0	20.0	357	19	1
2.7	2015_May_06_1505	s	s	6	3	SIC	15	RC	2	0	02VD 02VO 09VC 02MD 02MO 02MC 02RD 02RO	1	0	0.971247911453	-315.0	340.0	-320	334	1
2.7	2015_May_06_1505	s	s	6	3	SIC	16	RC	2	2	09VD 02VO 02VC 02MD 02MO 02MC 02RD 02RO	1	0	1.01171112061	-335.0	227.0	-338	230	1
2.7	2015_May_06_1505	s	s	6	3	SIC	17	RC	0	2	02VD 02VO 02VC 02MD 02MO 02MC 09RD 02RO	1	0	0.771082878113	-370.0	-76.0	-361	-79	1
2.7	2015_May_06_1505	s	s	6	3	SIC	18	ABS	1	1	02VD 02VO 02VC 02MD 10MO 02MC 02RD 02RO	0	1	2.54183006287	None	None	None	None	1
2.7	2015_May_06_1505	s	s	6	3	SIC	19	ABS	0	2	02VD 02VO 02VC 02MD 02MO 02MC 10RD 02RO	0	1	2.43588590622	None	None	None	None	1
2.7	2015_May_06_1505	s	s	6	3	SIC	20	RC	0	1	02VD 02VO 02VC 02MD 02MO 02MC 02RD 09RO	1	0	2.49476790428	-231.0	-324.0	-222	-325	1
2.7	2015_May_06_1505	s	s	6	3	SIC	21	ABS	2	0	02VD 02VO 10VC 02MD 02MO 02MC 02RD 02RO	0	1	1.83553004265	None	None	None	None	1
2.7	2015_May_06_1505	s	s	6	3	SIC	22	RC	2	1	02VD 09VO 02VC 02MD 02MO 02MC 02RD 02RO	1	0	0.820065021515	157.0	-71.0	155	-70	1
2.7	2015_May_06_1505	s	s	6	3	SIC	23	ABS	2	1	02VD 10VO 02VC 02MD 02MO 02MC 02RD 02RO	0	1	1.8473610878	None	None	None	None	1
2.7	2015_May_06_1505	s	s	6	3	SIC	24	ABS	1	0	02VD 02VO 02VC 02MD 02MO 10MC 02RD 02RO	0	1	3.37755203247	None	None	None	None	1
2.7	2015_May_06_1505	s	s	6	3	SIC	25	RC	1	0	02VD 02VO 02VC 02MD 02MO 09MC 02RD 02RO	1	0	1.09404993057	-27.0	-262.0	-27	-257	1
2.7	2015_May_06_1505	s	s	6	3	SIC	26	RC	1	2	02VD 02VO 02VC 09MD 02MO 02MC 02RD 02RO	1	0	1.37319898605	31.0	-387.0	43	-386	1
2.7	2015_May_06_1505	s	s	6	3	SIC	27	RC	1	1	02VD 02VO 02VC 02MD 09MO 02MC 02RD 02RO	1	0	0.806688070297	-251.0	79.0	-262	79	1
2.7	2015_May_06_1505	s	s	6	3	SIC	28	ABS	2	2	10VD 02VO 02VC 02MD 02MO 02MC 02RD 02RO	0	1	1.53620219231	None	None	None	None	1
2.7	2015_May_06_1505	s	s	6	3	SIC	29	ABS	1	2	02VD 02VO 02VC 10MD 02MO 02MC 02RD 02RO	0	1	2.14162397385	None	None	None	None	1
2.7	2015_May_06_1505	s	s	6	3	SIC	30	RC	2	0	02VD 02VO 09VC 02MD 02MO 02MC 02RD 02RO	1	0	1.20370602608	-88.0	-158.0	-84	-154	1
2.7	2015_May_06_1505	s	s	6	3	SIC	31	ABS	0	1	02VD 02VO 02VC 02MD 02MO 02MC 02RD 10RO	0	1	3.33047389984	None	None	None	None	1
2.7	2015_May_06_1505	s	s	6	3	SIC	32	RC	2	2	09VD 02VO 02VC 02MD 02MO 02MC 02RD 02RO	1	0	1.61874389648	456.0	-123.0	453	-119	1
2.7	2015_May_06_1505	s	s	6	3	SIC	33	ABS	2	0	02VD 02VO 10VC 02MD 02MO 02MC 02RD 02RO	0	1	1.74973487854	None	None	None	None	1
2.7	2015_May_06_1505	s	s	6	3	SIC	34	ABS	1	1	02VD 02VO 02VC 02MD 10MO 02MC 02RD 02RO	0	1	2.52467799187	None	None	None	None	1
2.7	2015_May_06_1505	s	s	6	3	SIC	35	RC	0	2	02VD 02VO 02VC 02MD 02MO 02MC 09RD 02RO	1	0	1.03523612022	94.0	-179.0	85	-176	1
2.7	2015_May_06_1505	s	s	6	3	SIC	36	RC	1	2	02VD 02VO 02VC 09MD 02MO 02MC 02RD 02RO	1	0	1.73631310463	-87.0	248.0	-90	246	1
2.7	2015_May_06_1505	s	s	6	3	SIC	37	ABS	2	1	02VD 10VO 02VC 02MD 02MO 02MC 02RD 02RO	0	1	1.78332209587	None	None	None	None	1
2.7	2015_May_06_1505	s	s	6	3	SIC	38	RC	0	1	02VD 02VO 02VC 02MD 02MO 02MC 02RD 09RO	1	0	0.858591079712	-32.0	395.0	-39	398	1
2.7	2015_May_06_1505	s	s	6	3	SIC	39	RC	2	2	09VD 02VO 02VC 02MD 02MO 02MC 02RD 02RO	1	0	0.866801977158	-30.0	-302.0	-29	-304	1
2.7	2015_May_06_1505	s	s	6	3	SIC	40	RC	2	0	02VD 02VO 09VC 02MD 02MO 02MC 02RD 02RO	1	0	1.06246900558	225.0	-412.0	218	-410	1
2.7	2015_May_06_1505	s	s	6	3	SIC	41	ABS	1	0	02VD 02VO 02VC 02MD 02MO 10MC 02RD 02RO	0	1	2.33000898361	None	None	None	None	1
2.7	2015_May_06_1505	s	s	6	3	SIC	42	ABS	1	2	02VD 02VO 02VC 10MD 02MO 02MC 02RD 02RO	0	1	2.65692615509	None	None	None	None	1
2.7	2015_May_06_1505	s	s	6	3	SIC	43	RC	1	1	02VD 02VO 02VC 02MD 09MO 02MC 02RD 02RO	1	0	0.689032077789	-195.0	337.0	-187	332	1
2.7	2015_May_06_1505	s	s	6	3	SIC	44	ABS	2	2	10VD 02VO 02VC 02MD 02MO 02MC 02RD 02RO	0	1	1.46726989746	None	None	None	None	1
2.7	2015_May_06_1505	s	s	6	3	SIC	45	ABS	0	2	02VD 02VO 02VC 02MD 02MO 02MC 10RD 02RO	0	1	2.60065102577	None	None	None	None	1
2.7	2015_May_06_1505	s	s	6	3	SIC	46	ABS	0	1	02VD 02VO 02VC 02MD 02MO 02MC 02RD 10RO	0	1	3.90721893311	None	None	None	None	1
2.7	2015_May_06_1505	s	s	6	3	SIC	47	RC	1	0	02VD 02VO 02VC 02MD 02MO 09MC 02RD 02RO	1	0	0.587806940079	89.0	155.0	96	153	1
2.7	2015_May_06_1505	s	s	6	3	SIC	48	RC	2	1	02VD 09VO 02VC 02MD 02MO 02MC 02RD 02RO	1	0	0.552622079849	6.0	292.0	14	289	1
2.7	2015_May_06_1505	s	s	6	3	SIC	49	RC	1	2	02VD 02VO 02VC 09MD 02MO 02MC 02RD 02RO	1	0	0.940878868103	-394.0	-210.0	-400	-215	1
2.7	2015_May_06_1505	s	s	6	3	SIC	50	RC	2	1	02VD 09VO 02VC 02MD 02MO 02MC 02RD 02RO	1	0	1.35983419418	408.0	102.0	406	106	1
2.7	2015_May_06_1505	s	s	6	3	SIC	51	ABS	2	0	02VD 02VO 10VC 02MD 02MO 02MC 02RD 02RO	0	1	1.83072090149	None	None	None	None	1
2.7	2015_May_06_1505	s	s	6	3	SIC	52	ABS	2	2	10VD 02VO 02VC 02MD 02MO 02MC 02RD 02RO	0	1	1.36473917961	None	None	None	None	1
2.7	2015_May_06_1505	s	s	6	3	SIC	53	ABS	0	2	02VD 02VO 02VC 02MD 02MO 02MC 10RD 02RO	0	1	2.64520788193	None	None	None	None	1
2.7	2015_May_06_1505	s	s	6	3	SIC	54	ABS	1	1	02VD 02VO 02VC 02MD 10MO 02MC 02RD 02RO	0	1	3.04797697067	None	None	None	None	1
2.7	2015_May_06_1505	s	s	6	3	SIC	55	RC	1	0	02VD 02VO 02VC 02MD 02MO 09MC 02RD 02RO	1	0	1.75319194794	-339.0	-312.0	-342	-307	1
2.7	2015_May_06_1505	s	s	6	3	SIC	56	RC	0	2	02VD 02VO 02VC 02MD 02MO 02MC 09RD 02RO	1	0	1.60840296745	460.0	33.0	466	34	1
2.7	2015_May_06_1505	s	s	6	3	SIC	57	RC	1	1	02VD 02VO 02VC 02MD 09MO 02MC 02RD 02RO	1	0	1.09448194504	-308.0	395.0	-318	393	1
2.7	2015_May_06_1505	s	s	6	3	SIC	58	ABS	1	0	02VD 02VO 02VC 02MD 02MO 10MC 02RD 02RO	0	1	2.23954820633	None	None	None	None	1
2.7	2015_May_06_1505	s	s	6	3	SIC	59	ABS	1	2	02VD 02VO 02VC 10MD 02MO 02MC 02RD 02RO	0	1	2.88316702843	None	None	None	None	1
2.7	2015_May_06_1505	s	s	6	3	SIC	60	RC	2	2	09VD 02VO 02VC 02MD 02MO 02MC 02RD 02RO	1	0	1.14111304283	-23.0	-33.0	-19	-35	1
2.7	2015_May_06_1505	s	s	6	3	SIC	61	RC	0	1	02VD 02VO 02VC 02MD 02MO 02MC 02RD 09RO	1	0	3.04538202286	339.0	-411.0	328	-404	1
2.7	2015_May_06_1505	s	s	6	3	SIC	62	ABS	0	1	02VD 02VO 02VC 02MD 02MO 02MC 02RD 10RO	0	1	3.75419592857	None	None	None	None	1
2.7	2015_May_06_1505	s	s	6	3	SIC	63	ABS	2	1	02VD 10VO 02VC 02MD 02MO 02MC 02RD 02RO	0	1	2.14851498604	None	None	None	None	1
2.7	2015_May_06_1505	s	s	6	3	SIC	64	RC	2	0	02VD 02VO 09VC 02MD 02MO 02MC 02RD 02RO	1	0	0.878913164139	156.0	-13.0	165	-17	1
2.7	2015_May_06_1505	s	s	6	3	SIC	65	RC	1	0	02VD 02VO 02VC 02MD 02MO 09MC 02RD 02RO	1	0	1.10587501526	44.0	-296.0	40	-296	1
2.7	2015_May_06_1505	s	s	6	3	SIC	66	RC	2	1	02VD 09VO 02VC 02MD 02MO 02MC 02RD 02RO	1	0	0.693826913834	33.0	74.0	29	74	1
2.7	2015_May_06_1505	s	s	6	3	SIC	67	ABS	2	1	02VD 10VO 02VC 02MD 02MO 02MC 02RD 02RO	0	1	2.19554495811	None	None	None	None	1
2.7	2015_May_06_1505	s	s	6	3	SIC	68	RC	1	1	02VD 02VO 02VC 02MD 09MO 02MC 02RD 02RO	1	0	0.611328840256	120.0	93.0	132	95	1
2.7	2015_May_06_1505	s	s	6	3	SIC	69	ABS	0	1	02VD 02VO 02VC 02MD 02MO 02MC 02RD 10RO	0	1	3.33723306656	None	None	None	None	1
2.7	2015_May_06_1505	s	s	6	3	SIC	70	RC	2	2	09VD 02VO 02VC 02MD 02MO 02MC 02RD 02RO	1	0	0.964520931244	-267.0	408.0	-254	414	1
2.7	2015_May_06_1505	s	s	6	3	SIC	71	RC	0	2	02VD 02VO 02VC 02MD 02MO 02MC 09RD 02RO	0	1	0.159148931503	452.0	202.0	None	None	0
2.7	2015_May_06_1505	s	s	6	3	SIC	72	RC	2	0	02VD 02VO 09VC 02MD 02MO 02MC 02RD 02RO	1	0	1.14770007133	-68.0	-64.0	-70	-71	1
2.7	2015_May_06_1505	s	s	6	3	SIC	73	RC	1	2	02VD 02VO 02VC 09MD 02MO 02MC 02RD 02RO	1	0	0.665471076965	-104.0	-116.0	-99	-118	1
2.7	2015_May_06_1505	s	s	6	3	SIC	74	ABS	1	2	02VD 02VO 02VC 10MD 02MO 02MC 02RD 02RO	0	1	1.950715065	None	None	None	None	1
2.7	2015_May_06_1505	s	s	6	3	SIC	75	ABS	1	1	02VD 02VO 02VC 02MD 10MO 02MC 02RD 02RO	0	1	2.86862611771	None	None	None	None	1
2.7	2015_May_06_1505	s	s	6	3	SIC	76	ABS	2	0	02VD 02VO 10VC 02MD 02MO 02MC 02RD 02RO	0	1	2.80620789528	None	None	None	None	1
2.7	2015_May_06_1505	s	s	6	3	SIC	77	ABS	0	2	02VD 02VO 02VC 02MD 02MO 02MC 10RD 02RO	0	1	2.28866291046	None	None	None	None	1
2.7	2015_May_06_1505	s	s	6	3	SIC	78	ABS	2	2	10VD 02VO 02VC 02MD 02MO 02MC 02RD 02RO	0	1	1.90626382828	None	None	None	None	1
2.7	2015_May_06_1505	s	s	6	3	SIC	79	RC	0	1	02VD 02VO 02VC 02MD 02MO 02MC 02RD 09RO	1	0	1.69439601898	-164.0	-41.0	-161	-42	1
2.7	2015_May_06_1505	s	s	6	3	SIC	80	ABS	1	0	02VD 02VO 02VC 02MD 02MO 10MC 02RD 02RO	0	1	2.69483804703	None	None	None	None	1
2.7	2015_May_06_1505	s	s	6	3	SIC	81	RC	2	1	02VD 09VO 02VC 02MD 02MO 02MC 02RD 02RO	1	0	1.9180059433	106.0	276.0	114	285	1
2.7	2015_May_06_1505	s	s	6	3	SIC	82	ABS	0	1	02VD 02VO 02VC 02MD 02MO 02MC 02RD 10RO	0	1	3.45517802238	None	None	None	None	1
2.7	2015_May_06_1505	s	s	6	3	SIC	83	RC	1	0	02VD 02VO 02VC 02MD 02MO 09MC 02RD 02RO	1	0	2.00038409233	376.0	-284.0	379	-288	1
2.7	2015_May_06_1505	s	s	6	3	SIC	84	RC	1	2	02VD 02VO 02VC 09MD 02MO 02MC 02RD 02RO	1	0	1.70123100281	167.0	374.0	164	379	1
2.7	2015_May_06_1505	s	s	6	3	SIC	85	RC	2	0	02VD 02VO 09VC 02MD 02MO 02MC 02RD 02RO	1	0	1.0233900547	-352.0	-138.0	-357	-141	1
2.7	2015_May_06_1505	s	s	6	3	SIC	86	RC	1	1	02VD 02VO 02VC 02MD 09MO 02MC 02RD 02RO	1	0	1.98053002357	-499.0	-13.0	-498	-12	1
2.7	2015_May_06_1505	s	s	6	3	SIC	87	ABS	1	2	02VD 02VO 02VC 10MD 02MO 02MC 02RD 02RO	0	1	2.17411398888	None	None	None	None	1
2.7	2015_May_06_1505	s	s	6	3	SIC	88	ABS	2	2	10VD 02VO 02VC 02MD 02MO 02MC 02RD 02RO	0	1	2.10131692886	None	None	None	None	1
2.7	2015_May_06_1505	s	s	6	3	SIC	89	RC	0	1	02VD 02VO 02VC 02MD 02MO 02MC 02RD 09RO	1	0	0.779840946198	-322.0	-261.0	-317	-256	1
2.7	2015_May_06_1505	s	s	6	3	SIC	90	RC	0	2	02VD 02VO 02VC 02MD 02MO 02MC 09RD 02RO	1	0	0.771492004395	-416.0	128.0	-407	130	1
2.7	2015_May_06_1505	s	s	6	3	SIC	91	ABS	1	1	02VD 02VO 02VC 02MD 10MO 02MC 02RD 02RO	0	1	2.90187501907	None	None	None	None	1
2.7	2015_May_06_1505	s	s	6	3	SIC	92	ABS	2	0	02VD 02VO 10VC 02MD 02MO 02MC 02RD 02RO	0	1	2.11302399635	None	None	None	None	1
2.7	2015_May_06_1505	s	s	6	3	SIC	93	ABS	0	2	02VD 02VO 02VC 02MD 02MO 02MC 10RD 02RO	0	1	2.60066199303	None	None	None	None	1
2.7	2015_May_06_1505	s	s	6	3	SIC	94	RC	2	2	09VD 02VO 02VC 02MD 02MO 02MC 02RD 02RO	1	0	0.865298986435	362.0	262.0	368	255	1
2.7	2015_May_06_1505	s	s	6	3	SIC	95	ABS	1	0	02VD 02VO 02VC 02MD 02MO 10MC 02RD 02RO	0	1	2.60074186325	None	None	None	None	1
2.7	2015_May_06_1505	s	s	6	3	SIC	96	ABS	2	1	02VD 10VO 02VC 02MD 02MO 02MC 02RD 02RO	0	1	2.1887140274	None	None	None	None	1
2.7	2015_May_06_1505	s	s	6	3	SIC	97	ABS	0	1	02VD 02VO 02VC 02MD 02MO 02MC 02RD 10RO	0	1	3.53063702583	None	None	None	None	1
2.7	2015_May_06_1505	s	s	6	3	SIC	98	RC	1	0	02VD 02VO 02VC 02MD 02MO 09MC 02RD 02RO	1	0	1.25876712799	-40.0	235.0	-42	244	1
2.7	2015_May_06_1505	s	s	6	3	SIC	99	RC	0	1	02VD 02VO 02VC 02MD 02MO 02MC 02RD 09RO	1	0	1.83060789108	-116.0	-327.0	-120	-324	1
2.7	2015_May_06_1505	s	s	6	3	SIC	100	ABS	2	1	02VD 10VO 02VC 02MD 02MO 02MC 02RD 02RO	0	1	1.99529600143	None	None	None	None	1
2.7	2015_May_06_1505	s	s	6	3	SIC	101	ABS	0	2	02VD 02VO 02VC 02MD 02MO 02MC 10RD 02RO	0	1	2.17191410065	None	None	None	None	1
2.7	2015_May_06_1505	s	s	6	3	SIC	102	ABS	1	1	02VD 02VO 02VC 02MD 10MO 02MC 02RD 02RO	0	1	2.52206206322	None	None	None	None	1
2.7	2015_May_06_1505	s	s	6	3	SIC	103	RC	2	1	02VD 09VO 02VC 02MD 02MO 02MC 02RD 02RO	1	0	1.02006697655	-390.0	311.0	-395	310	1
2.7	2015_May_06_1505	s	s	6	3	SIC	104	RC	1	1	02VD 02VO 02VC 02MD 09MO 02MC 02RD 02RO	1	0	0.724500894547	-75.0	-93.0	-80	-89	1
2.7	2015_May_06_1505	s	s	6	3	SIC	105	RC	2	2	09VD 02VO 02VC 02MD 02MO 02MC 02RD 02RO	1	0	1.01829600334	-494.0	196.0	-498	195	1
2.7	2015_May_06_1505	s	s	6	3	SIC	106	RC	1	2	02VD 02VO 02VC 09MD 02MO 02MC 02RD 02RO	1	0	0.60684299469	44.0	10.0	52	4	1
2.7	2015_May_06_1505	s	s	6	3	SIC	107	ABS	1	2	02VD 02VO 02VC 10MD 02MO 02MC 02RD 02RO	0	1	2.68999385834	None	None	None	None	1
2.7	2015_May_06_1505	s	s	6	3	SIC	108	ABS	2	2	10VD 02VO 02VC 02MD 02MO 02MC 02RD 02RO	0	1	1.84511995316	None	None	None	None	1
2.7	2015_May_06_1505	s	s	6	3	SIC	109	RC	0	2	02VD 02VO 02VC 02MD 02MO 02MC 09RD 02RO	1	0	1.7954390049	480.0	236.0	478	237	1
2.7	2015_May_06_1505	s	s	6	3	SIC	110	ABS	2	0	02VD 02VO 10VC 02MD 02MO 02MC 02RD 02RO	0	1	1.84780406952	None	None	None	None	1
2.7	2015_May_06_1505	s	s	6	3	SIC	111	ABS	1	0	02VD 02VO 02VC 02MD 02MO 10MC 02RD 02RO	0	1	2.796241045	None	None	None	None	1
2.7	2015_May_06_1505	s	s	6	3	SIC	112	RC	2	0	02VD 02VO 09VC 02MD 02MO 02MC 02RD 02RO	1	0	0.783851861954	357.0	139.0	363	134	1
2.7	2015_May_06_1505	s	s	6	3	SIC	113	RC	0	2	02VD 02VO 02VC 02MD 02MO 02MC 09RD 02RO	1	0	0.847410917282	-208.0	-139.0	-197	-134	1
2.7	2015_May_06_1505	s	s	6	3	SIC	114	ABS	0	2	02VD 02VO 02VC 02MD 02MO 02MC 10RD 02RO	0	1	2.02392601967	None	None	None	None	1
2.7	2015_May_06_1505	s	s	6	3	SIC	115	ABS	1	0	02VD 02VO 02VC 02MD 02MO 10MC 02RD 02RO	0	1	2.51523518562	None	None	None	None	1
2.7	2015_May_06_1505	s	s	6	3	SIC	116	ABS	2	0	02VD 02VO 10VC 02MD 02MO 02MC 02RD 02RO	0	1	1.84731388092	None	None	None	None	1
2.7	2015_May_06_1505	s	s	6	3	SIC	117	ABS	2	2	10VD 02VO 02VC 02MD 02MO 02MC 02RD 02RO	0	1	1.67747592926	None	None	None	None	1
2.7	2015_May_06_1505	s	s	6	3	SIC	118	RC	1	1	02VD 02VO 02VC 02MD 09MO 02MC 02RD 02RO	1	0	1.42364096642	-216.0	178.0	-207	174	1
2.7	2015_May_06_1505	s	s	6	3	SIC	119	ABS	1	1	02VD 02VO 02VC 02MD 10MO 02MC 02RD 02RO	0	1	2.22406196594	None	None	None	None	1
2.7	2015_May_06_1505	s	s	6	3	SIC	120	RC	2	0	02VD 02VO 09VC 02MD 02MO 02MC 02RD 02RO	1	0	0.646771192551	-165.0	-57.0	-156	-59	1
2.7	2015_May_06_1505	s	s	6	3	SIC	121	ABS	0	1	02VD 02VO 02VC 02MD 02MO 02MC 02RD 10RO	0	1	3.7249879837	None	None	None	None	1
2.7	2015_May_06_1505	s	s	6	3	SIC	122	RC	0	1	02VD 02VO 02VC 02MD 02MO 02MC 02RD 09RO	1	0	0.950180053711	-444.0	95.0	-441	88	1
2.7	2015_May_06_1505	s	s	6	3	SIC	123	RC	2	2	09VD 02VO 02VC 02MD 02MO 02MC 02RD 02RO	1	0	0.830754041672	-411.0	-265.0	-400	-264	1
2.7	2015_May_06_1505	s	s	6	3	SIC	124	RC	1	0	02VD 02VO 02VC 02MD 02MO 09MC 02RD 02RO	1	0	1.69429802895	-250.0	-386.0	-244	-390	1
2.7	2015_May_06_1505	s	s	6	3	SIC	125	RC	1	2	02VD 02VO 02VC 09MD 02MO 02MC 02RD 02RO	1	0	1.08229279518	-30.0	218.0	-29	219	1
2.7	2015_May_06_1505	s	s	6	3	SIC	126	RC	2	1	02VD 09VO 02VC 02MD 02MO 02MC 02RD 02RO	1	0	0.729213953018	-110.0	396.0	-106	395	1
2.7	2015_May_06_1505	s	s	6	3	SIC	127	ABS	2	1	02VD 10VO 02VC 02MD 02MO 02MC 02RD 02RO	0	1	1.71298098564	None	None	None	None	1
2.7	2015_May_06_1505	s	s	6	3	SIC	128	ABS	1	2	02VD 02VO 02VC 10MD 02MO 02MC 02RD 02RO	0	1	1.86536478996	None	None	None	None	1
2.7	2015_May_06_1505	s	s	6	3	SIC	129	RC	1	1	02VD 02VO 02VC 02MD 09MO 02MC 02RD 02RO	1	0	0.870290994644	-467.0	-235.0	-460	-233	1
2.7	2015_May_06_1505	s	s	6	3	SIC	130	RC	0	1	02VD 02VO 02VC 02MD 02MO 02MC 02RD 09RO	1	0	2.81935596466	21.0	-321.0	15	-329	1
2.7	2015_May_06_1505	s	s	6	3	SIC	131	RC	1	2	02VD 02VO 02VC 09MD 02MO 02MC 02RD 02RO	1	0	2.47825407982	476.0	144.0	476	140	1
2.7	2015_May_06_1505	s	s	6	3	SIC	132	ABS	2	2	10VD 02VO 02VC 02MD 02MO 02MC 02RD 02RO	0	1	1.85903406143	None	None	None	None	1
2.7	2015_May_06_1505	s	s	6	3	SIC	133	RC	2	1	02VD 09VO 02VC 02MD 02MO 02MC 02RD 02RO	1	0	1.01165699959	406.0	354.0	405	358	1
2.7	2015_May_06_1505	s	s	6	3	SIC	134	ABS	0	2	02VD 02VO 02VC 02MD 02MO 02MC 10RD 02RO	0	1	1.82382297516	None	None	None	None	1
2.7	2015_May_06_1505	s	s	6	3	SIC	135	RC	2	0	02VD 02VO 09VC 02MD 02MO 02MC 02RD 02RO	1	0	1.27976799011	-310.0	-276.0	-320	-272	1
2.7	2015_May_06_1505	s	s	6	3	SIC	136	ABS	1	1	02VD 02VO 02VC 02MD 10MO 02MC 02RD 02RO	0	1	2.47599816322	None	None	None	None	1
2.7	2015_May_06_1505	s	s	6	3	SIC	137	ABS	2	1	02VD 10VO 02VC 02MD 02MO 02MC 02RD 02RO	0	1	2.61290192604	None	None	None	None	1
2.7	2015_May_06_1505	s	s	6	3	SIC	138	ABS	0	1	02VD 02VO 02VC 02MD 02MO 02MC 02RD 10RO	0	1	3.20920300484	None	None	None	None	1
2.7	2015_May_06_1505	s	s	6	3	SIC	139	ABS	1	0	02VD 02VO 02VC 02MD 02MO 10MC 02RD 02RO	0	1	2.38405299187	None	None	None	None	1
2.7	2015_May_06_1505	s	s	6	3	SIC	140	ABS	1	2	02VD 02VO 02VC 10MD 02MO 02MC 02RD 02RO	0	1	1.77686691284	None	None	None	None	1
2.7	2015_May_06_1505	s	s	6	3	SIC	141	RC	1	0	02VD 02VO 02VC 02MD 02MO 09MC 02RD 02RO	1	0	1.50608301163	-5.0	-54.0	2	-54	1
2.7	2015_May_06_1505	s	s	6	3	SIC	142	ABS	2	0	02VD 02VO 10VC 02MD 02MO 02MC 02RD 02RO	0	1	1.80663299561	None	None	None	None	1
2.7	2015_May_06_1505	s	s	6	3	SIC	143	RC	2	2	09VD 02VO 02VC 02MD 02MO 02MC 02RD 02RO	1	0	0.925743818283	-191.0	377.0	-202	378	1
2.7	2015_May_06_1505	s	s	6	3	SIC	144	RC	0	2	02VD 02VO 02VC 02MD 02MO 02MC 09RD 02RO	1	0	1.75994491577	-534.0	-373.0	-537	-378	1
2.7	2015_May_06_1505	s	s	6	3	SIC	145	RC	2	1	02VD 09VO 02VC 02MD 02MO 02MC 02RD 02RO	1	0	0.929266929626	255.0	313.0	243	314	1
2.7	2015_May_06_1505	s	s	6	3	SIC	146	RC	1	1	02VD 02VO 02VC 02MD 09MO 02MC 02RD 02RO	1	0	0.635010004044	22.0	239.0	26	246	1
2.7	2015_May_06_1505	s	s	6	3	SIC	147	ABS	1	0	02VD 02VO 02VC 02MD 02MO 10MC 02RD 02RO	0	1	2.5299808979	None	None	None	None	1
2.7	2015_May_06_1505	s	s	6	3	SIC	148	RC	1	2	02VD 02VO 02VC 09MD 02MO 02MC 02RD 02RO	1	0	1.1175570488	367.0	385.0	382	391	1
2.7	2015_May_06_1505	s	s	6	3	SIC	149	RC	1	0	02VD 02VO 02VC 02MD 02MO 09MC 02RD 02RO	1	0	0.888993024826	-516.0	-44.0	-510	-52	1
2.7	2015_May_06_1505	s	s	6	3	SIC	150	RC	0	1	02VD 02VO 02VC 02MD 02MO 02MC 02RD 09RO	1	0	0.877244949341	280.0	59.0	272	53	1
2.7	2015_May_06_1505	s	s	6	3	SIC	151	ABS	2	2	10VD 02VO 02VC 02MD 02MO 02MC 02RD 02RO	0	1	2.36530685425	None	None	None	None	1
2.7	2015_May_06_1505	s	s	6	3	SIC	152	ABS	2	0	02VD 02VO 10VC 02MD 02MO 02MC 02RD 02RO	0	1	2.81917285919	None	None	None	None	1
2.7	2015_May_06_1505	s	s	6	3	SIC	153	RC	0	2	02VD 02VO 02VC 02MD 02MO 02MC 09RD 02RO	1	0	1.31767702103	-285.0	242.0	-287	243	1
2.7	2015_May_06_1505	s	s	6	3	SIC	154	ABS	1	2	02VD 02VO 02VC 10MD 02MO 02MC 02RD 02RO	0	1	2.07768702507	None	None	None	None	1
2.7	2015_May_06_1505	s	s	6	3	SIC	155	RC	2	0	02VD 02VO 09VC 02MD 02MO 02MC 02RD 02RO	1	0	1.19502305984	281.0	-406.0	275	-398	1
2.7	2015_May_06_1505	s	s	6	3	SIC	156	RC	2	2	09VD 02VO 02VC 02MD 02MO 02MC 02RD 02RO	1	0	0.818343162537	-132.0	-141.0	-126	-137	1
2.7	2015_May_06_1505	s	s	6	3	SIC	157	ABS	2	1	02VD 10VO 02VC 02MD 02MO 02MC 02RD 02RO	0	1	1.93343687057	None	None	None	None	1
2.7	2015_May_06_1505	s	s	6	3	SIC	158	ABS	1	1	02VD 02VO 02VC 02MD 10MO 02MC 02RD 02RO	0	1	2.71838092804	None	None	None	None	1
2.7	2015_May_06_1505	s	s	6	3	SIC	159	ABS	0	2	02VD 02VO 02VC 02MD 02MO 02MC 10RD 02RO	0	1	2.12983703613	None	None	None	None	1
2.7	2015_May_06_1505	s	s	6	3	SIC	160	ABS	0	1	02VD 02VO 02VC 02MD 02MO 02MC 02RD 10RO	0	1	2.9018330574	None	None	None	None	1
2.7	2015_May_06_1505	s	s	6	3	SIC	161	RC	2	0	02VD 02VO 09VC 02MD 02MO 02MC 02RD 02RO	1	0	1.09404397011	-200.0	-361.0	-205	-357	1
2.7	2015_May_06_1505	s	s	6	3	SIC	162	RC	1	2	02VD 02VO 02VC 09MD 02MO 02MC 02RD 02RO	1	0	0.823287010193	-116.0	341.0	-108	346	1
2.7	2015_May_06_1505	s	s	6	3	SIC	163	RC	1	0	02VD 02VO 02VC 02MD 02MO 09MC 02RD 02RO	1	0	0.827059984207	17.0	76.0	13	77	1
2.7	2015_May_06_1505	s	s	6	3	SIC	164	ABS	1	2	02VD 02VO 02VC 10MD 02MO 02MC 02RD 02RO	0	1	2.52490615845	None	None	None	None	1
2.7	2015_May_06_1505	s	s	6	3	SIC	165	ABS	2	1	02VD 10VO 02VC 02MD 02MO 02MC 02RD 02RO	0	1	2.25455188751	None	None	None	None	1
2.7	2015_May_06_1505	s	s	6	3	SIC	166	RC	1	1	02VD 02VO 02VC 02MD 09MO 02MC 02RD 02RO	1	0	1.10593605042	214.0	339.0	217	339	1
2.7	2015_May_06_1505	s	s	6	3	SIC	167	RC	2	2	09VD 02VO 02VC 02MD 02MO 02MC 02RD 02RO	1	0	0.682031869888	-157.0	118.0	-155	126	1
2.7	2015_May_06_1505	s	s	6	3	SIC	168	RC	0	1	02VD 02VO 02VC 02MD 02MO 02MC 02RD 09RO	1	0	0.783164024353	296.0	170.0	289	174	1
2.7	2015_May_06_1505	s	s	6	3	SIC	169	ABS	0	1	02VD 02VO 02VC 02MD 02MO 02MC 02RD 10RO	0	1	3.44811987877	None	None	None	None	1
2.7	2015_May_06_1505	s	s	6	3	SIC	170	ABS	0	2	02VD 02VO 02VC 02MD 02MO 02MC 10RD 02RO	0	1	2.32994008064	None	None	None	None	1
2.7	2015_May_06_1505	s	s	6	3	SIC	171	ABS	2	0	02VD 02VO 10VC 02MD 02MO 02MC 02RD 02RO	0	1	1.83556890488	None	None	None	None	1
2.7	2015_May_06_1505	s	s	6	3	SIC	172	ABS	2	2	10VD 02VO 02VC 02MD 02MO 02MC 02RD 02RO	0	1	2.31568598747	None	None	None	None	1
2.7	2015_May_06_1505	s	s	6	3	SIC	173	RC	0	2	02VD 02VO 02VC 02MD 02MO 02MC 09RD 02RO	1	0	1.0587439537	147.0	-149.0	150	-154	1
2.7	2015_May_06_1505	s	s	6	3	SIC	174	ABS	1	0	02VD 02VO 02VC 02MD 02MO 10MC 02RD 02RO	0	1	2.2243540287	None	None	None	None	1
2.7	2015_May_06_1505	s	s	6	3	SIC	175	ABS	1	1	02VD 02VO 02VC 02MD 10MO 02MC 02RD 02RO	0	1	2.03586006165	None	None	None	None	1
2.7	2015_May_06_1505	s	s	6	3	SIC	176	RC	2	1	02VD 09VO 02VC 02MD 02MO 02MC 02RD 02RO	1	0	1.6472389698	-431.0	-29.0	-432	-32	1
2.7	2015_May_06_1505	s	s	6	3	SIC	177	ABS	1	2	02VD 02VO 02VC 10MD 02MO 02MC 02RD 02RO	0	1	1.9296939373	None	None	None	None	1
2.7	2015_May_06_1505	s	s	6	3	SIC	178	RC	1	1	02VD 02VO 02VC 02MD 09MO 02MC 02RD 02RO	1	0	0.865468978882	-468.0	137.0	-475	139	1
2.7	2015_May_06_1505	s	s	6	3	SIC	179	ABS	1	0	02VD 02VO 02VC 02MD 02MO 10MC 02RD 02RO	0	1	2.60747694969	None	None	None	None	1
2.7	2015_May_06_1505	s	s	6	3	SIC	180	RC	0	1	02VD 02VO 02VC 02MD 02MO 02MC 02RD 09RO	1	0	2.94868898392	179.0	-309.0	185	-307	1
2.7	2015_May_06_1505	s	s	6	3	SIC	181	RC	1	2	02VD 02VO 02VC 09MD 02MO 02MC 02RD 02RO	1	0	0.688946962357	154.0	139.0	156	136	1
2.7	2015_May_06_1505	s	s	6	3	SIC	182	RC	0	2	02VD 02VO 02VC 02MD 02MO 02MC 09RD 02RO	1	0	1.83562493324	-409.0	-253.0	-403	-252	1
2.7	2015_May_06_1505	s	s	6	3	SIC	183	ABS	2	0	02VD 02VO 10VC 02MD 02MO 02MC 02RD 02RO	0	1	1.61933493614	None	None	None	None	1
2.7	2015_May_06_1505	s	s	6	3	SIC	184	RC	2	2	09VD 02VO 02VC 02MD 02MO 02MC 02RD 02RO	1	0	1.0587220192	-406.0	-214.0	-396	-207	1
2.7	2015_May_06_1505	s	s	6	3	SIC	185	ABS	0	2	02VD 02VO 02VC 02MD 02MO 02MC 10RD 02RO	0	1	1.81947112083	None	None	None	None	1
2.7	2015_May_06_1505	s	s	6	3	SIC	186	ABS	1	1	02VD 02VO 02VC 02MD 10MO 02MC 02RD 02RO	0	1	2.67133402824	None	None	None	None	1
2.7	2015_May_06_1505	s	s	6	3	SIC	187	ABS	2	2	10VD 02VO 02VC 02MD 02MO 02MC 02RD 02RO	0	1	1.61858296394	None	None	None	None	1
2.7	2015_May_06_1505	s	s	6	3	SIC	188	RC	1	0	02VD 02VO 02VC 02MD 02MO 09MC 02RD 02RO	1	0	0.962000131607	253.0	20.0	253	24	1
2.7	2015_May_06_1505	s	s	6	3	SIC	189	RC	2	0	02VD 02VO 09VC 02MD 02MO 02MC 02RD 02RO	1	0	0.675523042679	-193.0	202.0	-198	204	1
2.7	2015_May_06_1505	s	s	6	3	SIC	190	ABS	0	1	02VD 02VO 02VC 02MD 02MO 02MC 02RD 10RO	0	1	3.20098805428	None	None	None	None	1
2.7	2015_May_06_1505	s	s	6	3	SIC	191	RC	2	1	02VD 09VO 02VC 02MD 02MO 02MC 02RD 02RO	1	0	2.34873104095	304.0	392.0	306	399	1
2.7	2015_May_06_1505	s	s	6	3	SIC	192	ABS	2	1	02VD 10VO 02VC 02MD 02MO 02MC 02RD 02RO	0	1	2.0424478054	None	None	None	None	1
2.7	2015_May_06_1505	s	s	6	3	SIC	193	ABS	1	2	02VD 02VO 02VC 10MD 02MO 02MC 02RD 02RO	0	1	2.86580204964	None	None	None	None	1
2.7	2015_May_06_1505	s	s	6	3	SIC	194	ABS	1	0	02VD 02VO 02VC 02MD 02MO 10MC 02RD 02RO	0	1	4.0724260807	None	None	None	None	1
2.7	2015_May_06_1505	s	s	6	3	SIC	195	RC	1	0	02VD 02VO 02VC 02MD 02MO 09MC 02RD 02RO	1	0	1.5012280941	413.0	-292.0	411	-288	1
2.7	2015_May_06_1505	s	s	6	3	SIC	196	ABS	2	1	02VD 10VO 02VC 02MD 02MO 02MC 02RD 02RO	0	1	1.4707171917	None	None	None	None	1
2.7	2015_May_06_1505	s	s	6	3	SIC	197	RC	2	1	02VD 09VO 02VC 02MD 02MO 02MC 02RD 02RO	1	0	0.926421165466	217.0	-338.0	211	-337	1
2.7	2015_May_06_1505	s	s	6	3	SIC	198	ABS	0	2	02VD 02VO 02VC 02MD 02MO 02MC 10RD 02RO	0	1	1.84223008156	None	None	None	None	1
2.7	2015_May_06_1505	s	s	6	3	SIC	199	RC	0	2	02VD 02VO 02VC 02MD 02MO 02MC 09RD 02RO	1	0	1.26512002945	-445.0	-62.0	-450	-52	1
2.7	2015_May_06_1505	s	s	6	3	SIC	200	RC	1	2	02VD 02VO 02VC 09MD 02MO 02MC 02RD 02RO	1	0	0.799703121185	-28.0	74.0	-25	75	1
2.7	2015_May_06_1505	s	s	6	3	SIC	201	RC	2	0	02VD 02VO 09VC 02MD 02MO 02MC 02RD 02RO	1	0	1.0590968132	-330.0	-55.0	-327	-63	1
2.7	2015_May_06_1505	s	s	6	3	SIC	202	ABS	2	0	02VD 02VO 10VC 02MD 02MO 02MC 02RD 02RO	0	1	2.19563293457	None	None	None	None	1
2.7	2015_May_06_1505	s	s	6	3	SIC	203	RC	2	2	09VD 02VO 02VC 02MD 02MO 02MC 02RD 02RO	1	0	1.05549693108	49.0	-342.0	49	-340	1
2.7	2015_May_06_1505	s	s	6	3	SIC	204	ABS	1	1	02VD 02VO 02VC 02MD 10MO 02MC 02RD 02RO	0	1	2.21890497208	None	None	None	None	1
2.7	2015_May_06_1505	s	s	6	3	SIC	205	ABS	0	1	02VD 02VO 02VC 02MD 02MO 02MC 02RD 10RO	0	1	3.55156898499	None	None	None	None	1
2.7	2015_May_06_1505	s	s	6	3	SIC	206	ABS	2	2	10VD 02VO 02VC 02MD 02MO 02MC 02RD 02RO	0	1	1.42035317421	None	None	None	None	1
2.7	2015_May_06_1505	s	s	6	3	SIC	207	RC	1	1	02VD 02VO 02VC 02MD 09MO 02MC 02RD 02RO	1	0	0.747591018677	56.0	258.0	57	252	1
2.7	2015_May_06_1505	s	s	6	3	SIC	208	RC	0	1	02VD 02VO 02VC 02MD 02MO 02MC 02RD 09RO	1	0	3.18428993225	385.0	349.0	379	344	1
2.7	2015_May_06_1505	s	s	6	3	SIC	209	ABS	1	2	02VD 02VO 02VC 10MD 02MO 02MC 02RD 02RO	0	1	1.89445996284	None	None	None	None	1
2.7	2015_May_06_1505	s	s	6	3	SIC	210	ABS	1	0	02VD 02VO 02VC 02MD 02MO 10MC 02RD 02RO	0	1	2.13677978516	None	None	None	None	1
2.7	2015_May_06_1505	s	s	6	3	SIC	211	ABS	1	1	02VD 02VO 02VC 02MD 10MO 02MC 02RD 02RO	0	1	2.4448390007	None	None	None	None	1
2.7	2015_May_06_1505	s	s	6	3	SIC	212	RC	0	2	02VD 02VO 02VC 02MD 02MO 02MC 09RD 02RO	1	0	2.30150198936	490.0	336.0	499	332	1
2.7	2015_May_06_1505	s	s	6	3	SIC	213	ABS	0	1	02VD 02VO 02VC 02MD 02MO 02MC 02RD 10RO	0	1	3.12518405914	None	None	None	None	1
2.7	2015_May_06_1505	s	s	6	3	SIC	214	RC	2	0	02VD 02VO 09VC 02MD 02MO 02MC 02RD 02RO	1	0	0.787938117981	-85.0	19.0	-89	20	1
2.7	2015_May_06_1505	s	s	6	3	SIC	215	RC	1	1	02VD 02VO 02VC 02MD 09MO 02MC 02RD 02RO	1	0	1.14111709595	334.0	-133.0	323	-129	1
2.7	2015_May_06_1505	s	s	6	3	SIC	216	ABS	2	2	10VD 02VO 02VC 02MD 02MO 02MC 02RD 02RO	0	1	1.96241092682	None	None	None	None	1
2.7	2015_May_06_1505	s	s	6	3	SIC	217	RC	1	0	02VD 02VO 02VC 02MD 02MO 09MC 02RD 02RO	1	0	1.63580703735	191.0	74.0	180	74	1
2.7	2015_May_06_1505	s	s	6	3	SIC	218	ABS	0	2	02VD 02VO 02VC 02MD 02MO 02MC 10RD 02RO	0	1	1.64188599586	None	None	None	None	1
2.7	2015_May_06_1505	s	s	6	3	SIC	219	RC	2	1	02VD 09VO 02VC 02MD 02MO 02MC 02RD 02RO	1	0	1.33560705185	-34.0	-175.0	-44	-173	1
2.7	2015_May_06_1505	s	s	6	3	SIC	220	ABS	2	1	02VD 10VO 02VC 02MD 02MO 02MC 02RD 02RO	0	1	1.84240412712	None	None	None	None	1
2.7	2015_May_06_1505	s	s	6	3	SIC	221	RC	2	2	09VD 02VO 02VC 02MD 02MO 02MC 02RD 02RO	1	0	0.858763933182	73.0	183.0	67	177	1
2.7	2015_May_06_1505	s	s	6	3	SIC	222	ABS	2	0	02VD 02VO 10VC 02MD 02MO 02MC 02RD 02RO	0	1	2.07099199295	None	None	None	None	1
2.7	2015_May_06_1505	s	s	6	3	SIC	223	RC	1	2	02VD 02VO 02VC 09MD 02MO 02MC 02RD 02RO	1	0	0.8115670681	-238.0	254.0	-235	243	1
2.7	2015_May_06_1505	s	s	6	3	SIC	224	RC	0	1	02VD 02VO 02VC 02MD 02MO 02MC 02RD 09RO	1	0	2.16004300117	412.0	-166.0	416	-166	1
2.7	2015_May_06_1505	s	s	6	3	SIC	225	RC	2	2	09VD 02VO 02VC 02MD 02MO 02MC 02RD 02RO	1	0	0.670455217361	-117.0	-27.0	-114	-29	1
2.7	2015_May_06_1505	s	s	6	3	SIC	226	RC	2	1	02VD 09VO 02VC 02MD 02MO 02MC 02RD 02RO	1	0	0.842003107071	448.0	15.0	441	16	1
2.7	2015_May_06_1505	s	s	6	3	SIC	227	ABS	1	1	02VD 02VO 02VC 02MD 10MO 02MC 02RD 02RO	0	1	2.97735095024	None	None	None	None	1
2.7	2015_May_06_1505	s	s	6	3	SIC	228	ABS	0	2	02VD 02VO 02VC 02MD 02MO 02MC 10RD 02RO	0	1	1.84738492966	None	None	None	None	1
2.7	2015_May_06_1505	s	s	6	3	SIC	229	ABS	1	0	02VD 02VO 02VC 02MD 02MO 10MC 02RD 02RO	0	1	2.02395892143	None	None	None	None	1
2.7	2015_May_06_1505	s	s	6	3	SIC	230	ABS	2	0	02VD 02VO 10VC 02MD 02MO 02MC 02RD 02RO	0	1	1.64218401909	None	None	None	None	1
2.7	2015_May_06_1505	s	s	6	3	SIC	231	RC	1	0	02VD 02VO 02VC 02MD 02MO 09MC 02RD 02RO	1	0	0.971357107162	-289.0	-211.0	-280	-205	1
2.7	2015_May_06_1505	s	s	6	3	SIC	232	RC	0	1	02VD 02VO 02VC 02MD 02MO 02MC 02RD 09RO	1	0	2.67788791656	-123.0	276.0	-114	277	1
2.7	2015_May_06_1505	s	s	6	3	SIC	233	RC	2	0	02VD 02VO 09VC 02MD 02MO 02MC 02RD 02RO	1	0	1.55310606956	473.0	222.0	477	227	1
2.7	2015_May_06_1505	s	s	6	3	SIC	234	ABS	2	2	10VD 02VO 02VC 02MD 02MO 02MC 02RD 02RO	0	1	1.87082195282	None	None	None	None	1
2.7	2015_May_06_1505	s	s	6	3	SIC	235	ABS	1	2	02VD 02VO 02VC 10MD 02MO 02MC 02RD 02RO	0	1	1.97151279449	None	None	None	None	1
2.7	2015_May_06_1505	s	s	6	3	SIC	236	RC	1	2	02VD 02VO 02VC 09MD 02MO 02MC 02RD 02RO	1	0	0.61811208725	-157.0	243.0	-157	233	1
2.7	2015_May_06_1505	s	s	6	3	SIC	237	ABS	2	1	02VD 10VO 02VC 02MD 02MO 02MC 02RD 02RO	0	1	1.87947392464	None	None	None	None	1
2.7	2015_May_06_1505	s	s	6	3	SIC	238	ABS	0	1	02VD 02VO 02VC 02MD 02MO 02MC 02RD 10RO	0	1	3.32537698746	None	None	None	None	1
2.7	2015_May_06_1505	s	s	6	3	SIC	239	RC	1	1	02VD 02VO 02VC 02MD 09MO 02MC 02RD 02RO	1	0	0.81161403656	352.0	21.0	349	13	1
2.7	2015_May_06_1505	s	s	6	3	SIC	240	RC	0	2	02VD 02VO 02VC 02MD 02MO 02MC 09RD 02RO	1	0	0.900823831558	109.0	-163.0	114	-167	1
2.7	2015_May_06_1505	s	s	6	3	SIC	241	ABS	2	0	02VD 02VO 10VC 02MD 02MO 02MC 02RD 02RO	0	1	1.54850292206	None	None	None	None	1
2.7	2015_May_06_1505	s	s	6	3	SIC	242	ABS	2	2	10VD 02VO 02VC 02MD 02MO 02MC 02RD 02RO	0	1	3.85495305061	None	None	None	None	1
2.7	2015_May_06_1505	s	s	6	3	SIC	243	ABS	0	1	02VD 02VO 02VC 02MD 02MO 02MC 02RD 10RO	0	1	3.90292406082	None	None	None	None	1
2.7	2015_May_06_1505	s	s	6	3	SIC	244	ABS	2	1	02VD 10VO 02VC 02MD 02MO 02MC 02RD 02RO	0	1	2.03570818901	None	None	None	None	1
2.7	2015_May_06_1505	s	s	6	3	SIC	245	RC	1	1	02VD 02VO 02VC 02MD 09MO 02MC 02RD 02RO	1	0	1.94148206711	-209.0	-242.0	-198	-234	1
2.7	2015_May_06_1505	s	s	6	3	SIC	246	RC	2	1	02VD 09VO 02VC 02MD 02MO 02MC 02RD 02RO	1	0	0.594780921936	-130.0	1.0	-132	-9	1
2.7	2015_May_06_1505	s	s	6	3	SIC	247	ABS	1	1	02VD 02VO 02VC 02MD 10MO 02MC 02RD 02RO	0	1	2.67987680435	None	None	None	None	1
2.7	2015_May_06_1505	s	s	6	3	SIC	248	RC	1	2	02VD 02VO 02VC 09MD 02MO 02MC 02RD 02RO	1	0	1.6204199791	473.0	-137.0	477	-136	1
2.7	2015_May_06_1505	s	s	6	3	SIC	249	RC	2	0	02VD 02VO 09VC 02MD 02MO 02MC 02RD 02RO	1	0	2.12745094299	-353.0	-287.0	-363	-286	1
2.7	2015_May_06_1505	s	s	6	3	SIC	250	RC	1	0	02VD 02VO 02VC 02MD 02MO 09MC 02RD 02RO	1	0	1.02339100838	27.0	217.0	18	221	1
2.7	2015_May_06_1505	s	s	6	3	SIC	251	ABS	1	2	02VD 02VO 02VC 10MD 02MO 02MC 02RD 02RO	0	1	2.03091001511	None	None	None	None	1
2.7	2015_May_06_1505	s	s	6	3	SIC	252	RC	2	2	09VD 02VO 02VC 02MD 02MO 02MC 02RD 02RO	1	0	1.22334599495	-426.0	70.0	-426	73	1
2.7	2015_May_06_1505	s	s	6	3	SIC	253	ABS	1	0	02VD 02VO 02VC 02MD 02MO 10MC 02RD 02RO	0	1	3.4691400528	None	None	None	None	1
2.7	2015_May_06_1505	s	s	6	3	SIC	254	ABS	0	2	02VD 02VO 02VC 02MD 02MO 02MC 10RD 02RO	0	1	2.38881015778	None	None	None	None	1
2.7	2015_May_06_1505	s	s	6	3	SIC	255	RC	0	1	02VD 02VO 02VC 02MD 02MO 02MC 02RD 09RO	1	0	1.50605106354	-308.0	229.0	-303	228	1
2.7	2015_May_06_1505	s	s	6	3	SIC	256	RC	0	2	02VD 02VO 02VC 02MD 02MO 02MC 09RD 02RO	1	0	1.72972416878	209.0	-305.0	211	-307	1
2.7	2015_May_06_1505	s	s	6	3	SIC	257	RC	2	1	02VD 09VO 02VC 02MD 02MO 02MC 02RD 02RO	1	0	0.785395860672	-77.0	359.0	-71	356	1
2.7	2015_May_06_1505	s	s	6	3	SIC	258	ABS	1	2	02VD 02VO 02VC 10MD 02MO 02MC 02RD 02RO	0	1	1.78362321854	None	None	None	None	1
2.7	2015_May_06_1505	s	s	6	3	SIC	259	RC	1	2	02VD 02VO 02VC 09MD 02MO 02MC 02RD 02RO	1	0	0.95947098732	61.0	-228.0	72	-228	1
2.7	2015_May_06_1505	s	s	6	3	SIC	260	ABS	1	1	02VD 02VO 02VC 02MD 10MO 02MC 02RD 02RO	0	1	2.40057992935	None	None	None	None	1
2.7	2015_May_06_1505	s	s	6	3	SIC	261	RC	2	0	02VD 02VO 09VC 02MD 02MO 02MC 02RD 02RO	1	0	1.24230003357	-37.0	-341.0	-38	-345	1
2.7	2015_May_06_1505	s	s	6	3	SIC	262	ABS	0	1	02VD 02VO 02VC 02MD 02MO 02MC 02RD 10RO	0	1	3.60117888451	None	None	None	None	1
2.7	2015_May_06_1505	s	s	6	3	SIC	263	RC	0	1	02VD 02VO 02VC 02MD 02MO 02MC 02RD 09RO	1	0	1.15289306641	-525.0	222.0	-537	223	1
2.7	2015_May_06_1505	s	s	6	3	SIC	264	ABS	2	2	10VD 02VO 02VC 02MD 02MO 02MC 02RD 02RO	0	1	2.18865609169	None	None	None	None	1
2.7	2015_May_06_1505	s	s	6	3	SIC	265	RC	1	1	02VD 02VO 02VC 02MD 09MO 02MC 02RD 02RO	1	0	0.726539850235	289.0	86.0	292	81	1
2.7	2015_May_06_1505	s	s	6	3	SIC	266	ABS	0	2	02VD 02VO 02VC 02MD 02MO 02MC 10RD 02RO	0	1	1.9062640667	None	None	None	None	1
2.7	2015_May_06_1505	s	s	6	3	SIC	267	ABS	1	0	02VD 02VO 02VC 02MD 02MO 10MC 02RD 02RO	0	1	3.63159203529	None	None	None	None	1
2.7	2015_May_06_1505	s	s	6	3	SIC	268	RC	0	2	02VD 02VO 02VC 02MD 02MO 02MC 09RD 02RO	1	0	0.776205062866	-242.0	110.0	-240	108	1
2.7	2015_May_06_1505	s	s	6	3	SIC	269	ABS	2	1	02VD 10VO 02VC 02MD 02MO 02MC 02RD 02RO	0	1	2.16258716583	None	None	None	None	1
2.7	2015_May_06_1505	s	s	6	3	SIC	270	ABS	2	0	02VD 02VO 10VC 02MD 02MO 02MC 02RD 02RO	0	1	1.80029392242	None	None	None	None	1
2.7	2015_May_06_1505	s	s	6	3	SIC	271	RC	2	2	09VD 02VO 02VC 02MD 02MO 02MC 02RD 02RO	1	0	0.70237493515	119.0	-72.0	123	-81	1
2.7	2015_May_06_1505	s	s	6	3	SIC	272	RC	1	0	02VD 02VO 02VC 02MD 02MO 09MC 02RD 02RO	1	0	1.03010320663	-205.0	311.0	-209	320	1
2.7	2015_May_06_1505	s	s	6	3	SIC	273	RC	2	2	09VD 02VO 02VC 02MD 02MO 02MC 02RD 02RO	1	0	0.693864107132	-237.0	-34.0	-231	-40	1
2.7	2015_May_06_1505	s	s	6	3	SIC	274	RC	0	2	02VD 02VO 02VC 02MD 02MO 02MC 09RD 02RO	1	0	1.51509404182	-392.0	-404.0	-396	-411	1
2.7	2015_May_06_1505	s	s	6	3	SIC	275	ABS	2	2	10VD 02VO 02VC 02MD 02MO 02MC 02RD 02RO	0	1	1.79544997215	None	None	None	None	1
2.7	2015_May_06_1505	s	s	6	3	SIC	276	RC	1	0	02VD 02VO 02VC 02MD 02MO 09MC 02RD 02RO	1	0	1.78330588341	120.0	293.0	124	295	1
2.7	2015_May_06_1505	s	s	6	3	SIC	277	ABS	2	0	02VD 02VO 10VC 02MD 02MO 02MC 02RD 02RO	1	0	1.83559513092	None	None	56	-232	0
2.7	2015_May_06_1505	s	s	6	3	SIC	278	ABS	0	1	02VD 02VO 02VC 02MD 02MO 02MC 02RD 10RO	0	1	4.22503399849	None	None	None	None	1
2.7	2015_May_06_1505	s	s	6	3	SIC	279	ABS	1	0	02VD 02VO 02VC 02MD 02MO 10MC 02RD 02RO	0	1	3.26578688622	None	None	None	None	1
2.7	2015_May_06_1505	s	s	6	3	SIC	280	RC	2	1	02VD 09VO 02VC 02MD 02MO 02MC 02RD 02RO	1	0	1.12935805321	128.0	209.0	120	214	1
2.7	2015_May_06_1505	s	s	6	3	SIC	281	ABS	1	1	02VD 02VO 02VC 02MD 10MO 02MC 02RD 02RO	0	1	3.63651013374	None	None	None	None	1
2.7	2015_May_06_1505	s	s	6	3	SIC	282	RC	0	1	02VD 02VO 02VC 02MD 02MO 02MC 02RD 09RO	1	0	1.30083107948	125.0	-194.0	134	-195	1
2.7	2015_May_06_1505	s	s	6	3	SIC	283	ABS	1	2	02VD 02VO 02VC 10MD 02MO 02MC 02RD 02RO	0	1	1.88284397125	None	None	None	None	1
2.7	2015_May_06_1505	s	s	6	3	SIC	284	ABS	2	1	02VD 10VO 02VC 02MD 02MO 02MC 02RD 02RO	0	1	1.97207212448	None	None	None	None	1
2.7	2015_May_06_1505	s	s	6	3	SIC	285	RC	1	1	02VD 02VO 02VC 02MD 09MO 02MC 02RD 02RO	1	0	2.26596403122	448.0	-276.0	451	-270	1
2.7	2015_May_06_1505	s	s	6	3	SIC	286	RC	2	0	02VD 02VO 09VC 02MD 02MO 02MC 02RD 02RO	1	0	0.643288135529	184.0	31.0	194	31	1
2.7	2015_May_06_1505	s	s	6	3	SIC	287	ABS	0	2	02VD 02VO 02VC 02MD 02MO 02MC 10RD 02RO	0	1	2.08955597878	None	None	None	None	1
2.7	2015_May_06_1505	s	s	6	3	SIC	288	RC	1	2	02VD 02VO 02VC 09MD 02MO 02MC 02RD 02RO	1	0	0.914361000061	-248.0	-48.0	-260	-44	1
2.7	2015_May_06_1505	s	s	6	3	SIC	289	ABS	1	1	02VD 02VO 02VC 02MD 10MO 02MC 02RD 02RO	0	1	4.47257184982	None	None	None	None	1
2.7	2015_May_06_1505	s	s	6	3	SIC	290	RC	2	2	09VD 02VO 02VC 02MD 02MO 02MC 02RD 02RO	1	0	1.5847260952	178.0	361.0	176	359	1
2.7	2015_May_06_1505	s	s	6	3	SIC	291	ABS	0	2	02VD 02VO 02VC 02MD 02MO 02MC 10RD 02RO	0	1	2.54182600975	None	None	None	None	1
2.7	2015_May_06_1505	s	s	6	3	SIC	292	RC	0	2	02VD 02VO 02VC 02MD 02MO 02MC 09RD 02RO	1	0	1.0779671669	404.0	30.0	404	31	1
2.7	2015_May_06_1505	s	s	6	3	SIC	293	RC	1	1	02VD 02VO 02VC 02MD 09MO 02MC 02RD 02RO	1	0	2.20994591713	335.0	359.0	341	358	1
2.7	2015_May_06_1505	s	s	6	3	SIC	294	ABS	2	1	02VD 10VO 02VC 02MD 02MO 02MC 02RD 02RO	0	1	2.08957600594	None	None	None	None	1
2.7	2015_May_06_1505	s	s	6	3	SIC	295	ABS	0	1	02VD 02VO 02VC 02MD 02MO 02MC 02RD 10RO	0	1	3.72583913803	None	None	None	None	1
2.7	2015_May_06_1505	s	s	6	3	SIC	296	ABS	2	2	10VD 02VO 02VC 02MD 02MO 02MC 02RD 02RO	0	1	1.74129295349	None	None	None	None	1
2.7	2015_May_06_1505	s	s	6	3	SIC	297	ABS	1	0	02VD 02VO 02VC 02MD 02MO 10MC 02RD 02RO	0	1	2.28284597397	None	None	None	None	1
2.7	2015_May_06_1505	s	s	6	3	SIC	298	RC	2	0	02VD 02VO 09VC 02MD 02MO 02MC 02RD 02RO	1	0	1.20725083351	-200.0	-266.0	-188	-263	1
2.7	2015_May_06_1505	s	s	6	3	SIC	299	ABS	2	0	02VD 02VO 10VC 02MD 02MO 02MC 02RD 02RO	0	1	2.51825094223	None	None	None	None	1
2.7	2015_May_06_1505	s	s	6	3	SIC	300	RC	0	1	02VD 02VO 02VC 02MD 02MO 02MC 02RD 09RO	1	0	0.605916023254	4.0	127.0	18	133	1
2.7	2015_May_06_1505	s	s	6	3	SIC	301	RC	2	1	02VD 09VO 02VC 02MD 02MO 02MC 02RD 02RO	1	0	0.936390161514	-400.0	158.0	-399	149	1
2.7	2015_May_06_1505	s	s	6	3	SIC	302	ABS	1	2	02VD 02VO 02VC 10MD 02MO 02MC 02RD 02RO	0	1	2.20880913734	None	None	None	None	1
2.7	2015_May_06_1505	s	s	6	3	SIC	303	RC	1	2	02VD 02VO 02VC 09MD 02MO 02MC 02RD 02RO	1	0	1.2537920475	205.0	-298.0	206	-307	1
2.7	2015_May_06_1505	s	s	6	3	SIC	304	RC	1	0	02VD 02VO 02VC 02MD 02MO 09MC 02RD 02RO	1	0	1.86594295502	-534.0	-187.0	-539	-196	1
2.7	2015_May_06_1505	s	s	6	3	SIC	305	ABS	1	2	02VD 02VO 02VC 10MD 02MO 02MC 02RD 02RO	0	1	2.24247002602	None	None	None	None	1
2.7	2015_May_06_1505	s	s	6	3	SIC	306	ABS	1	0	02VD 02VO 02VC 02MD 02MO 10MC 02RD 02RO	0	1	3.58939909935	None	None	None	None	1
2.7	2015_May_06_1505	s	s	6	3	SIC	307	RC	2	1	02VD 09VO 02VC 02MD 02MO 02MC 02RD 02RO	1	0	0.941032886505	448.0	69.0	451	71	1
2.7	2015_May_06_1505	s	s	6	3	SIC	308	RC	1	0	02VD 02VO 02VC 02MD 02MO 09MC 02RD 02RO	1	0	1.28917503357	184.0	-325.0	184	-327	1
2.7	2015_May_06_1505	s	s	6	3	SIC	309	ABS	1	1	02VD 02VO 02VC 02MD 10MO 02MC 02RD 02RO	0	1	2.30076003075	None	None	None	None	1
2.7	2015_May_06_1505	s	s	6	3	SIC	310	ABS	0	2	02VD 02VO 02VC 02MD 02MO 02MC 10RD 02RO	0	1	1.96510100365	None	None	None	None	1
2.7	2015_May_06_1505	s	s	6	3	SIC	311	RC	2	0	02VD 02VO 09VC 02MD 02MO 02MC 02RD 02RO	1	0	1.96001195908	-367.0	264.0	-363	251	1
2.7	2015_May_06_1505	s	s	6	3	SIC	312	RC	1	1	02VD 02VO 02VC 02MD 09MO 02MC 02RD 02RO	1	0	1.39498591423	-527.0	90.0	-520	87	1
2.7	2015_May_06_1505	s	s	6	3	SIC	313	ABS	0	1	02VD 02VO 02VC 02MD 02MO 02MC 02RD 10RO	0	1	3.70709204674	None	None	None	None	1
2.7	2015_May_06_1505	s	s	6	3	SIC	314	RC	0	1	02VD 02VO 02VC 02MD 02MO 02MC 02RD 09RO	1	0	2.3722550869	-63.0	192.0	-66	198	1
2.7	2015_May_06_1505	s	s	6	3	SIC	315	ABS	2	1	02VD 10VO 02VC 02MD 02MO 02MC 02RD 02RO	0	1	1.69433093071	None	None	None	None	1
2.7	2015_May_06_1505	s	s	6	3	SIC	316	ABS	2	2	10VD 02VO 02VC 02MD 02MO 02MC 02RD 02RO	0	1	1.91304016113	None	None	None	None	1
2.7	2015_May_06_1505	s	s	6	3	SIC	317	RC	1	2	02VD 02VO 02VC 09MD 02MO 02MC 02RD 02RO	1	0	1.01848006248	170.0	-264.0	183	-259	1
2.7	2015_May_06_1505	s	s	6	3	SIC	318	RC	2	2	09VD 02VO 02VC 02MD 02MO 02MC 02RD 02RO	1	0	0.835047960281	246.0	-75.0	248	-74	1
2.7	2015_May_06_1505	s	s	6	3	SIC	319	RC	0	2	02VD 02VO 02VC 02MD 02MO 02MC 09RD 02RO	1	0	1.81939792633	512.0	334.0	507	333	1
2.7	2015_May_06_1505	s	s	6	3	SIC	320	ABS	2	0	02VD 02VO 10VC 02MD 02MO 02MC 02RD 02RO	0	1	2.619328022	None	None	None	None	1
2.7	2015_May_06_1505	s	s	6	3	SIC	321	ABS	1	0	02VD 02VO 02VC 02MD 02MO 10MC 02RD 02RO	0	1	3.42012906075	None	None	None	None	1
2.7	2015_May_06_1505	s	s	6	3	SIC	322	RC	1	2	02VD 02VO 02VC 09MD 02MO 02MC 02RD 02RO	1	0	1.32946014404	434.0	-114.0	440	-116	1
2.7	2015_May_06_1505	s	s	6	3	SIC	323	RC	0	1	02VD 02VO 02VC 02MD 02MO 02MC 02RD 09RO	1	0	3.06576800346	164.0	396.0	168	387	1
2.7	2015_May_06_1505	s	s	6	3	SIC	324	ABS	2	0	02VD 02VO 10VC 02MD 02MO 02MC 02RD 02RO	0	1	2.75362110138	None	None	None	None	1
2.7	2015_May_06_1505	s	s	6	3	SIC	325	ABS	0	1	02VD 02VO 02VC 02MD 02MO 02MC 02RD 10RO	0	1	3.87796711922	None	None	None	None	1
2.7	2015_May_06_1505	s	s	6	3	SIC	326	RC	2	0	02VD 02VO 09VC 02MD 02MO 02MC 02RD 02RO	1	0	0.705623149872	137.0	46.0	134	43	1
2.7	2015_May_06_1505	s	s	6	3	SIC	327	RC	2	1	02VD 09VO 02VC 02MD 02MO 02MC 02RD 02RO	1	0	1.06549882889	17.0	-322.0	12	-315	1
2.7	2015_May_06_1505	s	s	6	3	SIC	328	ABS	1	2	02VD 02VO 02VC 10MD 02MO 02MC 02RD 02RO	0	1	1.91205000877	None	None	None	None	1
2.7	2015_May_06_1505	s	s	6	3	SIC	329	RC	2	2	09VD 02VO 02VC 02MD 02MO 02MC 02RD 02RO	1	0	1.01154518127	-155.0	239.0	-155	248	1
2.7	2015_May_06_1505	s	s	6	3	SIC	330	ABS	2	2	10VD 02VO 02VC 02MD 02MO 02MC 02RD 02RO	0	1	1.84726214409	None	None	None	None	1
2.7	2015_May_06_1505	s	s	6	3	SIC	331	ABS	1	1	02VD 02VO 02VC 02MD 10MO 02MC 02RD 02RO	0	1	2.45944309235	None	None	None	None	1
2.7	2015_May_06_1505	s	s	6	3	SIC	332	RC	1	1	02VD 02VO 02VC 02MD 09MO 02MC 02RD 02RO	0	1	2.74884486198	503.0	157.0	None	None	0
2.7	2015_May_06_1505	s	s	6	3	SIC	333	RC	1	0	02VD 02VO 02VC 02MD 02MO 09MC 02RD 02RO	1	0	0.606221914291	103.0	198.0	92	198	1
2.7	2015_May_06_1505	s	s	6	3	SIC	334	ABS	0	2	02VD 02VO 02VC 02MD 02MO 02MC 10RD 02RO	0	1	3.11898899078	None	None	None	None	1
2.7	2015_May_06_1505	s	s	6	3	SIC	335	ABS	2	1	02VD 10VO 02VC 02MD 02MO 02MC 02RD 02RO	0	1	2.06598806381	None	None	None	None	1
2.7	2015_May_06_1505	s	s	6	3	SIC	336	RC	0	2	02VD 02VO 02VC 02MD 02MO 02MC 09RD 02RO	1	0	1.35303092003	459.0	153.0	463	147	1
2.7	2015_May_06_1505	s	s	6	3	SIC	337	ABS	1	2	02VD 02VO 02VC 10MD 02MO 02MC 02RD 02RO	0	1	3.66697788239	None	None	None	None	1
2.7	2015_May_06_1505	s	s	6	3	SIC	338	RC	2	1	02VD 09VO 02VC 02MD 02MO 02MC 02RD 02RO	1	0	1.2823779583	315.0	-212.0	327	-211	1
2.7	2015_May_06_1505	s	s	6	3	SIC	339	RC	1	2	02VD 02VO 02VC 09MD 02MO 02MC 02RD 02RO	1	0	0.847168922424	473.0	1.0	476	3	1
2.7	2015_May_06_1505	s	s	6	3	SIC	340	RC	0	1	02VD 02VO 02VC 02MD 02MO 02MC 02RD 09RO	1	0	1.13599205017	-67.0	345.0	-70	332	1
2.7	2015_May_06_1505	s	s	6	3	SIC	341	ABS	0	1	02VD 02VO 02VC 02MD 02MO 02MC 02RD 10RO	0	1	2.70183992386	None	None	None	None	1
2.7	2015_May_06_1505	s	s	6	3	SIC	342	ABS	2	2	10VD 02VO 02VC 02MD 02MO 02MC 02RD 02RO	0	1	2.10629701614	None	None	None	None	1
2.7	2015_May_06_1505	s	s	6	3	SIC	343	RC	0	2	02VD 02VO 02VC 02MD 02MO 02MC 09RD 02RO	1	0	1.54784107208	-430.0	-76.0	-440	-74	1
2.7	2015_May_06_1505	s	s	6	3	SIC	344	RC	2	0	02VD 02VO 09VC 02MD 02MO 02MC 02RD 02RO	1	0	4.33098602295	518.0	378.0	526	376	1
2.7	2015_May_06_1505	s	s	6	3	SIC	345	ABS	0	2	02VD 02VO 02VC 02MD 02MO 02MC 10RD 02RO	0	1	2.56036996841	None	None	None	None	1
2.7	2015_May_06_1505	s	s	6	3	SIC	346	ABS	2	0	02VD 02VO 10VC 02MD 02MO 02MC 02RD 02RO	0	1	3.19578003883	None	None	None	None	1
2.7	2015_May_06_1505	s	s	6	3	SIC	347	ABS	2	1	02VD 10VO 02VC 02MD 02MO 02MC 02RD 02RO	0	1	1.92969703674	None	None	None	None	1
2.7	2015_May_06_1505	s	s	6	3	SIC	348	ABS	1	1	02VD 02VO 02VC 02MD 10MO 02MC 02RD 02RO	0	1	2.85596013069	None	None	None	None	1
2.7	2015_May_06_1505	s	s	6	3	SIC	349	RC	2	2	09VD 02VO 02VC 02MD 02MO 02MC 02RD 02RO	1	0	1.38829016685	-472.0	-77.0	-478	-71	1
2.7	2015_May_06_1505	s	s	6	3	SIC	350	RC	1	0	02VD 02VO 02VC 02MD 02MO 09MC 02RD 02RO	1	0	3.91124296188	-109.0	188.0	-115	179	1
2.7	2015_May_06_1505	s	s	6	3	SIC	351	RC	1	1	02VD 02VO 02VC 02MD 09MO 02MC 02RD 02RO	1	0	0.867395877838	-104.0	-53.0	-111	-54	1
2.7	2015_May_06_1505	s	s	6	3	SIC	352	ABS	1	0	02VD 02VO 02VC 02MD 02MO 10MC 02RD 02RO	0	1	4.06017208099	None	None	None	None	1
2.7	2015_May_06_1505	s	s	6	3	SIC	353	ABS	2	0	02VD 02VO 10VC 02MD 02MO 02MC 02RD 02RO	0	1	4.29320812225	None	None	None	None	1
2.7	2015_May_06_1505	s	s	6	3	SIC	354	ABS	1	1	02VD 02VO 02VC 02MD 10MO 02MC 02RD 02RO	0	1	4.37804484367	None	None	None	None	1
2.7	2015_May_06_1505	s	s	6	3	SIC	355	RC	2	2	09VD 02VO 02VC 02MD 02MO 02MC 02RD 02RO	1	0	1.28233599663	-437.0	63.0	-431	58	1
2.7	2015_May_06_1505	s	s	6	3	SIC	356	ABS	2	2	10VD 02VO 02VC 02MD 02MO 02MC 02RD 02RO	0	1	2.19422602654	None	None	None	None	1
2.7	2015_May_06_1505	s	s	6	3	SIC	357	ABS	0	2	02VD 02VO 02VC 02MD 02MO 02MC 10RD 02RO	0	1	2.85974121094	None	None	None	None	1
2.7	2015_May_06_1505	s	s	6	3	SIC	358	ABS	1	0	02VD 02VO 02VC 02MD 02MO 10MC 02RD 02RO	0	1	2.31307387352	None	None	None	None	1
2.7	2015_May_06_1505	s	s	6	3	SIC	359	RC	0	1	02VD 02VO 02VC 02MD 02MO 02MC 02RD 09RO	1	0	2.1735329628	345.0	-37.0	353	-43	1
2.7	2015_May_06_1505	s	s	6	3	SIC	360	RC	1	2	02VD 02VO 02VC 09MD 02MO 02MC 02RD 02RO	1	0	0.764493942261	-106.0	-85.0	-96	-76	1
2.7	2015_May_06_1505	s	s	6	3	SIC	361	RC	0	2	02VD 02VO 02VC 02MD 02MO 02MC 09RD 02RO	1	0	1.7686021328	-311.0	401.0	-315	398	1
2.7	2015_May_06_1505	s	s	6	3	SIC	362	ABS	2	1	02VD 10VO 02VC 02MD 02MO 02MC 02RD 02RO	0	1	2.61250805855	None	None	None	None	1
2.7	2015_May_06_1505	s	s	6	3	SIC	363	RC	2	1	02VD 09VO 02VC 02MD 02MO 02MC 02RD 02RO	1	0	1.12938094139	339.0	-354.0	348	-351	1
2.7	2015_May_06_1505	s	s	6	3	SIC	364	RC	1	0	02VD 02VO 02VC 02MD 02MO 09MC 02RD 02RO	1	0	1.79481220245	-345.0	132.0	-349	131	1
2.7	2015_May_06_1505	s	s	6	3	SIC	365	ABS	1	2	02VD 02VO 02VC 10MD 02MO 02MC 02RD 02RO	0	1	2.26604294777	None	None	None	None	1
2.7	2015_May_06_1505	s	s	6	3	SIC	366	RC	2	0	02VD 02VO 09VC 02MD 02MO 02MC 02RD 02RO	1	0	1.53619790077	-284.0	-186.0	-276	-186	1
2.7	2015_May_06_1505	s	s	6	3	SIC	367	ABS	0	1	02VD 02VO 02VC 02MD 02MO 02MC 02RD 10RO	0	1	4.00796198845	None	None	None	None	1
2.7	2015_May_06_1505	s	s	6	3	SIC	368	RC	1	1	02VD 02VO 02VC 02MD 09MO 02MC 02RD 02RO	1	0	1.25562310219	180.0	125.0	183	125	1
2.7	2015_May_06_1505	s	s	6	3	SIC	369	RC	0	2	02VD 02VO 02VC 02MD 02MO 02MC 09RD 02RO	1	0	3.30204391479	463.0	-393.0	471	-393	1
2.7	2015_May_06_1505	s	s	6	3	SIC	370	ABS	1	1	02VD 02VO 02VC 02MD 10MO 02MC 02RD 02RO	0	1	2.67150712013	None	None	None	None	1
2.7	2015_May_06_1505	s	s	6	3	SIC	371	RC	2	0	02VD 02VO 09VC 02MD 02MO 02MC 02RD 02RO	1	0	1.16467094421	52.0	-80.0	50	-72	1
2.7	2015_May_06_1505	s	s	6	3	SIC	372	ABS	1	0	02VD 02VO 02VC 02MD 02MO 10MC 02RD 02RO	0	1	2.81259202957	None	None	None	None	1
2.7	2015_May_06_1505	s	s	6	3	SIC	373	RC	0	1	02VD 02VO 02VC 02MD 02MO 02MC 02RD 09RO	1	0	1.85945701599	11.0	-64.0	9	-55	1
2.7	2015_May_06_1505	s	s	6	3	SIC	374	ABS	0	2	02VD 02VO 02VC 02MD 02MO 02MC 10RD 02RO	0	1	2.23188686371	None	None	None	None	1
2.7	2015_May_06_1505	s	s	6	3	SIC	375	RC	2	2	09VD 02VO 02VC 02MD 02MO 02MC 02RD 02RO	1	0	1.82975387573	-289.0	101.0	-282	94	1
2.7	2015_May_06_1505	s	s	6	3	SIC	376	ABS	0	1	02VD 02VO 02VC 02MD 02MO 02MC 02RD 10RO	0	1	3.61295890808	None	None	None	None	1
2.7	2015_May_06_1505	s	s	6	3	SIC	377	ABS	1	2	02VD 02VO 02VC 10MD 02MO 02MC 02RD 02RO	0	1	2.36522102356	None	None	None	None	1
2.7	2015_May_06_1505	s	s	6	3	SIC	378	RC	1	0	02VD 02VO 02VC 02MD 02MO 09MC 02RD 02RO	1	0	1.37692499161	85.0	-256.0	89	-255	1
2.7	2015_May_06_1505	s	s	6	3	SIC	379	RC	1	2	02VD 02VO 02VC 09MD 02MO 02MC 02RD 02RO	1	0	0.55254983902	17.0	-80.0	15	-72	1
2.7	2015_May_06_1505	s	s	6	3	SIC	380	ABS	2	1	02VD 10VO 02VC 02MD 02MO 02MC 02RD 02RO	0	1	1.82384395599	None	None	None	None	1
2.7	2015_May_06_1505	s	s	6	3	SIC	381	RC	1	1	02VD 02VO 02VC 02MD 09MO 02MC 02RD 02RO	1	0	0.729172945023	239.0	-42.0	232	-41	1
2.7	2015_May_06_1505	s	s	6	3	SIC	382	RC	2	1	02VD 09VO 02VC 02MD 02MO 02MC 02RD 02RO	1	0	1.05360603333	-345.0	-167.0	-344	-163	1
2.7	2015_May_06_1505	s	s	6	3	SIC	383	ABS	2	0	02VD 02VO 10VC 02MD 02MO 02MC 02RD 02RO	0	1	1.87771916389	None	None	None	None	1
2.7	2015_May_06_1505	s	s	6	3	SIC	384	ABS	2	2	10VD 02VO 02VC 02MD 02MO 02MC 02RD 02RO	0	1	1.97686195374	None	None	None	None	1
2.7	2015_May_06_1505	s	s	6	3	SIC	385	RC	0	2	02VD 02VO 02VC 02MD 02MO 02MC 09RD 02RO	1	0	2.19721102715	350.0	-383.0	358	-381	1
2.7	2015_May_06_1505	s	s	6	3	SIC	386	ABS	1	0	02VD 02VO 02VC 02MD 02MO 10MC 02RD 02RO	0	1	3.68355298042	None	None	None	None	1
2.7	2015_May_06_1505	s	s	6	3	SIC	387	RC	0	1	02VD 02VO 02VC 02MD 02MO 02MC 02RD 09RO	1	0	0.905739068985	-236.0	-81.0	-235	-80	1
2.7	2015_May_06_1505	s	s	6	3	SIC	388	ABS	1	2	02VD 02VO 02VC 10MD 02MO 02MC 02RD 02RO	0	1	1.8002538681	None	None	None	None	1
2.7	2015_May_06_1505	s	s	6	3	SIC	389	RC	1	2	02VD 02VO 02VC 09MD 02MO 02MC 02RD 02RO	1	0	1.45895791054	369.0	276.0	365	265	1
2.7	2015_May_06_1505	s	s	6	3	SIC	390	ABS	2	2	10VD 02VO 02VC 02MD 02MO 02MC 02RD 02RO	0	1	3.17384696007	None	None	None	None	1
2.7	2015_May_06_1505	s	s	6	3	SIC	391	RC	1	1	02VD 02VO 02VC 02MD 09MO 02MC 02RD 02RO	1	0	1.10103988647	-87.0	-350.0	-92	-344	1
2.7	2015_May_06_1505	s	s	6	3	SIC	392	RC	2	1	02VD 09VO 02VC 02MD 02MO 02MC 02RD 02RO	1	0	1.2069811821	-144.0	200.0	-139	202	1
2.7	2015_May_06_1505	s	s	6	3	SIC	393	ABS	0	2	02VD 02VO 02VC 02MD 02MO 02MC 10RD 02RO	0	1	1.84750103951	None	None	None	None	1
2.7	2015_May_06_1505	s	s	6	3	SIC	394	ABS	2	0	02VD 02VO 10VC 02MD 02MO 02MC 02RD 02RO	0	1	1.91361093521	None	None	None	None	1
2.7	2015_May_06_1505	s	s	6	3	SIC	395	ABS	2	1	02VD 10VO 02VC 02MD 02MO 02MC 02RD 02RO	0	1	2.02057003975	None	None	None	None	1
2.7	2015_May_06_1505	s	s	6	3	SIC	396	RC	1	0	02VD 02VO 02VC 02MD 02MO 09MC 02RD 02RO	1	0	4.56218004227	-207.0	113.0	-212	105	1
2.7	2015_May_06_1505	s	s	6	3	SIC	397	RC	2	0	02VD 02VO 09VC 02MD 02MO 02MC 02RD 02RO	1	0	0.905657052994	-15.0	-179.0	-2	-176	1
2.7	2015_May_06_1505	s	s	6	3	SIC	398	RC	2	2	09VD 02VO 02VC 02MD 02MO 02MC 02RD 02RO	1	0	0.647123098373	157.0	-65.0	147	-61	1
2.7	2015_May_06_1505	s	s	6	3	SIC	399	ABS	0	1	02VD 02VO 02VC 02MD 02MO 02MC 02RD 10RO	0	1	3.31377482414	None	None	None	None	1
2.7	2015_May_06_1505	s	s	6	3	SIC	400	ABS	1	1	02VD 02VO 02VC 02MD 10MO 02MC 02RD 02RO	0	1	3.56214404106	None	None	None	None	1
2.7	2015_May_06_1505	s	s	6	3	SIC	401	ABS	1	2	02VD 02VO 02VC 10MD 02MO 02MC 02RD 02RO	0	1	2.64772820473	None	None	None	None	1
2.7	2015_May_06_1505	s	s	6	3	SIC	402	ABS	2	1	02VD 10VO 02VC 02MD 02MO 02MC 02RD 02RO	0	1	2.42176699638	None	None	None	None	1
2.7	2015_May_06_1505	s	s	6	3	SIC	403	RC	1	2	02VD 02VO 02VC 09MD 02MO 02MC 02RD 02RO	1	0	1.07927083969	-390.0	381.0	-393	382	1
2.7	2015_May_06_1505	s	s	6	3	SIC	404	RC	1	1	02VD 02VO 02VC 02MD 09MO 02MC 02RD 02RO	1	0	0.808896064758	-64.0	-92.0	-60	-92	1
2.7	2015_May_06_1505	s	s	6	3	SIC	405	ABS	1	0	02VD 02VO 02VC 02MD 02MO 10MC 02RD 02RO	0	1	2.23580384254	None	None	None	None	1
2.7	2015_May_06_1505	s	s	6	3	SIC	406	RC	0	1	02VD 02VO 02VC 02MD 02MO 02MC 02RD 09RO	1	0	2.30641508102	-60.0	-273.0	-54	-281	1
2.7	2015_May_06_1505	s	s	6	3	SIC	407	RC	2	2	09VD 02VO 02VC 02MD 02MO 02MC 02RD 02RO	1	0	1.43070697784	-483.0	379.0	-475	375	1
2.7	2015_May_06_1505	s	s	6	3	SIC	408	RC	0	2	02VD 02VO 02VC 02MD 02MO 02MC 09RD 02RO	1	0	0.98447394371	12.0	184.0	8	186	1
2.7	2015_May_06_1505	s	s	6	3	SIC	409	ABS	0	1	02VD 02VO 02VC 02MD 02MO 02MC 02RD 10RO	0	1	2.91409492493	None	None	None	None	1
2.7	2015_May_06_1505	s	s	6	3	SIC	410	ABS	0	2	02VD 02VO 02VC 02MD 02MO 02MC 10RD 02RO	0	1	1.80027699471	None	None	None	None	1
2.7	2015_May_06_1505	s	s	6	3	SIC	411	RC	2	0	02VD 02VO 09VC 02MD 02MO 02MC 02RD 02RO	1	0	1.13474702835	-342.0	-378.0	-341	-374	1
2.7	2015_May_06_1505	s	s	6	3	SIC	412	RC	2	1	02VD 09VO 02VC 02MD 02MO 02MC 02RD 02RO	1	0	1.27689409256	198.0	-254.0	193	-250	1
2.7	2015_May_06_1505	s	s	6	3	SIC	413	ABS	2	2	10VD 02VO 02VC 02MD 02MO 02MC 02RD 02RO	0	1	3.16049003601	None	None	None	None	1
2.7	2015_May_06_1505	s	s	6	3	SIC	414	ABS	1	1	02VD 02VO 02VC 02MD 10MO 02MC 02RD 02RO	0	1	2.27779507637	None	None	None	None	1
2.7	2015_May_06_1505	s	s	6	3	SIC	415	RC	1	0	02VD 02VO 02VC 02MD 02MO 09MC 02RD 02RO	1	0	5.21378397942	283.0	289.0	286	287	1
2.7	2015_May_06_1505	s	s	6	3	SIC	416	ABS	2	0	02VD 02VO 10VC 02MD 02MO 02MC 02RD 02RO	0	1	3.09501290321	None	None	None	None	1
2.7	2015_May_06_1505	s	s	6	3	SIC	417	RC	2	2	09VD 02VO 02VC 02MD 02MO 02MC 02RD 02RO	1	0	3.08327507973	240.0	-174.0	247	-169	1
2.7	2015_May_06_1505	s	s	6	3	SIC	418	RC	0	1	02VD 02VO 02VC 02MD 02MO 02MC 02RD 09RO	1	0	0.877175807953	275.0	2.0	271	-2	1
2.7	2015_May_06_1505	s	s	6	3	SIC	419	ABS	2	1	02VD 10VO 02VC 02MD 02MO 02MC 02RD 02RO	0	1	1.77411794662	None	None	None	None	1
2.7	2015_May_06_1505	s	s	6	3	SIC	420	RC	2	1	02VD 09VO 02VC 02MD 02MO 02MC 02RD 02RO	1	0	1.04232811928	-501.0	-7.0	-506	-11	1
2.7	2015_May_06_1505	s	s	6	3	SIC	421	RC	2	0	02VD 02VO 09VC 02MD 02MO 02MC 02RD 02RO	1	0	0.634984970093	13.0	-157.0	9	-156	1
2.7	2015_May_06_1505	s	s	6	3	SIC	422	RC	1	2	02VD 02VO 02VC 09MD 02MO 02MC 02RD 02RO	1	0	0.960392951965	-343.0	285.0	-384	-296	0
2.7	2015_May_06_1505	s	s	6	3	SIC	423	ABS	1	0	02VD 02VO 02VC 02MD 02MO 10MC 02RD 02RO	0	1	5.0327630043	None	None	None	None	1
2.7	2015_May_06_1505	s	s	6	3	SIC	424	ABS	2	0	02VD 02VO 10VC 02MD 02MO 02MC 02RD 02RO	0	1	1.58835983276	None	None	None	None	1
2.7	2015_May_06_1505	s	s	6	3	SIC	425	ABS	1	2	02VD 02VO 02VC 10MD 02MO 02MC 02RD 02RO	0	1	1.87126803398	None	None	None	None	1
2.7	2015_May_06_1505	s	s	6	3	SIC	426	ABS	2	2	10VD 02VO 02VC 02MD 02MO 02MC 02RD 02RO	0	1	1.68285608292	None	None	None	None	1
2.7	2015_May_06_1505	s	s	6	3	SIC	427	RC	1	1	02VD 02VO 02VC 02MD 09MO 02MC 02RD 02RO	1	0	1.20956301689	385.0	-123.0	378	-123	1
2.7	2015_May_06_1505	s	s	6	3	SIC	428	RC	1	0	02VD 02VO 02VC 02MD 02MO 09MC 02RD 02RO	1	0	2.04760694504	-415.0	-298.0	-409	-293	1
2.7	2015_May_06_1505	s	s	6	3	SIC	429	ABS	0	1	02VD 02VO 02VC 02MD 02MO 02MC 02RD 10RO	0	1	3.33088612556	None	None	None	None	1
2.7	2015_May_06_1505	s	s	6	3	SIC	430	RC	0	2	02VD 02VO 02VC 02MD 02MO 02MC 09RD 02RO	1	0	1.1999399662	-251.0	280.0	-245	273	1
2.7	2015_May_06_1505	s	s	6	3	SIC	431	ABS	0	2	02VD 02VO 02VC 02MD 02MO 02MC 10RD 02RO	0	1	2.56545805931	None	None	None	None	1
2.7	2015_May_06_1505	s	s	6	3	SIC	432	ABS	1	1	02VD 02VO 02VC 02MD 10MO 02MC 02RD 02RO	0	1	2.64264321327	None	None	None	None	1
2.7	2015_May_06_1505	s	s	6	3	SIC	433	RC	1	0	02VD 02VO 02VC 02MD 02MO 09MC 02RD 02RO	1	0	1.33487391472	-224.0	326.0	-219	330	1
2.7	2015_May_06_1505	s	s	6	3	SIC	434	RC	1	2	02VD 02VO 02VC 09MD 02MO 02MC 02RD 02RO	1	0	1.8325150013	-434.0	-120.0	-432	-117	1
2.7	2015_May_06_1505	s	s	6	3	SIC	435	RC	0	1	02VD 02VO 02VC 02MD 02MO 02MC 02RD 09RO	1	0	1.46742892265	126.0	-344.0	127	-340	1
2.7	2015_May_06_1505	s	s	6	3	SIC	436	RC	2	1	02VD 09VO 02VC 02MD 02MO 02MC 02RD 02RO	1	0	0.877790927887	-382.0	213.0	-373	216	1
2.7	2015_May_06_1505	s	s	6	3	SIC	437	RC	2	0	02VD 02VO 09VC 02MD 02MO 02MC 02RD 02RO	1	0	1.27981710434	5.0	280.0	7	264	1
2.7	2015_May_06_1505	s	s	6	3	SIC	438	RC	2	2	09VD 02VO 02VC 02MD 02MO 02MC 02RD 02RO	1	0	1.13775515556	224.0	-273.0	226	-272	1
2.7	2015_May_06_1505	s	s	6	3	SIC	439	ABS	0	1	02VD 02VO 02VC 02MD 02MO 02MC 02RD 10RO	0	1	3.84836578369	None	None	None	None	1
2.7	2015_May_06_1505	s	s	6	3	SIC	440	ABS	1	0	02VD 02VO 02VC 02MD 02MO 10MC 02RD 02RO	0	1	2.694835186	None	None	None	None	1
2.7	2015_May_06_1505	s	s	6	3	SIC	441	ABS	1	1	02VD 02VO 02VC 02MD 10MO 02MC 02RD 02RO	0	1	1.7363910675	None	None	None	None	1
2.7	2015_May_06_1505	s	s	6	3	SIC	442	ABS	1	2	02VD 02VO 02VC 10MD 02MO 02MC 02RD 02RO	0	1	2.5013358593	None	None	None	None	1
2.7	2015_May_06_1505	s	s	6	3	SIC	443	ABS	2	2	10VD 02VO 02VC 02MD 02MO 02MC 02RD 02RO	0	1	2.54818201065	None	None	None	None	1
2.7	2015_May_06_1505	s	s	6	3	SIC	444	ABS	2	0	02VD 02VO 10VC 02MD 02MO 02MC 02RD 02RO	0	1	2.50128793716	None	None	None	None	1
2.7	2015_May_06_1505	s	s	6	3	SIC	445	ABS	0	2	02VD 02VO 02VC 02MD 02MO 02MC 10RD 02RO	0	1	1.75065112114	None	None	None	None	1
2.7	2015_May_06_1505	s	s	6	3	SIC	446	RC	0	2	02VD 02VO 02VC 02MD 02MO 02MC 09RD 02RO	1	0	1.06607913971	-305.0	-115.0	-307	-117	1
2.7	2015_May_06_1505	s	s	6	3	SIC	447	RC	1	1	02VD 02VO 02VC 02MD 09MO 02MC 02RD 02RO	1	0	2.09450387955	497.0	-405.0	500	-412	1
2.7	2015_May_06_1505	s	s	6	3	SIC	448	ABS	2	1	02VD 10VO 02VC 02MD 02MO 02MC 02RD 02RO	0	1	2.43592214584	None	None	None	None	1
2.7	2015_May_06_1505	s	s	6	3	SIC	449	RC	2	2	09VD 02VO 02VC 02MD 02MO 02MC 02RD 02RO	0	1	2.6194858551	-414.0	-106.0	None	None	0
2.7	2015_May_06_1505	s	s	6	3	SIC	450	ABS	2	0	02VD 02VO 10VC 02MD 02MO 02MC 02RD 02RO	0	1	2.57432079315	None	None	None	None	1
2.7	2015_May_06_1505	s	s	6	3	SIC	451	RC	0	2	02VD 02VO 02VC 02MD 02MO 02MC 09RD 02RO	1	0	1.30083322525	360.0	-250.0	360	-244	1
2.7	2015_May_06_1505	s	s	6	3	SIC	452	RC	1	1	02VD 02VO 02VC 02MD 09MO 02MC 02RD 02RO	1	0	1.44714999199	363.0	-174.0	354	-178	1
2.7	2015_May_06_1505	s	s	6	3	SIC	453	ABS	1	2	02VD 02VO 02VC 10MD 02MO 02MC 02RD 02RO	0	1	2.40713500977	None	None	None	None	1
2.7	2015_May_06_1505	s	s	6	3	SIC	454	ABS	2	2	10VD 02VO 02VC 02MD 02MO 02MC 02RD 02RO	0	1	1.76216602325	None	None	None	None	1
2.7	2015_May_06_1505	s	s	6	3	SIC	455	RC	1	2	02VD 02VO 02VC 09MD 02MO 02MC 02RD 02RO	1	0	1.01204419136	-376.0	-132.0	-380	-131	1
2.7	2015_May_06_1505	s	s	6	3	SIC	456	RC	2	1	02VD 09VO 02VC 02MD 02MO 02MC 02RD 02RO	1	0	0.878597021103	57.0	331.0	65	336	1
2.7	2015_May_06_1505	s	s	6	3	SIC	457	RC	2	0	02VD 02VO 09VC 02MD 02MO 02MC 02RD 02RO	1	0	1.19995498657	-508.0	71.0	-502	65	1
2.7	2015_May_06_1505	s	s	6	3	SIC	458	ABS	2	1	02VD 10VO 02VC 02MD 02MO 02MC 02RD 02RO	0	1	2.29455399513	None	None	None	None	1
2.7	2015_May_06_1505	s	s	6	3	SIC	459	RC	0	1	02VD 02VO 02VC 02MD 02MO 02MC 02RD 09RO	1	0	2.54870295525	-538.0	-232.0	-532	-239	1
2.7	2015_May_06_1505	s	s	6	3	SIC	460	ABS	0	2	02VD 02VO 02VC 02MD 02MO 02MC 10RD 02RO	0	1	2.20711302757	None	None	None	None	1
2.7	2015_May_06_1505	s	s	6	3	SIC	461	RC	1	0	02VD 02VO 02VC 02MD 02MO 09MC 02RD 02RO	1	0	1.16463494301	148.0	391.0	147	398	1
2.7	2015_May_06_1505	s	s	6	3	SIC	462	ABS	1	1	02VD 02VO 02VC 02MD 10MO 02MC 02RD 02RO	0	1	2.36555194855	None	None	None	None	1
2.7	2015_May_06_1505	s	s	6	3	SIC	463	ABS	0	1	02VD 02VO 02VC 02MD 02MO 02MC 02RD 10RO	0	1	3.45976114273	None	None	None	None	1
2.7	2015_May_06_1505	s	s	6	3	SIC	464	ABS	1	0	02VD 02VO 02VC 02MD 02MO 10MC 02RD 02RO	0	1	3.39618802071	None	None	None	None	1
2.7	2015_May_06_1505	s	s	6	3	SIC	465	ABS	0	1	02VD 02VO 02VC 02MD 02MO 02MC 02RD 10RO	0	1	3.11155486107	None	None	None	None	1
2.7	2015_May_06_1505	s	s	6	3	SIC	466	ABS	1	2	02VD 02VO 02VC 10MD 02MO 02MC 02RD 02RO	0	1	2.05924701691	None	None	None	None	1
2.7	2015_May_06_1505	s	s	6	3	SIC	467	ABS	1	0	02VD 02VO 02VC 02MD 02MO 10MC 02RD 02RO	0	1	3.04795193672	None	None	None	None	1
2.7	2015_May_06_1505	s	s	6	3	SIC	468	RC	1	0	02VD 02VO 02VC 02MD 02MO 09MC 02RD 02RO	1	0	1.4236061573	488.0	-171.0	488	-180	1
2.7	2015_May_06_1505	s	s	6	3	SIC	469	RC	0	2	02VD 02VO 02VC 02MD 02MO 02MC 09RD 02RO	1	0	0.826877117157	160.0	-256.0	166	-261	1
2.7	2015_May_06_1505	s	s	6	3	SIC	470	ABS	2	0	02VD 02VO 10VC 02MD 02MO 02MC 02RD 02RO	0	1	2.10269212723	None	None	None	None	1
2.7	2015_May_06_1505	s	s	6	3	SIC	471	RC	0	1	02VD 02VO 02VC 02MD 02MO 02MC 02RD 09RO	1	0	1.58332014084	397.0	255.0	395	250	1
2.7	2015_May_06_1505	s	s	6	3	SIC	472	ABS	2	1	02VD 10VO 02VC 02MD 02MO 02MC 02RD 02RO	0	1	3.09504103661	None	None	None	None	1
2.7	2015_May_06_1505	s	s	6	3	SIC	473	RC	2	1	02VD 09VO 02VC 02MD 02MO 02MC 02RD 02RO	1	0	0.86530995369	-188.0	99.0	-188	102	1
2.7	2015_May_06_1505	s	s	6	3	SIC	474	RC	2	2	09VD 02VO 02VC 02MD 02MO 02MC 02RD 02RO	1	0	1.17386388779	-97.0	170.0	-88	170	1
2.7	2015_May_06_1505	s	s	6	3	SIC	475	ABS	2	2	10VD 02VO 02VC 02MD 02MO 02MC 02RD 02RO	0	1	2.0356760025	None	None	None	None	1
2.7	2015_May_06_1505	s	s	6	3	SIC	476	ABS	1	1	02VD 02VO 02VC 02MD 10MO 02MC 02RD 02RO	0	1	2.62448215485	None	None	None	None	1
2.7	2015_May_06_1505	s	s	6	3	SIC	477	RC	1	2	02VD 02VO 02VC 09MD 02MO 02MC 02RD 02RO	1	0	0.604828119278	138.0	77.0	141	75	1
2.7	2015_May_06_1505	s	s	6	3	SIC	478	RC	2	0	02VD 02VO 09VC 02MD 02MO 02MC 02RD 02RO	1	0	1.06605696678	-353.0	87.0	-348	88	1
2.7	2015_May_06_1505	s	s	6	3	SIC	479	RC	1	1	02VD 02VO 02VC 02MD 09MO 02MC 02RD 02RO	1	0	0.876541137695	270.0	38.0	279	41	1
2.7	2015_May_06_1505	s	s	6	3	SIC	480	ABS	0	2	02VD 02VO 02VC 02MD 02MO 02MC 10RD 02RO	0	1	1.73651099205	None	None	None	None	1
