Version	Date	Stimuli	Method	Subject	Session	Condition	Trial	Target	Channel1	Channel2	Distractors	LMouseButton	RMouseButton	RT	TargetX	TargetY	ResponseX	ResponseY	Correct
2.7	2015_May_22_1010	s	s	7	4	Capacity	1	ABS	1	0	08VC 16MC	0	1	2.19546294212	None	None	None	None	1
2.7	2015_May_22_1010	s	s	7	4	Capacity	2	RC	2	0	15VC 08MC	1	0	4.30256795883	-407.0	-102.0	-406	-113	1
2.7	2015_May_22_1010	s	s	7	4	Capacity	3	ABS	2	0	16VC 08MC	0	1	3.65523982048	None	None	None	None	1
2.7	2015_May_22_1010	s	s	7	4	Capacity	4	RC	1	0	08VC 15MC	1	0	3.70275998116	22.0	237.0	19	228	1
2.7	2015_May_22_1010	s	s	7	4	Capacity	5	ABS	2	0	16VC 08MC	0	1	3.36569905281	None	None	None	None	1
2.7	2015_May_22_1010	s	s	7	4	Capacity	6	ABS	1	0	08VC 16MC	0	1	3.89931797981	None	None	None	None	1
2.7	2015_May_22_1010	s	s	7	4	Capacity	7	RC	1	0	08VC 15MC	1	0	1.10258698463	68.0	194.0	76	195	1
2.7	2015_May_22_1010	s	s	7	4	Capacity	8	RC	2	0	15VC 08MC	1	0	1.41182613373	-529.0	-62.0	-532	-63	1
2.7	2015_May_22_1010	s	s	7	4	Capacity	9	ABS	2	0	16VC 08MC	0	1	2.75366306305	None	None	None	None	1
2.7	2015_May_22_1010	s	s	7	4	Capacity	10	RC	2	0	15VC 08MC	1	0	2.31400084496	448.0	-197.0	452	-195	1
2.7	2015_May_22_1010	s	s	7	4	Capacity	11	RC	1	0	08VC 15MC	1	0	1.62375879288	515.0	284.0	518	283	1
2.7	2015_May_22_1010	s	s	7	4	Capacity	12	ABS	1	0	08VC 16MC	0	1	2.92544913292	None	None	None	None	1
2.7	2015_May_22_1010	s	s	7	4	Capacity	13	RC	2	0	15VC 08MC	1	0	0.952795028687	-536.0	-141.0	-534	-145	1
2.7	2015_May_22_1010	s	s	7	4	Capacity	14	ABS	1	0	08VC 16MC	0	1	2.97735500336	None	None	None	None	1
2.7	2015_May_22_1010	s	s	7	4	Capacity	15	RC	1	0	08VC 15MC	1	0	0.693842887878	-522.0	-141.0	-520	-145	1
2.7	2015_May_22_1010	s	s	7	4	Capacity	16	ABS	2	0	16VC 08MC	0	1	2.69001197815	None	None	None	None	1
2.7	2015_May_22_1010	s	s	7	4	Capacity	17	ABS	2	0	16VC 08MC	0	1	2.25946807861	None	None	None	None	1
2.7	2015_May_22_1010	s	s	7	4	Capacity	18	RC	2	0	15VC 08MC	1	0	0.999783039093	173.0	410.0	172	409	1
2.7	2015_May_22_1010	s	s	7	4	Capacity	19	RC	1	0	08VC 15MC	1	0	1.01826119423	491.0	43.0	498	47	1
2.7	2015_May_22_1010	s	s	7	4	Capacity	20	ABS	1	0	08VC 16MC	0	1	2.77231216431	None	None	None	None	1
2.7	2015_May_22_1010	s	s	7	4	Capacity	21	ABS	2	0	16VC 08MC	0	1	1.98860692978	None	None	None	None	1
2.7	2015_May_22_1010	s	s	7	4	Capacity	22	ABS	1	0	08VC 16MC	0	1	1.92654585838	None	None	None	None	1
2.7	2015_May_22_1010	s	s	7	4	Capacity	23	RC	2	0	15VC 08MC	1	0	1.12441706657	511.0	-18.0	504	-16	1
2.7	2015_May_22_1010	s	s	7	4	Capacity	24	RC	1	0	08VC 15MC	1	0	0.667124986649	258.0	179.0	262	175	1
2.7	2015_May_22_1010	s	s	7	4	Capacity	25	ABS	1	0	08VC 16MC	0	1	1.69422888756	None	None	None	None	1
2.7	2015_May_22_1010	s	s	7	4	Capacity	26	ABS	2	0	16VC 08MC	0	1	1.40782785416	None	None	None	None	1
2.7	2015_May_22_1010	s	s	7	4	Capacity	27	RC	1	0	08VC 15MC	1	0	0.776184082031	390.0	342.0	393	338	1
2.7	2015_May_22_1010	s	s	7	4	Capacity	28	RC	2	0	15VC 08MC	1	0	2.06795692444	-429.0	51.0	-427	45	1
2.7	2015_May_22_1010	s	s	7	4	Capacity	29	RC	1	0	08VC 15MC	1	0	1.48936104774	-183.0	-349.0	-187	-356	1
2.7	2015_May_22_1010	s	s	7	4	Capacity	30	ABS	2	0	16VC 08MC	0	1	2.78416705132	None	None	None	None	1
2.7	2015_May_22_1010	s	s	7	4	Capacity	31	RC	2	0	15VC 08MC	1	0	0.611374855042	-127.0	300.0	-138	301	1
2.7	2015_May_22_1010	s	s	7	4	Capacity	32	ABS	1	0	08VC 16MC	0	1	2.56531906128	None	None	None	None	1
2.7	2015_May_22_1010	s	s	7	4	Capacity	33	RC	1	0	08VC 15MC	1	0	2.85962700844	411.0	-378.0	417	-386	1
2.7	2015_May_22_1010	s	s	7	4	Capacity	34	ABS	2	0	16VC 08MC	0	1	2.31846809387	None	None	None	None	1
2.7	2015_May_22_1010	s	s	7	4	Capacity	35	RC	2	0	15VC 08MC	1	0	1.05402183533	-263.0	12.0	-264	19	1
2.7	2015_May_22_1010	s	s	7	4	Capacity	36	ABS	1	0	08VC 16MC	0	1	2.58575487137	None	None	None	None	1
2.7	2015_May_22_1010	s	s	7	4	Capacity	37	RC	2	0	15VC 08MC	1	0	0.973386049271	-366.0	327.0	-359	327	1
2.7	2015_May_22_1010	s	s	7	4	Capacity	38	ABS	2	0	16VC 08MC	0	1	1.96007585526	None	None	None	None	1
2.7	2015_May_22_1010	s	s	7	4	Capacity	39	RC	1	0	08VC 15MC	1	0	1.01828098297	276.0	-254.0	276	-264	1
2.7	2015_May_22_1010	s	s	7	4	Capacity	40	ABS	1	0	08VC 16MC	0	1	2.9067800045	None	None	None	None	1
2.7	2015_May_22_1010	s	s	7	4	Capacity	41	RC	2	0	15VC 08MC	1	0	1.26578402519	348.0	126.0	342	126	1
2.7	2015_May_22_1010	s	s	7	4	Capacity	42	ABS	1	0	08VC 16MC	0	1	2.18386316299	None	None	None	None	1
2.7	2015_May_22_1010	s	s	7	4	Capacity	43	ABS	2	0	16VC 08MC	0	1	1.40748500824	None	None	None	None	1
2.7	2015_May_22_1010	s	s	7	4	Capacity	44	RC	1	0	08VC 15MC	1	0	0.787992954254	-251.0	130.0	-248	125	1
2.7	2015_May_22_1010	s	s	7	4	Capacity	45	RC	1	0	08VC 15MC	1	0	0.893974065781	-219.0	-142.0	-218	-143	1
2.7	2015_May_22_1010	s	s	7	4	Capacity	46	RC	2	0	15VC 08MC	1	0	1.27751302719	-166.0	-324.0	-162	-327	1
2.7	2015_May_22_1010	s	s	7	4	Capacity	47	ABS	2	0	16VC 08MC	0	1	1.65417218208	None	None	None	None	1
2.7	2015_May_22_1010	s	s	7	4	Capacity	48	ABS	1	0	08VC 16MC	0	1	2.49469804764	None	None	None	None	1
2.7	2015_May_22_1010	s	s	7	4	Capacity	49	RC	2	0	15VC 08MC	1	0	0.867168188095	498.0	288.0	496	296	1
2.7	2015_May_22_1010	s	s	7	4	Capacity	50	RC	1	0	08VC 15MC	1	0	0.756561040878	-230.0	-124.0	-230	-128	1
2.7	2015_May_22_1010	s	s	7	4	Capacity	51	ABS	2	0	16VC 08MC	0	1	1.50108504295	None	None	None	None	1
2.7	2015_May_22_1010	s	s	7	4	Capacity	52	ABS	1	0	08VC 16MC	0	1	2.43610715866	None	None	None	None	1
2.7	2015_May_22_1010	s	s	7	4	Capacity	53	RC	1	0	08VC 15MC	1	0	0.611685037613	-166.0	347.0	-166	342	1
2.7	2015_May_22_1010	s	s	7	4	Capacity	54	ABS	1	0	08VC 16MC	0	1	1.71018195152	None	None	None	None	1
2.7	2015_May_22_1010	s	s	7	4	Capacity	55	ABS	2	0	16VC 08MC	0	1	1.6076169014	None	None	None	None	1
2.7	2015_May_22_1010	s	s	7	4	Capacity	56	RC	2	0	15VC 08MC	1	0	0.652658939362	-110.0	10.0	-104	4	1
2.7	2015_May_22_1010	s	s	7	4	Capacity	57	ABS	2	0	16VC 08MC	0	1	1.63064289093	None	None	None	None	1
2.7	2015_May_22_1010	s	s	7	4	Capacity	58	RC	1	0	08VC 15MC	1	0	1.082239151	-511.0	-351.0	-514	-363	1
2.7	2015_May_22_1010	s	s	7	4	Capacity	59	ABS	1	0	08VC 16MC	0	1	2.63273620605	None	None	None	None	1
2.7	2015_May_22_1010	s	s	7	4	Capacity	60	RC	2	0	15VC 08MC	1	0	0.759387969971	-41.0	-184.0	-41	-181	1
2.7	2015_May_22_1010	s	s	7	4	Capacity	61	RC	2	0	15VC 08MC	1	0	1.01826500893	521.0	68.0	514	68	1
2.7	2015_May_22_1010	s	s	7	4	Capacity	62	RC	1	0	08VC 15MC	1	0	0.635037899017	-195.0	-102.0	-202	-107	1
2.7	2015_May_22_1010	s	s	7	4	Capacity	63	ABS	1	0	08VC 16MC	0	1	1.91003513336	None	None	None	None	1
2.7	2015_May_22_1010	s	s	7	4	Capacity	64	ABS	2	0	16VC 08MC	0	1	1.73411512375	None	None	None	None	1
2.7	2015_May_22_1010	s	s	7	4	Capacity	1	RC	0	2	15RD 08RO	1	0	1.29412579536	-181.0	-372.0	-185	-370	1
2.7	2015_May_22_1010	s	s	7	4	Capacity	2	RC	0	1	08RD 15RO	1	0	0.74773812294	-491.0	52.0	-485	50	1
2.7	2015_May_22_1010	s	s	7	4	Capacity	3	ABS	0	2	16RD 08RO	0	1	1.85370397568	None	None	None	None	1
2.7	2015_May_22_1010	s	s	7	4	Capacity	4	ABS	0	1	08RD 16RO	0	1	2.8318400383	None	None	None	None	1
2.7	2015_May_22_1010	s	s	7	4	Capacity	5	RC	0	2	15RD 08RO	1	0	0.830703020096	-362.0	-20.0	-355	-21	1
2.7	2015_May_22_1010	s	s	7	4	Capacity	6	ABS	0	2	16RD 08RO	0	1	2.18870997429	None	None	None	None	1
2.7	2015_May_22_1010	s	s	7	4	Capacity	7	RC	0	1	08RD 15RO	1	0	2.81239891052	477.0	-168.0	485	-159	1
2.7	2015_May_22_1010	s	s	7	4	Capacity	8	ABS	0	1	08RD 16RO	0	1	3.22481894493	None	None	None	None	1
2.7	2015_May_22_1010	s	s	7	4	Capacity	9	RC	0	1	08RD 15RO	1	0	2.45416808128	169.0	-47.0	172	-52	1
2.7	2015_May_22_1010	s	s	7	4	Capacity	10	RC	0	2	15RD 08RO	1	0	0.870394945145	-60.0	152.0	-57	151	1
2.7	2015_May_22_1010	s	s	7	4	Capacity	11	ABS	0	2	16RD 08RO	0	1	1.82380199432	None	None	None	None	1
2.7	2015_May_22_1010	s	s	7	4	Capacity	12	ABS	0	1	08RD 16RO	0	1	2.91633701324	None	None	None	None	1
2.7	2015_May_22_1010	s	s	7	4	Capacity	13	ABS	0	1	08RD 16RO	0	1	2.91355705261	None	None	None	None	1
2.7	2015_May_22_1010	s	s	7	4	Capacity	14	ABS	0	2	16RD 08RO	0	1	2.40741896629	None	None	None	None	1
2.7	2015_May_22_1010	s	s	7	4	Capacity	15	RC	0	1	08RD 15RO	1	0	1.25403404236	45.0	154.0	46	148	1
2.7	2015_May_22_1010	s	s	7	4	Capacity	16	RC	0	2	15RD 08RO	1	0	1.94150209427	38.0	-156.0	40	-150	1
2.7	2015_May_22_1010	s	s	7	4	Capacity	17	ABS	0	2	16RD 08RO	0	1	1.88283991814	None	None	None	None	1
2.7	2015_May_22_1010	s	s	7	4	Capacity	18	RC	0	2	15RD 08RO	1	0	0.905783891678	-74.0	-125.0	-67	-127	1
2.7	2015_May_22_1010	s	s	7	4	Capacity	19	RC	0	1	08RD 15RO	1	0	0.983168125153	1.0	-1.0	3	8	1
2.7	2015_May_22_1010	s	s	7	4	Capacity	20	ABS	0	1	08RD 16RO	0	1	2.63587403297	None	None	None	None	1
2.7	2015_May_22_1010	s	s	7	4	Capacity	21	ABS	0	1	08RD 16RO	0	1	2.28980708122	None	None	None	None	1
2.7	2015_May_22_1010	s	s	7	4	Capacity	22	RC	0	1	08RD 15RO	1	0	2.28322792053	145.0	-327.0	147	-337	1
2.7	2015_May_22_1010	s	s	7	4	Capacity	23	ABS	0	2	16RD 08RO	0	1	1.98541212082	None	None	None	None	1
2.7	2015_May_22_1010	s	s	7	4	Capacity	24	RC	0	2	15RD 08RO	1	0	1.56481003761	379.0	296.0	378	301	1
2.7	2015_May_22_1010	s	s	7	4	Capacity	25	ABS	0	2	16RD 08RO	0	1	2.34161019325	None	None	None	None	1
2.7	2015_May_22_1010	s	s	7	4	Capacity	26	RC	0	1	08RD 15RO	1	0	1.28233909607	-263.0	-232.0	-265	-233	1
2.7	2015_May_22_1010	s	s	7	4	Capacity	27	RC	0	2	15RD 08RO	1	0	1.40003705025	287.0	307.0	283	311	1
2.7	2015_May_22_1010	s	s	7	4	Capacity	28	ABS	0	1	08RD 16RO	0	1	3.14895105362	None	None	None	None	1
2.7	2015_May_22_1010	s	s	7	4	Capacity	29	ABS	0	2	16RD 08RO	0	1	1.75309896469	None	None	None	None	1
2.7	2015_May_22_1010	s	s	7	4	Capacity	30	RC	0	1	08RD 15RO	1	0	2.59771895409	4.0	-309.0	5	-302	1
2.7	2015_May_22_1010	s	s	7	4	Capacity	31	RC	0	2	15RD 08RO	1	0	1.77438998222	301.0	9.0	291	16	1
2.7	2015_May_22_1010	s	s	7	4	Capacity	32	ABS	0	1	08RD 16RO	0	1	3.12538194656	None	None	None	None	1
2.7	2015_May_22_1010	s	s	7	4	Capacity	33	RC	0	1	08RD 15RO	1	0	1.41870093346	-91.0	-70.0	-86	-71	1
2.7	2015_May_22_1010	s	s	7	4	Capacity	34	RC	0	2	15RD 08RO	1	0	1.0940861702	214.0	403.0	216	407	1
2.7	2015_May_22_1010	s	s	7	4	Capacity	35	ABS	0	2	16RD 08RO	0	1	2.13631916046	None	None	None	None	1
2.7	2015_May_22_1010	s	s	7	4	Capacity	36	ABS	0	1	08RD 16RO	0	1	3.1421020031	None	None	None	None	1
2.7	2015_May_22_1010	s	s	7	4	Capacity	37	ABS	0	1	08RD 16RO	0	1	3.58938384056	None	None	None	None	1
2.7	2015_May_22_1010	s	s	7	4	Capacity	38	RC	0	1	08RD 15RO	1	0	0.878649950027	-166.0	209.0	-160	208	1
2.7	2015_May_22_1010	s	s	7	4	Capacity	39	RC	0	2	15RD 08RO	1	0	1.97187209129	234.0	-410.0	241	-407	1
2.7	2015_May_22_1010	s	s	7	4	Capacity	40	ABS	0	2	16RD 08RO	0	1	2.50138783455	None	None	None	None	1
2.7	2015_May_22_1010	s	s	7	4	Capacity	41	ABS	0	1	08RD 16RO	0	1	3.05968689919	None	None	None	None	1
2.7	2015_May_22_1010	s	s	7	4	Capacity	42	ABS	0	2	16RD 08RO	0	1	2.11311388016	None	None	None	None	1
2.7	2015_May_22_1010	s	s	7	4	Capacity	43	RC	0	2	15RD 08RO	1	0	1.01779413223	-207.0	-25.0	-199	-30	1
2.7	2015_May_22_1010	s	s	7	4	Capacity	44	RC	0	1	08RD 15RO	1	0	1.92452907562	221.0	127.0	231	129	1
2.7	2015_May_22_1010	s	s	7	4	Capacity	45	ABS	0	2	16RD 08RO	0	1	2.2357211113	None	None	None	None	1
2.7	2015_May_22_1010	s	s	7	4	Capacity	46	ABS	0	1	08RD 16RO	0	1	2.6713039875	None	None	None	None	1
2.7	2015_May_22_1010	s	s	7	4	Capacity	47	RC	0	1	08RD 15RO	1	0	2.28288507462	416.0	-1.0	415	-4	1
2.7	2015_May_22_1010	s	s	7	4	Capacity	48	RC	0	2	15RD 08RO	1	0	1.71781301498	158.0	-190.0	163	-195	1
2.7	2015_May_22_1010	s	s	7	4	Capacity	49	RC	0	2	15RD 08RO	1	0	1.92483901978	255.0	103.0	252	101	1
2.7	2015_May_22_1010	s	s	7	4	Capacity	50	RC	0	1	08RD 15RO	0	1	3.35390400887	49.0	-345.0	None	None	0
2.7	2015_May_22_1010	s	s	7	4	Capacity	51	ABS	0	2	16RD 08RO	0	1	2.67814898491	None	None	None	None	1
2.7	2015_May_22_1010	s	s	7	4	Capacity	52	ABS	0	1	08RD 16RO	0	1	2.87802290916	None	None	None	None	1
2.7	2015_May_22_1010	s	s	7	4	Capacity	53	RC	0	1	08RD 15RO	1	0	4.86060094833	-208.0	-371.0	-202	-363	1
2.7	2015_May_22_1010	s	s	7	4	Capacity	54	RC	0	2	15RD 08RO	0	1	5.15487599373	-516.0	-188.0	None	None	0
2.7	2015_May_22_1010	s	s	7	4	Capacity	55	ABS	0	1	08RD 16RO	0	1	4.61725687981	None	None	None	None	1
2.7	2015_May_22_1010	s	s	7	4	Capacity	56	ABS	0	2	16RD 08RO	0	1	2.18875002861	None	None	None	None	1
2.7	2015_May_22_1010	s	s	7	4	Capacity	57	RC	0	2	15RD 08RO	1	0	1.79544878006	110.0	395.0	109	396	1
2.7	2015_May_22_1010	s	s	7	4	Capacity	58	ABS	0	2	16RD 08RO	0	1	2.20672702789	None	None	None	None	1
2.7	2015_May_22_1010	s	s	7	4	Capacity	59	RC	0	1	08RD 15RO	1	0	1.18332004547	145.0	182.0	146	183	1
2.7	2015_May_22_1010	s	s	7	4	Capacity	60	ABS	0	1	08RD 16RO	0	1	2.80080103874	None	None	None	None	1
2.7	2015_May_22_1010	s	s	7	4	Capacity	61	RC	0	2	15RD 08RO	1	0	0.858561992645	-476.0	353.0	-478	351	1
2.7	2015_May_22_1010	s	s	7	4	Capacity	62	RC	0	1	08RD 15RO	1	0	2.00931215286	107.0	-364.0	108	-367	1
2.7	2015_May_22_1010	s	s	7	4	Capacity	63	ABS	0	2	16RD 08RO	0	1	1.77177214622	None	None	None	None	1
2.7	2015_May_22_1010	s	s	7	4	Capacity	64	ABS	0	1	08RD 16RO	0	1	2.9843890667	None	None	None	None	1
2.7	2015_May_22_1010	s	s	7	4	SIC	1	RC	1	2	02VD 02VO 02VC 09MD 02MO 02MC 02RD 02RO	1	0	0.929190158844	22.0	288.0	15	285	1
2.7	2015_May_22_1010	s	s	7	4	SIC	2	RC	0	1	02VD 02VO 02VC 02MD 02MO 02MC 02RD 09RO	1	0	1.40706110001	137.0	377.0	138	371	1
2.7	2015_May_22_1010	s	s	7	4	SIC	3	RC	2	0	02VD 02VO 09VC 02MD 02MO 02MC 02RD 02RO	1	0	2.00721883774	349.0	-198.0	353	-198	1
2.7	2015_May_22_1010	s	s	7	4	SIC	4	RC	2	1	02VD 09VO 02VC 02MD 02MO 02MC 02RD 02RO	1	0	1.90624213219	-52.0	-12.0	-54	-11	1
2.7	2015_May_22_1010	s	s	7	4	SIC	5	ABS	2	0	02VD 02VO 10VC 02MD 02MO 02MC 02RD 02RO	0	1	1.46479892731	None	None	None	None	1
2.7	2015_May_22_1010	s	s	7	4	SIC	6	ABS	2	2	10VD 02VO 02VC 02MD 02MO 02MC 02RD 02RO	0	1	1.59746694565	None	None	None	None	1
2.7	2015_May_22_1010	s	s	7	4	SIC	7	ABS	1	0	02VD 02VO 02VC 02MD 02MO 10MC 02RD 02RO	0	1	1.7649140358	None	None	None	None	1
2.7	2015_May_22_1010	s	s	7	4	SIC	8	RC	0	2	02VD 02VO 02VC 02MD 02MO 02MC 09RD 02RO	1	0	1.34125804901	405.0	200.0	404	201	1
2.7	2015_May_22_1010	s	s	7	4	SIC	9	ABS	0	2	02VD 02VO 02VC 02MD 02MO 02MC 10RD 02RO	0	1	1.37649798393	None	None	None	None	1
2.7	2015_May_22_1010	s	s	7	4	SIC	10	RC	1	1	02VD 02VO 02VC 02MD 09MO 02MC 02RD 02RO	1	0	1.1646502018	248.0	-69.0	243	-59	1
2.7	2015_May_22_1010	s	s	7	4	SIC	11	ABS	0	1	02VD 02VO 02VC 02MD 02MO 02MC 02RD 10RO	0	1	2.83627605438	None	None	None	None	1
2.7	2015_May_22_1010	s	s	7	4	SIC	12	RC	2	2	09VD 02VO 02VC 02MD 02MO 02MC 02RD 02RO	1	0	1.18816614151	51.0	142.0	51	141	1
2.7	2015_May_22_1010	s	s	7	4	SIC	13	RC	1	0	02VD 02VO 02VC 02MD 02MO 09MC 02RD 02RO	1	0	0.877985954285	-28.0	99.0	-26	88	1
2.7	2015_May_22_1010	s	s	7	4	SIC	14	ABS	1	2	02VD 02VO 02VC 10MD 02MO 02MC 02RD 02RO	0	1	1.40002703667	None	None	None	None	1
2.7	2015_May_22_1010	s	s	7	4	SIC	15	ABS	2	1	02VD 10VO 02VC 02MD 02MO 02MC 02RD 02RO	0	1	1.39471101761	None	None	None	None	1
2.7	2015_May_22_1010	s	s	7	4	SIC	16	ABS	1	1	02VD 02VO 02VC 02MD 10MO 02MC 02RD 02RO	0	1	2.42410516739	None	None	None	None	1
2.7	2015_May_22_1010	s	s	7	4	SIC	17	ABS	1	0	02VD 02VO 02VC 02MD 02MO 10MC 02RD 02RO	0	1	1.97725892067	None	None	None	None	1
2.7	2015_May_22_1010	s	s	7	4	SIC	18	RC	1	1	02VD 02VO 02VC 02MD 09MO 02MC 02RD 02RO	1	0	1.01875209808	-429.0	305.0	-434	305	1
2.7	2015_May_22_1010	s	s	7	4	SIC	19	ABS	1	2	02VD 02VO 02VC 10MD 02MO 02MC 02RD 02RO	0	1	1.5010778904	None	None	None	None	1
2.7	2015_May_22_1010	s	s	7	4	SIC	20	ABS	2	2	10VD 02VO 02VC 02MD 02MO 02MC 02RD 02RO	0	1	1.13654518127	None	None	None	None	1
2.7	2015_May_22_1010	s	s	7	4	SIC	21	RC	1	0	02VD 02VO 02VC 02MD 02MO 09MC 02RD 02RO	1	0	0.924320220947	-72.0	285.0	-61	286	1
2.7	2015_May_22_1010	s	s	7	4	SIC	22	RC	0	1	02VD 02VO 02VC 02MD 02MO 02MC 02RD 09RO	1	0	0.877175092697	-269.0	-281.0	-263	-283	1
2.7	2015_May_22_1010	s	s	7	4	SIC	23	ABS	0	2	02VD 02VO 02VC 02MD 02MO 02MC 10RD 02RO	0	1	1.19505310059	None	None	None	None	1
2.7	2015_May_22_1010	s	s	7	4	SIC	24	ABS	1	1	02VD 02VO 02VC 02MD 10MO 02MC 02RD 02RO	0	1	1.37146115303	None	None	None	None	1
2.7	2015_May_22_1010	s	s	7	4	SIC	25	RC	0	2	02VD 02VO 02VC 02MD 02MO 02MC 09RD 02RO	1	0	0.885935783386	-150.0	50.0	-322	-412	0
2.7	2015_May_22_1010	s	s	7	4	SIC	26	RC	2	0	02VD 02VO 09VC 02MD 02MO 02MC 02RD 02RO	1	0	1.28923511505	-14.0	-122.0	-15	-130	1
2.7	2015_May_22_1010	s	s	7	4	SIC	27	RC	1	2	02VD 02VO 02VC 09MD 02MO 02MC 02RD 02RO	1	0	1.51774096489	-458.0	342.0	-458	343	1
2.7	2015_May_22_1010	s	s	7	4	SIC	28	RC	2	2	09VD 02VO 02VC 02MD 02MO 02MC 02RD 02RO	1	0	0.667896032333	-524.0	141.0	-530	139	1
2.7	2015_May_22_1010	s	s	7	4	SIC	29	ABS	0	1	02VD 02VO 02VC 02MD 02MO 02MC 02RD 10RO	0	1	2.42412281036	None	None	None	None	1
2.7	2015_May_22_1010	s	s	7	4	SIC	30	RC	2	1	02VD 09VO 02VC 02MD 02MO 02MC 02RD 02RO	1	0	1.76493096352	517.0	58.0	514	68	1
2.7	2015_May_22_1010	s	s	7	4	SIC	31	ABS	2	0	02VD 02VO 10VC 02MD 02MO 02MC 02RD 02RO	0	1	1.45579910278	None	None	None	None	1
2.7	2015_May_22_1010	s	s	7	4	SIC	32	ABS	2	1	02VD 10VO 02VC 02MD 02MO 02MC 02RD 02RO	0	1	1.73687887192	None	None	None	None	1
2.7	2015_May_22_1010	s	s	7	4	SIC	33	RC	2	1	02VD 09VO 02VC 02MD 02MO 02MC 02RD 02RO	1	0	1.0892560482	326.0	210.0	324	201	1
2.7	2015_May_22_1010	s	s	7	4	SIC	34	ABS	1	2	02VD 02VO 02VC 10MD 02MO 02MC 02RD 02RO	0	1	2.02165913582	None	None	None	None	1
2.7	2015_May_22_1010	s	s	7	4	SIC	35	RC	0	2	02VD 02VO 02VC 02MD 02MO 02MC 09RD 02RO	1	0	1.09402918816	-441.0	-353.0	-439	-355	1
2.7	2015_May_22_1010	s	s	7	4	SIC	36	RC	1	0	02VD 02VO 02VC 02MD 02MO 09MC 02RD 02RO	1	0	1.14799714088	-70.0	86.0	-71	90	1
2.7	2015_May_22_1010	s	s	7	4	SIC	37	RC	2	2	09VD 02VO 02VC 02MD 02MO 02MC 02RD 02RO	1	0	1.11280703545	-329.0	76.0	-329	76	1
2.7	2015_May_22_1010	s	s	7	4	SIC	38	ABS	2	2	10VD 02VO 02VC 02MD 02MO 02MC 02RD 02RO	0	1	1.73656010628	None	None	None	None	1
2.7	2015_May_22_1010	s	s	7	4	SIC	39	RC	0	1	02VD 02VO 02VC 02MD 02MO 02MC 02RD 09RO	1	0	2.45438885689	451.0	68.0	453	71	1
2.7	2015_May_22_1010	s	s	7	4	SIC	40	RC	1	2	02VD 02VO 02VC 09MD 02MO 02MC 02RD 02RO	0	1	1.60020589828	46.0	-390.0	None	None	0
2.7	2015_May_22_1010	s	s	7	4	SIC	41	ABS	1	1	02VD 02VO 02VC 02MD 10MO 02MC 02RD 02RO	0	1	1.78383398056	None	None	None	None	1
2.7	2015_May_22_1010	s	s	7	4	SIC	42	ABS	2	1	02VD 10VO 02VC 02MD 02MO 02MC 02RD 02RO	0	1	1.52693796158	None	None	None	None	1
2.7	2015_May_22_1010	s	s	7	4	SIC	43	ABS	2	0	02VD 02VO 10VC 02MD 02MO 02MC 02RD 02RO	0	1	1.69214391708	None	None	None	None	1
2.7	2015_May_22_1010	s	s	7	4	SIC	44	ABS	0	1	02VD 02VO 02VC 02MD 02MO 02MC 02RD 10RO	0	1	2.20039606094	None	None	None	None	1
2.7	2015_May_22_1010	s	s	7	4	SIC	45	RC	2	0	02VD 02VO 09VC 02MD 02MO 02MC 02RD 02RO	1	0	1.05391597748	-443.0	-50.0	-435	-48	1
2.7	2015_May_22_1010	s	s	7	4	SIC	46	RC	1	1	02VD 02VO 02VC 02MD 09MO 02MC 02RD 02RO	1	0	0.877131938934	-499.0	-98.0	-509	-100	1
2.7	2015_May_22_1010	s	s	7	4	SIC	47	ABS	0	2	02VD 02VO 02VC 02MD 02MO 02MC 10RD 02RO	0	1	1.72190594673	None	None	None	None	1
2.7	2015_May_22_1010	s	s	7	4	SIC	48	ABS	1	0	02VD 02VO 02VC 02MD 02MO 10MC 02RD 02RO	0	1	1.83555579185	None	None	None	None	1
2.7	2015_May_22_1010	s	s	7	4	SIC	49	ABS	1	2	02VD 02VO 02VC 10MD 02MO 02MC 02RD 02RO	0	1	1.21856594086	None	None	None	None	1
2.7	2015_May_22_1010	s	s	7	4	SIC	50	ABS	2	2	10VD 02VO 02VC 02MD 02MO 02MC 02RD 02RO	0	1	1.48240089417	None	None	None	None	1
2.7	2015_May_22_1010	s	s	7	4	SIC	51	RC	0	2	02VD 02VO 02VC 02MD 02MO 02MC 09RD 02RO	1	0	1.02384591103	-415.0	-280.0	-410	-282	1
2.7	2015_May_22_1010	s	s	7	4	SIC	52	ABS	1	0	02VD 02VO 02VC 02MD 02MO 10MC 02RD 02RO	0	1	2.12989616394	None	None	None	None	1
2.7	2015_May_22_1010	s	s	7	4	SIC	53	ABS	0	1	02VD 02VO 02VC 02MD 02MO 02MC 02RD 10RO	0	1	3.00774312019	None	None	None	None	1
2.7	2015_May_22_1010	s	s	7	4	SIC	54	RC	0	1	02VD 02VO 02VC 02MD 02MO 02MC 02RD 09RO	1	0	1.51546406746	52.0	331.0	61	333	1
2.7	2015_May_22_1010	s	s	7	4	SIC	55	ABS	0	2	02VD 02VO 02VC 02MD 02MO 02MC 10RD 02RO	0	1	1.58827495575	None	None	None	None	1
2.7	2015_May_22_1010	s	s	7	4	SIC	56	RC	1	0	02VD 02VO 02VC 02MD 02MO 09MC 02RD 02RO	1	0	0.976688861847	-374.0	-171.0	-380	-168	1
2.7	2015_May_22_1010	s	s	7	4	SIC	57	ABS	2	1	02VD 10VO 02VC 02MD 02MO 02MC 02RD 02RO	0	1	1.89444208145	None	None	None	None	1
2.7	2015_May_22_1010	s	s	7	4	SIC	58	RC	1	2	02VD 02VO 02VC 09MD 02MO 02MC 02RD 02RO	1	0	1.06560707092	-458.0	-292.0	-463	-292	1
2.7	2015_May_22_1010	s	s	7	4	SIC	59	RC	2	0	02VD 02VO 09VC 02MD 02MO 02MC 02RD 02RO	1	0	0.736015081406	-56.0	182.0	-47	180	1
2.7	2015_May_22_1010	s	s	7	4	SIC	60	ABS	2	0	02VD 02VO 10VC 02MD 02MO 02MC 02RD 02RO	0	1	1.52611088753	None	None	None	None	1
2.7	2015_May_22_1010	s	s	7	4	SIC	61	RC	2	2	09VD 02VO 02VC 02MD 02MO 02MC 02RD 02RO	1	0	0.782529115677	-264.0	48.0	-259	47	1
2.7	2015_May_22_1010	s	s	7	4	SIC	62	ABS	1	1	02VD 02VO 02VC 02MD 10MO 02MC 02RD 02RO	0	1	1.83559012413	None	None	None	None	1
2.7	2015_May_22_1010	s	s	7	4	SIC	63	RC	2	1	02VD 09VO 02VC 02MD 02MO 02MC 02RD 02RO	1	0	0.690726041794	-113.0	283.0	-117	285	1
2.7	2015_May_22_1010	s	s	7	4	SIC	64	RC	1	1	02VD 02VO 02VC 02MD 09MO 02MC 02RD 02RO	1	0	0.776226997375	-66.0	223.0	-62	216	1
2.7	2015_May_22_1010	s	s	7	4	SIC	65	ABS	1	0	02VD 02VO 02VC 02MD 02MO 10MC 02RD 02RO	0	1	1.95094418526	None	None	None	None	1
2.7	2015_May_22_1010	s	s	7	4	SIC	66	RC	2	1	02VD 09VO 02VC 02MD 02MO 02MC 02RD 02RO	1	0	0.79705286026	-387.0	70.0	-393	73	1
2.7	2015_May_22_1010	s	s	7	4	SIC	67	ABS	2	1	02VD 10VO 02VC 02MD 02MO 02MC 02RD 02RO	0	1	1.70090293884	None	None	None	None	1
2.7	2015_May_22_1010	s	s	7	4	SIC	68	ABS	0	1	02VD 02VO 02VC 02MD 02MO 02MC 02RD 10RO	0	1	4.16391706467	None	None	None	None	1
2.7	2015_May_22_1010	s	s	7	4	SIC	69	RC	1	0	02VD 02VO 02VC 02MD 02MO 09MC 02RD 02RO	1	0	0.865961074829	-125.0	5.0	-129	13	1
2.7	2015_May_22_1010	s	s	7	4	SIC	70	RC	2	0	02VD 02VO 09VC 02MD 02MO 02MC 02RD 02RO	1	0	0.80664396286	-206.0	312.0	-199	306	1
2.7	2015_May_22_1010	s	s	7	4	SIC	71	RC	0	1	02VD 02VO 02VC 02MD 02MO 02MC 02RD 09RO	0	1	2.04239487648	59.0	-393.0	None	None	0
2.7	2015_May_22_1010	s	s	7	4	SIC	72	ABS	0	2	02VD 02VO 02VC 02MD 02MO 02MC 10RD 02RO	0	1	1.77696800232	None	None	None	None	1
2.7	2015_May_22_1010	s	s	7	4	SIC	73	RC	0	2	02VD 02VO 02VC 02MD 02MO 02MC 09RD 02RO	1	0	2.11807584763	339.0	-263.0	337	-265	1
2.7	2015_May_22_1010	s	s	7	4	SIC	74	RC	2	2	09VD 02VO 02VC 02MD 02MO 02MC 02RD 02RO	1	0	1.79485106468	464.0	362.0	463	363	1
2.7	2015_May_22_1010	s	s	7	4	SIC	75	RC	1	1	02VD 02VO 02VC 02MD 09MO 02MC 02RD 02RO	1	0	0.853740930557	-277.0	-231.0	-284	-235	1
2.7	2015_May_22_1010	s	s	7	4	SIC	76	ABS	2	2	10VD 02VO 02VC 02MD 02MO 02MC 02RD 02RO	1	0	0.623231172562	None	None	120	404	0
2.7	2015_May_22_1010	s	s	7	4	SIC	77	ABS	1	1	02VD 02VO 02VC 02MD 10MO 02MC 02RD 02RO	0	1	1.62363982201	None	None	None	None	1
2.7	2015_May_22_1010	s	s	7	4	SIC	78	ABS	1	2	02VD 02VO 02VC 10MD 02MO 02MC 02RD 02RO	0	1	1.62371087074	None	None	None	None	1
2.7	2015_May_22_1010	s	s	7	4	SIC	79	ABS	2	0	02VD 02VO 10VC 02MD 02MO 02MC 02RD 02RO	0	1	1.65905189514	None	None	None	None	1
2.7	2015_May_22_1010	s	s	7	4	SIC	80	RC	1	2	02VD 02VO 02VC 09MD 02MO 02MC 02RD 02RO	0	1	1.65684604645	-102.0	235.0	None	None	0
2.7	2015_May_22_1010	s	s	7	4	SIC	81	RC	2	0	02VD 02VO 09VC 02MD 02MO 02MC 02RD 02RO	1	0	0.811635971069	223.0	54.0	231	55	1
2.7	2015_May_22_1010	s	s	7	4	SIC	82	RC	1	2	02VD 02VO 02VC 09MD 02MO 02MC 02RD 02RO	1	0	1.21179413795	-204.0	-409.0	-199	-407	1
2.7	2015_May_22_1010	s	s	7	4	SIC	83	RC	2	1	02VD 09VO 02VC 02MD 02MO 02MC 02RD 02RO	1	0	0.929230928421	-114.0	-396.0	-120	-399	1
2.7	2015_May_22_1010	s	s	7	4	SIC	84	RC	0	2	02VD 02VO 02VC 02MD 02MO 02MC 09RD 02RO	1	0	0.785573959351	-435.0	-337.0	-438	-337	1
2.7	2015_May_22_1010	s	s	7	4	SIC	85	ABS	2	1	02VD 10VO 02VC 02MD 02MO 02MC 02RD 02RO	0	1	1.7028169632	None	None	None	None	1
2.7	2015_May_22_1010	s	s	7	4	SIC	86	RC	0	1	02VD 02VO 02VC 02MD 02MO 02MC 02RD 09RO	1	0	1.71300506592	239.0	349.0	245	348	1
2.7	2015_May_22_1010	s	s	7	4	SIC	87	ABS	2	2	10VD 02VO 02VC 02MD 02MO 02MC 02RD 02RO	0	1	1.50063300133	None	None	None	None	1
2.7	2015_May_22_1010	s	s	7	4	SIC	88	ABS	1	1	02VD 02VO 02VC 02MD 10MO 02MC 02RD 02RO	0	1	1.47069215775	None	None	None	None	1
2.7	2015_May_22_1010	s	s	7	4	SIC	89	RC	1	0	02VD 02VO 02VC 02MD 02MO 09MC 02RD 02RO	1	0	0.952786207199	137.0	139.0	140	146	1
2.7	2015_May_22_1010	s	s	7	4	SIC	90	ABS	1	2	02VD 02VO 02VC 10MD 02MO 02MC 02RD 02RO	0	1	1.30102205276	None	None	None	None	1
2.7	2015_May_22_1010	s	s	7	4	SIC	91	ABS	2	0	02VD 02VO 10VC 02MD 02MO 02MC 02RD 02RO	0	1	1.22731995583	None	None	None	None	1
2.7	2015_May_22_1010	s	s	7	4	SIC	92	ABS	0	1	02VD 02VO 02VC 02MD 02MO 02MC 02RD 10RO	0	1	2.37211298943	None	None	None	None	1
2.7	2015_May_22_1010	s	s	7	4	SIC	93	RC	2	2	09VD 02VO 02VC 02MD 02MO 02MC 02RD 02RO	1	0	1.07741904259	134.0	267.0	132	263	1
2.7	2015_May_22_1010	s	s	7	4	SIC	94	ABS	0	2	02VD 02VO 02VC 02MD 02MO 02MC 10RD 02RO	0	1	1.58341598511	None	None	None	None	1
2.7	2015_May_22_1010	s	s	7	4	SIC	95	ABS	1	0	02VD 02VO 02VC 02MD 02MO 10MC 02RD 02RO	0	1	1.87783193588	None	None	None	None	1
2.7	2015_May_22_1010	s	s	7	4	SIC	96	RC	1	1	02VD 02VO 02VC 02MD 09MO 02MC 02RD 02RO	1	0	0.994310855865	207.0	269.0	211	263	1
2.7	2015_May_22_1010	s	s	7	4	SIC	97	RC	2	0	02VD 02VO 09VC 02MD 02MO 02MC 02RD 02RO	1	0	1.07454800606	158.0	-193.0	154	-193	1
2.7	2015_May_22_1010	s	s	7	4	SIC	98	RC	1	2	02VD 02VO 02VC 09MD 02MO 02MC 02RD 02RO	1	0	1.01986908913	-521.0	406.0	-524	402	1
2.7	2015_May_22_1010	s	s	7	4	SIC	99	RC	1	1	02VD 02VO 02VC 02MD 09MO 02MC 02RD 02RO	1	0	1.54770803452	198.0	-46.0	203	-50	1
2.7	2015_May_22_1010	s	s	7	4	SIC	100	ABS	1	2	02VD 02VO 02VC 10MD 02MO 02MC 02RD 02RO	0	1	2.91392588615	None	None	None	None	1
2.7	2015_May_22_1010	s	s	7	4	SIC	101	RC	0	2	02VD 02VO 02VC 02MD 02MO 02MC 09RD 02RO	1	0	1.38034200668	198.0	173.0	198	168	1
2.7	2015_May_22_1010	s	s	7	4	SIC	102	RC	0	1	02VD 02VO 02VC 02MD 02MO 02MC 02RD 09RO	1	0	2.05479192734	372.0	-210.0	-547	300	0
2.7	2015_May_22_1010	s	s	7	4	SIC	103	ABS	2	0	02VD 02VO 10VC 02MD 02MO 02MC 02RD 02RO	0	1	2.08814501762	None	None	None	None	1
2.7	2015_May_22_1010	s	s	7	4	SIC	104	ABS	1	0	02VD 02VO 02VC 02MD 02MO 10MC 02RD 02RO	0	1	2.70205402374	None	None	None	None	1
2.7	2015_May_22_1010	s	s	7	4	SIC	105	RC	2	2	09VD 02VO 02VC 02MD 02MO 02MC 02RD 02RO	1	0	2.01210093498	-439.0	-400.0	-446	-401	1
2.7	2015_May_22_1010	s	s	7	4	SIC	106	ABS	2	1	02VD 10VO 02VC 02MD 02MO 02MC 02RD 02RO	0	1	2.12494587898	None	None	None	None	1
2.7	2015_May_22_1010	s	s	7	4	SIC	107	RC	2	1	02VD 09VO 02VC 02MD 02MO 02MC 02RD 02RO	1	0	1.85563802719	-440.0	-124.0	-436	-127	1
2.7	2015_May_22_1010	s	s	7	4	SIC	108	ABS	2	2	10VD 02VO 02VC 02MD 02MO 02MC 02RD 02RO	0	1	1.85433888435	None	None	None	None	1
2.7	2015_May_22_1010	s	s	7	4	SIC	109	RC	1	0	02VD 02VO 02VC 02MD 02MO 09MC 02RD 02RO	1	0	0.713917016983	-232.0	214.0	-222	222	1
2.7	2015_May_22_1010	s	s	7	4	SIC	110	ABS	0	1	02VD 02VO 02VC 02MD 02MO 02MC 02RD 10RO	0	1	2.82422709465	None	None	None	None	1
2.7	2015_May_22_1010	s	s	7	4	SIC	111	ABS	0	2	02VD 02VO 02VC 02MD 02MO 02MC 10RD 02RO	0	1	1.82783889771	None	None	None	None	1
2.7	2015_May_22_1010	s	s	7	4	SIC	112	ABS	1	1	02VD 02VO 02VC 02MD 10MO 02MC 02RD 02RO	0	1	2.35345697403	None	None	None	None	1
2.7	2015_May_22_1010	s	s	7	4	SIC	113	RC	1	1	02VD 02VO 02VC 02MD 09MO 02MC 02RD 02RO	1	0	1.65912818909	-137.0	-180.0	-139	-183	1
2.7	2015_May_22_1010	s	s	7	4	SIC	114	ABS	2	0	02VD 02VO 10VC 02MD 02MO 02MC 02RD 02RO	0	1	1.63545799255	None	None	None	None	1
2.7	2015_May_22_1010	s	s	7	4	SIC	115	ABS	1	2	02VD 02VO 02VC 10MD 02MO 02MC 02RD 02RO	0	1	1.97089004517	None	None	None	None	1
2.7	2015_May_22_1010	s	s	7	4	SIC	116	RC	1	2	02VD 02VO 02VC 09MD 02MO 02MC 02RD 02RO	1	0	1.63265109062	-50.0	-240.0	-46	-232	1
2.7	2015_May_22_1010	s	s	7	4	SIC	117	RC	2	1	02VD 09VO 02VC 02MD 02MO 02MC 02RD 02RO	1	0	1.28923511505	-436.0	272.0	-435	265	1
2.7	2015_May_22_1010	s	s	7	4	SIC	118	RC	0	1	02VD 02VO 02VC 02MD 02MO 02MC 02RD 09RO	1	0	1.48872303963	329.0	66.0	327	67	1
2.7	2015_May_22_1010	s	s	7	4	SIC	119	RC	2	2	09VD 02VO 02VC 02MD 02MO 02MC 02RD 02RO	1	0	0.71210193634	-10.0	208.0	-9	207	1
2.7	2015_May_22_1010	s	s	7	4	SIC	120	RC	0	2	02VD 02VO 02VC 02MD 02MO 02MC 09RD 02RO	1	0	3.11865711212	437.0	109.0	438	107	1
2.7	2015_May_22_1010	s	s	7	4	SIC	121	ABS	1	0	02VD 02VO 02VC 02MD 02MO 10MC 02RD 02RO	0	1	3.71609997749	None	None	None	None	1
2.7	2015_May_22_1010	s	s	7	4	SIC	122	ABS	1	1	02VD 02VO 02VC 02MD 10MO 02MC 02RD 02RO	0	1	2.55358409882	None	None	None	None	1
2.7	2015_May_22_1010	s	s	7	4	SIC	123	ABS	2	1	02VD 10VO 02VC 02MD 02MO 02MC 02RD 02RO	0	1	1.80409193039	None	None	None	None	1
2.7	2015_May_22_1010	s	s	7	4	SIC	124	ABS	0	1	02VD 02VO 02VC 02MD 02MO 02MC 02RD 10RO	0	1	2.96555781364	None	None	None	None	1
2.7	2015_May_22_1010	s	s	7	4	SIC	125	ABS	2	2	10VD 02VO 02VC 02MD 02MO 02MC 02RD 02RO	0	1	1.58347892761	None	None	None	None	1
2.7	2015_May_22_1010	s	s	7	4	SIC	126	RC	1	0	02VD 02VO 02VC 02MD 02MO 09MC 02RD 02RO	1	0	1.05872917175	-308.0	-86.0	-301	-84	1
2.7	2015_May_22_1010	s	s	7	4	SIC	127	ABS	0	2	02VD 02VO 02VC 02MD 02MO 02MC 10RD 02RO	0	1	1.74526691437	None	None	None	None	1
2.7	2015_May_22_1010	s	s	7	4	SIC	128	RC	2	0	02VD 02VO 09VC 02MD 02MO 02MC 02RD 02RO	1	0	1.18330597878	-37.0	130.0	-36	124	1
2.7	2015_May_22_1010	s	s	7	4	SIC	129	RC	2	0	02VD 02VO 09VC 02MD 02MO 02MC 02RD 02RO	1	0	1.17640399933	-373.0	11.0	-374	4	1
2.7	2015_May_22_1010	s	s	7	4	SIC	130	ABS	2	0	02VD 02VO 10VC 02MD 02MO 02MC 02RD 02RO	0	1	1.52951002121	None	None	None	None	1
2.7	2015_May_22_1010	s	s	7	4	SIC	131	RC	2	2	09VD 02VO 02VC 02MD 02MO 02MC 02RD 02RO	1	0	1.19998192787	275.0	-3.0	275	3	1
2.7	2015_May_22_1010	s	s	7	4	SIC	132	ABS	0	1	02VD 02VO 02VC 02MD 02MO 02MC 02RD 10RO	0	1	3.10684609413	None	None	None	None	1
2.7	2015_May_22_1010	s	s	7	4	SIC	133	ABS	2	2	10VD 02VO 02VC 02MD 02MO 02MC 02RD 02RO	0	1	2.07783699036	None	None	None	None	1
2.7	2015_May_22_1010	s	s	7	4	SIC	134	ABS	0	2	02VD 02VO 02VC 02MD 02MO 02MC 10RD 02RO	0	1	1.99544501305	None	None	None	None	1
2.7	2015_May_22_1010	s	s	7	4	SIC	135	ABS	1	0	02VD 02VO 02VC 02MD 02MO 10MC 02RD 02RO	0	1	2.11803007126	None	None	None	None	1
2.7	2015_May_22_1010	s	s	7	4	SIC	136	RC	2	1	02VD 09VO 02VC 02MD 02MO 02MC 02RD 02RO	1	0	1.30399894714	267.0	-324.0	261	-331	1
2.7	2015_May_22_1010	s	s	7	4	SIC	137	RC	1	0	02VD 02VO 02VC 02MD 02MO 09MC 02RD 02RO	1	0	2.1602730751	-215.0	13.0	-211	14	1
2.7	2015_May_22_1010	s	s	7	4	SIC	138	ABS	1	2	02VD 02VO 02VC 10MD 02MO 02MC 02RD 02RO	0	1	1.58630204201	None	None	None	None	1
2.7	2015_May_22_1010	s	s	7	4	SIC	139	RC	0	2	02VD 02VO 02VC 02MD 02MO 02MC 09RD 02RO	1	0	0.865902900696	-403.0	-299.0	-409	-302	1
2.7	2015_May_22_1010	s	s	7	4	SIC	140	RC	1	1	02VD 02VO 02VC 02MD 09MO 02MC 02RD 02RO	1	0	0.70015501976	30.0	-57.0	23	-63	1
2.7	2015_May_22_1010	s	s	7	4	SIC	141	RC	0	1	02VD 02VO 02VC 02MD 02MO 02MC 02RD 09RO	0	1	2.86657905579	524.0	65.0	None	None	0
2.7	2015_May_22_1010	s	s	7	4	SIC	142	ABS	1	1	02VD 02VO 02VC 02MD 10MO 02MC 02RD 02RO	0	1	3.20970487595	None	None	None	None	1
2.7	2015_May_22_1010	s	s	7	4	SIC	143	RC	1	2	02VD 02VO 02VC 09MD 02MO 02MC 02RD 02RO	0	1	2.52514481544	-117.0	-73.0	None	None	0
2.7	2015_May_22_1010	s	s	7	4	SIC	144	ABS	2	1	02VD 10VO 02VC 02MD 02MO 02MC 02RD 02RO	0	1	1.83555006981	None	None	None	None	1
2.7	2015_May_22_1010	s	s	7	4	SIC	145	RC	1	1	02VD 02VO 02VC 02MD 09MO 02MC 02RD 02RO	1	0	2.52514004707	-419.0	-397.0	-421	-398	1
2.7	2015_May_22_1010	s	s	7	4	SIC	146	RC	1	0	02VD 02VO 02VC 02MD 02MO 09MC 02RD 02RO	1	0	1.47848510742	489.0	253.0	495	248	1
2.7	2015_May_22_1010	s	s	7	4	SIC	147	RC	2	2	09VD 02VO 02VC 02MD 02MO 02MC 02RD 02RO	1	0	1.00704503059	-343.0	-105.0	-342	-109	1
2.7	2015_May_22_1010	s	s	7	4	SIC	148	RC	0	1	02VD 02VO 02VC 02MD 02MO 02MC 02RD 09RO	1	0	2.82438611984	124.0	-376.0	126	-373	1
2.7	2015_May_22_1010	s	s	7	4	SIC	149	ABS	2	0	02VD 02VO 10VC 02MD 02MO 02MC 02RD 02RO	0	1	1.74883985519	None	None	None	None	1
2.7	2015_May_22_1010	s	s	7	4	SIC	150	ABS	2	2	10VD 02VO 02VC 02MD 02MO 02MC 02RD 02RO	0	1	1.89020395279	None	None	None	None	1
2.7	2015_May_22_1010	s	s	7	4	SIC	151	RC	0	2	02VD 02VO 02VC 02MD 02MO 02MC 09RD 02RO	1	0	0.835146903992	-263.0	161.0	-257	159	1
2.7	2015_May_22_1010	s	s	7	4	SIC	152	RC	2	1	02VD 09VO 02VC 02MD 02MO 02MC 02RD 02RO	1	0	1.81204080582	-61.0	-184.0	-66	-183	1
2.7	2015_May_22_1010	s	s	7	4	SIC	153	ABS	0	2	02VD 02VO 02VC 02MD 02MO 02MC 10RD 02RO	0	1	1.6784799099	None	None	None	None	1
2.7	2015_May_22_1010	s	s	7	4	SIC	154	ABS	2	1	02VD 10VO 02VC 02MD 02MO 02MC 02RD 02RO	0	1	1.63188886642	None	None	None	None	1
2.7	2015_May_22_1010	s	s	7	4	SIC	155	RC	1	2	02VD 02VO 02VC 09MD 02MO 02MC 02RD 02RO	1	0	0.630487918854	-221.0	100.0	-227	100	1
2.7	2015_May_22_1010	s	s	7	4	SIC	156	ABS	1	0	02VD 02VO 02VC 02MD 02MO 10MC 02RD 02RO	0	1	6.77339506149	None	None	None	None	1
2.7	2015_May_22_1010	s	s	7	4	SIC	157	ABS	0	1	02VD 02VO 02VC 02MD 02MO 02MC 02RD 10RO	0	1	2.56025695801	None	None	None	None	1
2.7	2015_May_22_1010	s	s	7	4	SIC	158	ABS	1	2	02VD 02VO 02VC 10MD 02MO 02MC 02RD 02RO	0	1	1.59552788734	None	None	None	None	1
2.7	2015_May_22_1010	s	s	7	4	SIC	159	ABS	1	1	02VD 02VO 02VC 02MD 10MO 02MC 02RD 02RO	0	1	2.2475399971	None	None	None	None	1
2.7	2015_May_22_1010	s	s	7	4	SIC	160	RC	2	0	02VD 02VO 09VC 02MD 02MO 02MC 02RD 02RO	1	0	0.964553117752	-249.0	391.0	-258	394	1
2.7	2015_May_22_1010	s	s	7	4	SIC	161	ABS	2	0	02VD 02VO 10VC 02MD 02MO 02MC 02RD 02RO	0	1	1.31758403778	None	None	None	None	1
2.7	2015_May_22_1010	s	s	7	4	SIC	162	RC	2	2	09VD 02VO 02VC 02MD 02MO 02MC 02RD 02RO	1	0	1.33629798889	181.0	35.0	183	26	1
2.7	2015_May_22_1010	s	s	7	4	SIC	163	ABS	0	2	02VD 02VO 02VC 02MD 02MO 02MC 10RD 02RO	0	1	1.90615916252	None	None	None	None	1
2.7	2015_May_22_1010	s	s	7	4	SIC	164	ABS	1	1	02VD 02VO 02VC 02MD 10MO 02MC 02RD 02RO	0	1	2.19550585747	None	None	None	None	1
2.7	2015_May_22_1010	s	s	7	4	SIC	165	RC	1	0	02VD 02VO 02VC 02MD 02MO 09MC 02RD 02RO	1	0	1.08262610435	-181.0	256.0	-181	257	1
2.7	2015_May_22_1010	s	s	7	4	SIC	166	RC	2	0	02VD 02VO 09VC 02MD 02MO 02MC 02RD 02RO	1	0	1.57185912132	309.0	-254.0	301	-250	1
2.7	2015_May_22_1010	s	s	7	4	SIC	167	ABS	2	1	02VD 10VO 02VC 02MD 02MO 02MC 02RD 02RO	0	1	2.0310459137	None	None	None	None	1
2.7	2015_May_22_1010	s	s	7	4	SIC	168	RC	0	1	02VD 02VO 02VC 02MD 02MO 02MC 02RD 09RO	1	0	0.902279138565	-215.0	153.0	-207	153	1
2.7	2015_May_22_1010	s	s	7	4	SIC	169	ABS	1	2	02VD 02VO 02VC 10MD 02MO 02MC 02RD 02RO	0	1	1.94974088669	None	None	None	None	1
2.7	2015_May_22_1010	s	s	7	4	SIC	170	RC	2	1	02VD 09VO 02VC 02MD 02MO 02MC 02RD 02RO	1	0	1.19502806664	108.0	-106.0	113	-107	1
2.7	2015_May_22_1010	s	s	7	4	SIC	171	RC	1	1	02VD 02VO 02VC 02MD 09MO 02MC 02RD 02RO	1	0	1.08211994171	272.0	338.0	271	338	1
2.7	2015_May_22_1010	s	s	7	4	SIC	172	RC	1	2	02VD 02VO 02VC 09MD 02MO 02MC 02RD 02RO	1	0	0.993782043457	-81.0	407.0	-87	409	1
2.7	2015_May_22_1010	s	s	7	4	SIC	173	RC	0	2	02VD 02VO 02VC 02MD 02MO 02MC 09RD 02RO	1	0	0.759474992752	-166.0	-79.0	-163	-78	1
2.7	2015_May_22_1010	s	s	7	4	SIC	174	ABS	2	2	10VD 02VO 02VC 02MD 02MO 02MC 02RD 02RO	0	1	1.60029602051	None	None	None	None	1
2.7	2015_May_22_1010	s	s	7	4	SIC	175	ABS	0	1	02VD 02VO 02VC 02MD 02MO 02MC 02RD 10RO	0	1	2.7537920475	None	None	None	None	1
2.7	2015_May_22_1010	s	s	7	4	SIC	176	ABS	1	0	02VD 02VO 02VC 02MD 02MO 10MC 02RD 02RO	0	1	2.18379402161	None	None	None	None	1
2.7	2015_May_22_1010	s	s	7	4	SIC	177	RC	1	2	02VD 02VO 02VC 09MD 02MO 02MC 02RD 02RO	1	0	1.2774450779	-387.0	-115.0	-387	-117	1
2.7	2015_May_22_1010	s	s	7	4	SIC	178	ABS	0	1	02VD 02VO 02VC 02MD 02MO 02MC 02RD 10RO	0	1	3.10673904419	None	None	None	None	1
2.7	2015_May_22_1010	s	s	7	4	SIC	179	RC	0	1	02VD 02VO 02VC 02MD 02MO 02MC 02RD 09RO	1	0	2.23963403702	288.0	-15.0	293	-18	1
2.7	2015_May_22_1010	s	s	7	4	SIC	180	ABS	0	2	02VD 02VO 02VC 02MD 02MO 02MC 10RD 02RO	0	1	2.11314821243	None	None	None	None	1
2.7	2015_May_22_1010	s	s	7	4	SIC	181	ABS	1	2	02VD 02VO 02VC 10MD 02MO 02MC 02RD 02RO	0	1	1.57431197166	None	None	None	None	1
2.7	2015_May_22_1010	s	s	7	4	SIC	182	RC	2	2	09VD 02VO 02VC 02MD 02MO 02MC 02RD 02RO	1	0	1.51277303696	366.0	-12.0	363	-9	1
2.7	2015_May_22_1010	s	s	7	4	SIC	183	RC	1	1	02VD 02VO 02VC 02MD 09MO 02MC 02RD 02RO	1	0	1.14801597595	60.0	244.0	54	245	1
2.7	2015_May_22_1010	s	s	7	4	SIC	184	ABS	2	1	02VD 10VO 02VC 02MD 02MO 02MC 02RD 02RO	0	1	1.28938293457	None	None	None	None	1
2.7	2015_May_22_1010	s	s	7	4	SIC	185	ABS	2	2	10VD 02VO 02VC 02MD 02MO 02MC 02RD 02RO	0	1	1.88266420364	None	None	None	None	1
2.7	2015_May_22_1010	s	s	7	4	SIC	186	RC	1	0	02VD 02VO 02VC 02MD 02MO 09MC 02RD 02RO	1	0	0.897768974304	-262.0	350.0	-260	352	1
2.7	2015_May_22_1010	s	s	7	4	SIC	187	ABS	1	0	02VD 02VO 02VC 02MD 02MO 10MC 02RD 02RO	0	1	3.08331513405	None	None	None	None	1
2.7	2015_May_22_1010	s	s	7	4	SIC	188	ABS	1	1	02VD 02VO 02VC 02MD 10MO 02MC 02RD 02RO	0	1	2.23572206497	None	None	None	None	1
2.7	2015_May_22_1010	s	s	7	4	SIC	189	RC	2	1	02VD 09VO 02VC 02MD 02MO 02MC 02RD 02RO	1	0	0.893890857697	52.0	93.0	52	92	1
2.7	2015_May_22_1010	s	s	7	4	SIC	190	RC	0	2	02VD 02VO 02VC 02MD 02MO 02MC 09RD 02RO	0	1	1.45575904846	32.0	168.0	None	None	0
2.7	2015_May_22_1010	s	s	7	4	SIC	191	ABS	2	0	02VD 02VO 10VC 02MD 02MO 02MC 02RD 02RO	0	1	1.25883793831	None	None	None	None	1
2.7	2015_May_22_1010	s	s	7	4	SIC	192	RC	2	0	02VD 02VO 09VC 02MD 02MO 02MC 02RD 02RO	1	0	1.053855896	-156.0	-34.0	-148	-33	1
2.7	2015_May_22_1010	s	s	7	4	SIC	193	RC	0	1	02VD 02VO 02VC 02MD 02MO 02MC 02RD 09RO	1	0	1.75320982933	-47.0	-351.0	-50	-352	1
2.7	2015_May_22_1010	s	s	7	4	SIC	194	ABS	1	2	02VD 02VO 02VC 10MD 02MO 02MC 02RD 02RO	0	1	2.42192316055	None	None	None	None	1
2.7	2015_May_22_1010	s	s	7	4	SIC	195	RC	2	2	09VD 02VO 02VC 02MD 02MO 02MC 02RD 02RO	1	0	0.811580181122	32.0	320.0	36	311	1
2.7	2015_May_22_1010	s	s	7	4	SIC	196	ABS	2	2	10VD 02VO 02VC 02MD 02MO 02MC 02RD 02RO	0	1	1.51285600662	None	None	None	None	1
2.7	2015_May_22_1010	s	s	7	4	SIC	197	ABS	2	0	02VD 02VO 10VC 02MD 02MO 02MC 02RD 02RO	0	1	0.924165964127	None	None	None	None	1
2.7	2015_May_22_1010	s	s	7	4	SIC	198	ABS	1	1	02VD 02VO 02VC 02MD 10MO 02MC 02RD 02RO	0	1	1.89443302155	None	None	None	None	1
2.7	2015_May_22_1010	s	s	7	4	SIC	199	RC	1	1	02VD 02VO 02VC 02MD 09MO 02MC 02RD 02RO	1	0	0.738611936569	-279.0	330.0	-287	328	1
2.7	2015_May_22_1010	s	s	7	4	SIC	200	RC	2	1	02VD 09VO 02VC 02MD 02MO 02MC 02RD 02RO	1	0	0.940973997116	-489.0	172.0	-486	169	1
2.7	2015_May_22_1010	s	s	7	4	SIC	201	RC	1	2	02VD 02VO 02VC 09MD 02MO 02MC 02RD 02RO	1	0	1.5599091053	219.0	-158.0	222	-158	1
2.7	2015_May_22_1010	s	s	7	4	SIC	202	ABS	0	2	02VD 02VO 02VC 02MD 02MO 02MC 10RD 02RO	0	1	1.88000798225	None	None	None	None	1
2.7	2015_May_22_1010	s	s	7	4	SIC	203	RC	2	0	02VD 02VO 09VC 02MD 02MO 02MC 02RD 02RO	1	0	1.43102288246	221.0	101.0	219	105	1
2.7	2015_May_22_1010	s	s	7	4	SIC	204	RC	1	0	02VD 02VO 02VC 02MD 02MO 09MC 02RD 02RO	1	0	2.99596881866	432.0	-246.0	431	-249	1
2.7	2015_May_22_1010	s	s	7	4	SIC	205	RC	0	2	02VD 02VO 02VC 02MD 02MO 02MC 09RD 02RO	1	0	1.31766605377	-389.0	70.0	-393	60	1
2.7	2015_May_22_1010	s	s	7	4	SIC	206	ABS	2	1	02VD 10VO 02VC 02MD 02MO 02MC 02RD 02RO	0	1	1.32943916321	None	None	None	None	1
2.7	2015_May_22_1010	s	s	7	4	SIC	207	ABS	1	0	02VD 02VO 02VC 02MD 02MO 10MC 02RD 02RO	0	1	1.88268303871	None	None	None	None	1
2.7	2015_May_22_1010	s	s	7	4	SIC	208	ABS	0	1	02VD 02VO 02VC 02MD 02MO 02MC 02RD 10RO	0	1	3.30693292618	None	None	None	None	1
2.7	2015_May_22_1010	s	s	7	4	SIC	209	ABS	1	0	02VD 02VO 02VC 02MD 02MO 10MC 02RD 02RO	0	1	2.74881696701	None	None	None	None	1
2.7	2015_May_22_1010	s	s	7	4	SIC	210	RC	1	1	02VD 02VO 02VC 02MD 09MO 02MC 02RD 02RO	1	0	1.9980969429	-410.0	-305.0	-412	-304	1
2.7	2015_May_22_1010	s	s	7	4	SIC	211	RC	0	1	02VD 02VO 02VC 02MD 02MO 02MC 02RD 09RO	1	0	2.02869915962	-432.0	-260.0	-430	-261	1
2.7	2015_May_22_1010	s	s	7	4	SIC	212	RC	2	2	09VD 02VO 02VC 02MD 02MO 02MC 02RD 02RO	1	0	1.39518404007	-39.0	119.0	-38	113	1
2.7	2015_May_22_1010	s	s	7	4	SIC	213	RC	2	0	02VD 02VO 09VC 02MD 02MO 02MC 02RD 02RO	1	0	1.42361092567	243.0	-268.0	239	-264	1
2.7	2015_May_22_1010	s	s	7	4	SIC	214	RC	0	2	02VD 02VO 02VC 02MD 02MO 02MC 09RD 02RO	1	0	1.4942150116	-3.0	311.0	-7	320	1
2.7	2015_May_22_1010	s	s	7	4	SIC	215	RC	1	0	02VD 02VO 02VC 02MD 02MO 09MC 02RD 02RO	1	0	1.72475600243	-259.0	-391.0	-250	-394	1
2.7	2015_May_22_1010	s	s	7	4	SIC	216	ABS	0	1	02VD 02VO 02VC 02MD 02MO 02MC 02RD 10RO	0	1	3.84431195259	None	None	None	None	1
2.7	2015_May_22_1010	s	s	7	4	SIC	217	RC	1	2	02VD 02VO 02VC 09MD 02MO 02MC 02RD 02RO	1	0	1.5411798954	385.0	306.0	392	311	1
2.7	2015_May_22_1010	s	s	7	4	SIC	218	ABS	1	1	02VD 02VO 02VC 02MD 10MO 02MC 02RD 02RO	0	1	3.30692696571	None	None	None	None	1
2.7	2015_May_22_1010	s	s	7	4	SIC	219	RC	2	1	02VD 09VO 02VC 02MD 02MO 02MC 02RD 02RO	1	0	1.65461111069	-458.0	-356.0	-454	-366	1
2.7	2015_May_22_1010	s	s	7	4	SIC	220	ABS	1	2	02VD 02VO 02VC 10MD 02MO 02MC 02RD 02RO	0	1	2.5602619648	None	None	None	None	1
2.7	2015_May_22_1010	s	s	7	4	SIC	221	ABS	0	2	02VD 02VO 02VC 02MD 02MO 02MC 10RD 02RO	0	1	2.47119688988	None	None	None	None	1
2.7	2015_May_22_1010	s	s	7	4	SIC	222	ABS	2	1	02VD 10VO 02VC 02MD 02MO 02MC 02RD 02RO	0	1	2.44272303581	None	None	None	None	1
2.7	2015_May_22_1010	s	s	7	4	SIC	223	ABS	2	0	02VD 02VO 10VC 02MD 02MO 02MC 02RD 02RO	0	1	2.09448003769	None	None	None	None	1
2.7	2015_May_22_1010	s	s	7	4	SIC	224	ABS	2	2	10VD 02VO 02VC 02MD 02MO 02MC 02RD 02RO	0	1	1.76488304138	None	None	None	None	1
2.7	2015_May_22_1010	s	s	7	4	SIC	225	RC	2	0	02VD 02VO 09VC 02MD 02MO 02MC 02RD 02RO	1	0	1.77705287933	279.0	-262.0	282	-268	1
2.7	2015_May_22_1010	s	s	7	4	SIC	226	ABS	0	2	02VD 02VO 02VC 02MD 02MO 02MC 10RD 02RO	0	1	1.72535681725	None	None	None	None	1
2.7	2015_May_22_1010	s	s	7	4	SIC	227	ABS	2	0	02VD 02VO 10VC 02MD 02MO 02MC 02RD 02RO	0	1	1.33678412437	None	None	None	None	1
2.7	2015_May_22_1010	s	s	7	4	SIC	228	RC	0	1	02VD 02VO 02VC 02MD 02MO 02MC 02RD 09RO	1	0	1.76500797272	-163.0	341.0	-161	333	1
2.7	2015_May_22_1010	s	s	7	4	SIC	229	ABS	2	1	02VD 10VO 02VC 02MD 02MO 02MC 02RD 02RO	0	1	1.41871809959	None	None	None	None	1
2.7	2015_May_22_1010	s	s	7	4	SIC	230	RC	1	2	02VD 02VO 02VC 09MD 02MO 02MC 02RD 02RO	1	0	1.03520989418	135.0	343.0	134	342	1
2.7	2015_May_22_1010	s	s	7	4	SIC	231	ABS	2	2	10VD 02VO 02VC 02MD 02MO 02MC 02RD 02RO	0	1	1.49421906471	None	None	None	None	1
2.7	2015_May_22_1010	s	s	7	4	SIC	232	ABS	1	2	02VD 02VO 02VC 10MD 02MO 02MC 02RD 02RO	0	1	1.77181005478	None	None	None	None	1
2.7	2015_May_22_1010	s	s	7	4	SIC	233	RC	2	1	02VD 09VO 02VC 02MD 02MO 02MC 02RD 02RO	1	0	0.929246902466	52.0	62.0	53	68	1
2.7	2015_May_22_1010	s	s	7	4	SIC	234	RC	0	2	02VD 02VO 02VC 02MD 02MO 02MC 09RD 02RO	0	1	1.73726987839	494.0	-257.0	None	None	0
2.7	2015_May_22_1010	s	s	7	4	SIC	235	ABS	1	0	02VD 02VO 02VC 02MD 02MO 10MC 02RD 02RO	0	1	2.27758407593	None	None	None	None	1
2.7	2015_May_22_1010	s	s	7	4	SIC	236	RC	1	1	02VD 02VO 02VC 02MD 09MO 02MC 02RD 02RO	1	0	0.740849018097	-383.0	392.0	-377	388	1
2.7	2015_May_22_1010	s	s	7	4	SIC	237	RC	1	0	02VD 02VO 02VC 02MD 02MO 09MC 02RD 02RO	1	0	2.24231410027	340.0	-401.0	344	-406	1
2.7	2015_May_22_1010	s	s	7	4	SIC	238	ABS	0	1	02VD 02VO 02VC 02MD 02MO 02MC 02RD 10RO	0	1	3.68739008904	None	None	None	None	1
2.7	2015_May_22_1010	s	s	7	4	SIC	239	RC	2	2	09VD 02VO 02VC 02MD 02MO 02MC 02RD 02RO	1	0	0.724649906158	-189.0	126.0	-189	132	1
2.7	2015_May_22_1010	s	s	7	4	SIC	240	ABS	1	1	02VD 02VO 02VC 02MD 10MO 02MC 02RD 02RO	0	1	2.06306004524	None	None	None	None	1
2.7	2015_May_22_1010	s	s	7	4	SIC	241	RC	1	1	02VD 02VO 02VC 02MD 09MO 02MC 02RD 02RO	1	0	0.0229818820953	101.0	46.0	-19	96	0
2.7	2015_May_22_1010	s	s	7	4	SIC	242	ABS	2	1	02VD 10VO 02VC 02MD 02MO 02MC 02RD 02RO	0	1	2.35349392891	None	None	None	None	1
2.7	2015_May_22_1010	s	s	7	4	SIC	243	ABS	1	0	02VD 02VO 02VC 02MD 02MO 10MC 02RD 02RO	0	1	4.35447502136	None	None	None	None	1
2.7	2015_May_22_1010	s	s	7	4	SIC	244	ABS	2	2	10VD 02VO 02VC 02MD 02MO 02MC 02RD 02RO	0	1	2.32993078232	None	None	None	None	1
2.7	2015_May_22_1010	s	s	7	4	SIC	245	RC	2	1	02VD 09VO 02VC 02MD 02MO 02MC 02RD 02RO	1	0	1.78840303421	264.0	-36.0	269	-36	1
2.7	2015_May_22_1010	s	s	7	4	SIC	246	RC	0	1	02VD 02VO 02VC 02MD 02MO 02MC 02RD 09RO	1	0	1.85522985458	135.0	-343.0	134	-336	1
2.7	2015_May_22_1010	s	s	7	4	SIC	247	RC	2	2	09VD 02VO 02VC 02MD 02MO 02MC 02RD 02RO	1	0	2.17267203331	-482.0	-408.0	-479	-408	1
2.7	2015_May_22_1010	s	s	7	4	SIC	248	RC	2	0	02VD 02VO 09VC 02MD 02MO 02MC 02RD 02RO	1	0	1.20967388153	17.0	347.0	21	339	1
2.7	2015_May_22_1010	s	s	7	4	SIC	249	ABS	2	0	02VD 02VO 10VC 02MD 02MO 02MC 02RD 02RO	0	1	1.47063612938	None	None	None	None	1
2.7	2015_May_22_1010	s	s	7	4	SIC	250	RC	0	2	02VD 02VO 02VC 02MD 02MO 02MC 09RD 02RO	1	0	1.14878487587	98.0	-19.0	103	-24	1
2.7	2015_May_22_1010	s	s	7	4	SIC	251	ABS	0	2	02VD 02VO 02VC 02MD 02MO 02MC 10RD 02RO	0	1	1.67751502991	None	None	None	None	1
2.7	2015_May_22_1010	s	s	7	4	SIC	252	ABS	1	2	02VD 02VO 02VC 10MD 02MO 02MC 02RD 02RO	0	1	1.74141287804	None	None	None	None	1
2.7	2015_May_22_1010	s	s	7	4	SIC	253	RC	1	2	02VD 02VO 02VC 09MD 02MO 02MC 02RD 02RO	1	0	0.818400144577	54.0	-138.0	52	-144	1
2.7	2015_May_22_1010	s	s	7	4	SIC	254	ABS	0	1	02VD 02VO 02VC 02MD 02MO 02MC 02RD 10RO	0	1	3.90743398666	None	None	None	None	1
2.7	2015_May_22_1010	s	s	7	4	SIC	255	ABS	1	1	02VD 02VO 02VC 02MD 10MO 02MC 02RD 02RO	0	1	3.31872296333	None	None	None	None	1
2.7	2015_May_22_1010	s	s	7	4	SIC	256	RC	1	0	02VD 02VO 02VC 02MD 02MO 09MC 02RD 02RO	1	0	2.20046782494	297.0	398.0	297	405	1
2.7	2015_May_22_1010	s	s	7	4	SIC	257	RC	1	0	02VD 02VO 02VC 02MD 02MO 09MC 02RD 02RO	1	0	2.13698196411	-146.0	-371.0	-148	-377	1
2.7	2015_May_22_1010	s	s	7	4	SIC	258	RC	1	2	02VD 02VO 02VC 09MD 02MO 02MC 02RD 02RO	1	0	0.93873000145	134.0	242.0	139	238	1
2.7	2015_May_22_1010	s	s	7	4	SIC	259	ABS	0	1	02VD 02VO 02VC 02MD 02MO 02MC 02RD 10RO	0	1	3.30194497108	None	None	None	None	1
2.7	2015_May_22_1010	s	s	7	4	SIC	260	ABS	2	0	02VD 02VO 10VC 02MD 02MO 02MC 02RD 02RO	0	1	2.13672995567	None	None	None	None	1
2.7	2015_May_22_1010	s	s	7	4	SIC	261	RC	2	1	02VD 09VO 02VC 02MD 02MO 02MC 02RD 02RO	1	0	0.988107919693	-399.0	357.0	-394	363	1
2.7	2015_May_22_1010	s	s	7	4	SIC	262	RC	0	1	02VD 02VO 02VC 02MD 02MO 02MC 02RD 09RO	1	0	1.73808002472	180.0	-129.0	182	-132	1
2.7	2015_May_22_1010	s	s	7	4	SIC	263	RC	1	1	02VD 02VO 02VC 02MD 09MO 02MC 02RD 02RO	1	0	1.2529771328	-20.0	256.0	-15	253	1
2.7	2015_May_22_1010	s	s	7	4	SIC	264	ABS	2	1	02VD 10VO 02VC 02MD 02MO 02MC 02RD 02RO	0	1	1.98848986626	None	None	None	None	1
2.7	2015_May_22_1010	s	s	7	4	SIC	265	ABS	1	0	02VD 02VO 02VC 02MD 02MO 10MC 02RD 02RO	0	1	3.48355579376	None	None	None	None	1
2.7	2015_May_22_1010	s	s	7	4	SIC	266	ABS	1	2	02VD 02VO 02VC 10MD 02MO 02MC 02RD 02RO	0	1	1.76297402382	None	None	None	None	1
2.7	2015_May_22_1010	s	s	7	4	SIC	267	ABS	2	2	10VD 02VO 02VC 02MD 02MO 02MC 02RD 02RO	0	1	1.75320506096	None	None	None	None	1
2.7	2015_May_22_1010	s	s	7	4	SIC	268	ABS	0	2	02VD 02VO 02VC 02MD 02MO 02MC 10RD 02RO	0	1	1.9962041378	None	None	None	None	1
2.7	2015_May_22_1010	s	s	7	4	SIC	269	RC	2	2	09VD 02VO 02VC 02MD 02MO 02MC 02RD 02RO	1	0	2.0671980381	21.0	-124.0	19	-130	1
2.7	2015_May_22_1010	s	s	7	4	SIC	270	RC	0	2	02VD 02VO 02VC 02MD 02MO 02MC 09RD 02RO	1	0	1.36487102509	248.0	376.0	239	378	1
2.7	2015_May_22_1010	s	s	7	4	SIC	271	ABS	1	1	02VD 02VO 02VC 02MD 10MO 02MC 02RD 02RO	0	1	2.01843595505	None	None	None	None	1
2.7	2015_May_22_1010	s	s	7	4	SIC	272	RC	2	0	02VD 02VO 09VC 02MD 02MO 02MC 02RD 02RO	1	0	1.11798286438	-244.0	161.0	-240	155	1
2.7	2015_May_22_1010	s	s	7	4	SIC	273	RC	1	0	02VD 02VO 02VC 02MD 02MO 09MC 02RD 02RO	1	0	2.07770299911	326.0	282.0	324	285	1
2.7	2015_May_22_1010	s	s	7	4	SIC	274	RC	0	2	02VD 02VO 02VC 02MD 02MO 02MC 09RD 02RO	1	0	0.658518075943	-125.0	-69.0	-123	-70	1
2.7	2015_May_22_1010	s	s	7	4	SIC	275	RC	0	1	02VD 02VO 02VC 02MD 02MO 02MC 02RD 09RO	1	0	1.59526085854	-231.0	-335.0	-232	-336	1
2.7	2015_May_22_1010	s	s	7	4	SIC	276	RC	1	1	02VD 02VO 02VC 02MD 09MO 02MC 02RD 02RO	1	0	0.987977027893	-300.0	268.0	-292	268	1
2.7	2015_May_22_1010	s	s	7	4	SIC	277	ABS	1	2	02VD 02VO 02VC 10MD 02MO 02MC 02RD 02RO	0	1	1.32158303261	None	None	None	None	1
2.7	2015_May_22_1010	s	s	7	4	SIC	278	ABS	1	1	02VD 02VO 02VC 02MD 10MO 02MC 02RD 02RO	0	1	1.58836483955	None	None	None	None	1
2.7	2015_May_22_1010	s	s	7	4	SIC	279	ABS	0	1	02VD 02VO 02VC 02MD 02MO 02MC 02RD 10RO	0	1	4.01315593719	None	None	None	None	1
2.7	2015_May_22_1010	s	s	7	4	SIC	280	RC	2	0	02VD 02VO 09VC 02MD 02MO 02MC 02RD 02RO	1	0	1.73712396622	470.0	-343.0	478	-344	1
2.7	2015_May_22_1010	s	s	7	4	SIC	281	ABS	1	0	02VD 02VO 02VC 02MD 02MO 10MC 02RD 02RO	0	1	2.67137002945	None	None	None	None	1
2.7	2015_May_22_1010	s	s	7	4	SIC	282	ABS	2	2	10VD 02VO 02VC 02MD 02MO 02MC 02RD 02RO	0	1	1.98859596252	None	None	None	None	1
2.7	2015_May_22_1010	s	s	7	4	SIC	283	ABS	2	1	02VD 10VO 02VC 02MD 02MO 02MC 02RD 02RO	0	1	1.93846702576	None	None	None	None	1
2.7	2015_May_22_1010	s	s	7	4	SIC	284	RC	2	1	02VD 09VO 02VC 02MD 02MO 02MC 02RD 02RO	1	0	0.776164054871	-379.0	88.0	-375	86	1
2.7	2015_May_22_1010	s	s	7	4	SIC	285	RC	1	2	02VD 02VO 02VC 09MD 02MO 02MC 02RD 02RO	0	1	1.68259191513	91.0	233.0	None	None	0
2.7	2015_May_22_1010	s	s	7	4	SIC	286	ABS	0	2	02VD 02VO 02VC 02MD 02MO 02MC 10RD 02RO	0	1	1.64219999313	None	None	None	None	1
2.7	2015_May_22_1010	s	s	7	4	SIC	287	RC	2	2	09VD 02VO 02VC 02MD 02MO 02MC 02RD 02RO	1	0	1.10574007034	-485.0	-31.0	-486	-37	1
2.7	2015_May_22_1010	s	s	7	4	SIC	288	ABS	2	0	02VD 02VO 10VC 02MD 02MO 02MC 02RD 02RO	0	1	2.03570079803	None	None	None	None	1
2.7	2015_May_22_1010	s	s	7	4	SIC	289	RC	2	0	02VD 02VO 09VC 02MD 02MO 02MC 02RD 02RO	1	0	0.771363019943	-323.0	26.0	-317	28	1
2.7	2015_May_22_1010	s	s	7	4	SIC	290	RC	2	1	02VD 09VO 02VC 02MD 02MO 02MC 02RD 02RO	0	1	1.45105195045	-76.0	-311.0	None	None	0
2.7	2015_May_22_1010	s	s	7	4	SIC	291	RC	1	0	02VD 02VO 02VC 02MD 02MO 09MC 02RD 02RO	1	0	1.74140906334	94.0	-357.0	95	-357	1
2.7	2015_May_22_1010	s	s	7	4	SIC	292	ABS	1	1	02VD 02VO 02VC 02MD 10MO 02MC 02RD 02RO	0	1	2.68977808952	None	None	None	None	1
2.7	2015_May_22_1010	s	s	7	4	SIC	293	ABS	2	2	10VD 02VO 02VC 02MD 02MO 02MC 02RD 02RO	0	1	1.74135804176	None	None	None	None	1
2.7	2015_May_22_1010	s	s	7	4	SIC	294	ABS	2	1	02VD 10VO 02VC 02MD 02MO 02MC 02RD 02RO	0	1	2.20049309731	None	None	None	None	1
2.7	2015_May_22_1010	s	s	7	4	SIC	295	ABS	1	0	02VD 02VO 02VC 02MD 02MO 10MC 02RD 02RO	0	1	1.98353004456	None	None	None	None	1
2.7	2015_May_22_1010	s	s	7	4	SIC	296	ABS	0	2	02VD 02VO 02VC 02MD 02MO 02MC 10RD 02RO	0	1	1.68256998062	None	None	None	None	1
2.7	2015_May_22_1010	s	s	7	4	SIC	297	ABS	0	1	02VD 02VO 02VC 02MD 02MO 02MC 02RD 10RO	0	1	3.93929719925	None	None	None	None	1
2.7	2015_May_22_1010	s	s	7	4	SIC	298	ABS	1	2	02VD 02VO 02VC 10MD 02MO 02MC 02RD 02RO	0	1	1.84093403816	None	None	None	None	1
2.7	2015_May_22_1010	s	s	7	4	SIC	299	RC	1	1	02VD 02VO 02VC 02MD 09MO 02MC 02RD 02RO	1	0	2.24750685692	463.0	-44.0	467	-42	1
2.7	2015_May_22_1010	s	s	7	4	SIC	300	RC	0	1	02VD 02VO 02VC 02MD 02MO 02MC 02RD 09RO	1	0	0.912060976028	-524.0	254.0	-524	260	1
2.7	2015_May_22_1010	s	s	7	4	SIC	301	RC	1	2	02VD 02VO 02VC 09MD 02MO 02MC 02RD 02RO	1	0	0.670391798019	-318.0	195.0	-315	196	1
2.7	2015_May_22_1010	s	s	7	4	SIC	302	RC	0	2	02VD 02VO 02VC 02MD 02MO 02MC 09RD 02RO	1	0	1.03010296822	259.0	190.0	254	184	1
2.7	2015_May_22_1010	s	s	7	4	SIC	303	RC	2	2	09VD 02VO 02VC 02MD 02MO 02MC 02RD 02RO	0	1	1.54819393158	511.0	216.0	None	None	0
2.7	2015_May_22_1010	s	s	7	4	SIC	304	ABS	2	0	02VD 02VO 10VC 02MD 02MO 02MC 02RD 02RO	0	1	1.7067990303	None	None	None	None	1
2.7	2015_May_22_1010	s	s	7	4	SIC	305	ABS	0	2	02VD 02VO 02VC 02MD 02MO 02MC 10RD 02RO	0	1	1.61232280731	None	None	None	None	1
2.7	2015_May_22_1010	s	s	7	4	SIC	306	RC	1	2	02VD 02VO 02VC 09MD 02MO 02MC 02RD 02RO	1	0	1.50119900703	295.0	340.0	296	342	1
2.7	2015_May_22_1010	s	s	7	4	SIC	307	ABS	1	0	02VD 02VO 02VC 02MD 02MO 10MC 02RD 02RO	0	1	1.8473341465	None	None	None	None	1
2.7	2015_May_22_1010	s	s	7	4	SIC	308	ABS	1	2	02VD 02VO 02VC 10MD 02MO 02MC 02RD 02RO	0	1	1.58343696594	None	None	None	None	1
2.7	2015_May_22_1010	s	s	7	4	SIC	309	ABS	2	1	02VD 10VO 02VC 02MD 02MO 02MC 02RD 02RO	0	1	1.94823098183	None	None	None	None	1
2.7	2015_May_22_1010	s	s	7	4	SIC	310	ABS	2	2	10VD 02VO 02VC 02MD 02MO 02MC 02RD 02RO	0	1	1.53383517265	None	None	None	None	1
2.7	2015_May_22_1010	s	s	7	4	SIC	311	ABS	0	1	02VD 02VO 02VC 02MD 02MO 02MC 02RD 10RO	0	1	2.50313210487	None	None	None	None	1
2.7	2015_May_22_1010	s	s	7	4	SIC	312	RC	2	0	02VD 02VO 09VC 02MD 02MO 02MC 02RD 02RO	1	0	1.866106987	313.0	-380.0	321	-382	1
2.7	2015_May_22_1010	s	s	7	4	SIC	313	RC	2	2	09VD 02VO 02VC 02MD 02MO 02MC 02RD 02RO	1	0	1.01906991005	-15.0	398.0	-8	393	1
2.7	2015_May_22_1010	s	s	7	4	SIC	314	ABS	2	0	02VD 02VO 10VC 02MD 02MO 02MC 02RD 02RO	0	1	1.09426212311	None	None	None	None	1
2.7	2015_May_22_1010	s	s	7	4	SIC	315	RC	0	1	02VD 02VO 02VC 02MD 02MO 02MC 02RD 09RO	1	0	2.65159296989	500.0	-90.0	497	-85	1
2.7	2015_May_22_1010	s	s	7	4	SIC	316	RC	0	2	02VD 02VO 02VC 02MD 02MO 02MC 09RD 02RO	1	0	1.51290202141	-239.0	-326.0	-235	-329	1
2.7	2015_May_22_1010	s	s	7	4	SIC	317	RC	2	1	02VD 09VO 02VC 02MD 02MO 02MC 02RD 02RO	1	0	0.752632856369	55.0	234.0	63	239	1
2.7	2015_May_22_1010	s	s	7	4	SIC	318	ABS	1	1	02VD 02VO 02VC 02MD 10MO 02MC 02RD 02RO	0	1	2.07880401611	None	None	None	None	1
2.7	2015_May_22_1010	s	s	7	4	SIC	319	RC	1	1	02VD 02VO 02VC 02MD 09MO 02MC 02RD 02RO	1	0	1.14802908897	142.0	-299.0	137	-300	1
2.7	2015_May_22_1010	s	s	7	4	SIC	320	RC	1	0	02VD 02VO 02VC 02MD 02MO 09MC 02RD 02RO	1	0	1.3036980629	250.0	-308.0	257	-313	1
2.7	2015_May_22_1010	s	s	7	4	SIC	321	ABS	1	1	02VD 02VO 02VC 02MD 10MO 02MC 02RD 02RO	0	1	2.08275198936	None	None	None	None	1
2.7	2015_May_22_1010	s	s	7	4	SIC	322	ABS	1	2	02VD 02VO 02VC 10MD 02MO 02MC 02RD 02RO	0	1	1.60686898232	None	None	None	None	1
2.7	2015_May_22_1010	s	s	7	4	SIC	323	RC	2	1	02VD 09VO 02VC 02MD 02MO 02MC 02RD 02RO	1	0	2.03010511398	481.0	-313.0	472	-310	1
2.7	2015_May_22_1010	s	s	7	4	SIC	324	RC	0	1	02VD 02VO 02VC 02MD 02MO 02MC 02RD 09RO	1	0	2.22175908089	426.0	377.0	422	374	1
2.7	2015_May_22_1010	s	s	7	4	SIC	325	ABS	0	2	02VD 02VO 02VC 02MD 02MO 02MC 10RD 02RO	0	1	1.80699801445	None	None	None	None	1
2.7	2015_May_22_1010	s	s	7	4	SIC	326	RC	0	2	02VD 02VO 02VC 02MD 02MO 02MC 09RD 02RO	1	0	1.26572394371	234.0	313.0	233	312	1
2.7	2015_May_22_1010	s	s	7	4	SIC	327	RC	1	2	02VD 02VO 02VC 09MD 02MO 02MC 02RD 02RO	1	0	1.05864596367	-146.0	-211.0	-143	-214	1
2.7	2015_May_22_1010	s	s	7	4	SIC	328	RC	2	0	02VD 02VO 09VC 02MD 02MO 02MC 02RD 02RO	1	0	1.43052315712	445.0	65.0	446	65	1
2.7	2015_May_22_1010	s	s	7	4	SIC	329	ABS	0	1	02VD 02VO 02VC 02MD 02MO 02MC 02RD 10RO	0	1	4.24505615234	None	None	None	None	1
2.7	2015_May_22_1010	s	s	7	4	SIC	330	ABS	1	0	02VD 02VO 02VC 02MD 02MO 10MC 02RD 02RO	0	1	2.65621089935	None	None	None	None	1
2.7	2015_May_22_1010	s	s	7	4	SIC	331	RC	1	0	02VD 02VO 02VC 02MD 02MO 09MC 02RD 02RO	1	0	1.06574988365	108.0	6.0	120	8	1
2.7	2015_May_22_1010	s	s	7	4	SIC	332	RC	1	1	02VD 02VO 02VC 02MD 09MO 02MC 02RD 02RO	1	0	0.571254968643	-120.0	65.0	-121	75	1
2.7	2015_May_22_1010	s	s	7	4	SIC	333	ABS	2	1	02VD 10VO 02VC 02MD 02MO 02MC 02RD 02RO	0	1	1.21844792366	None	None	None	None	1
2.7	2015_May_22_1010	s	s	7	4	SIC	334	ABS	2	2	10VD 02VO 02VC 02MD 02MO 02MC 02RD 02RO	0	1	1.63044309616	None	None	None	None	1
2.7	2015_May_22_1010	s	s	7	4	SIC	335	RC	2	2	09VD 02VO 02VC 02MD 02MO 02MC 02RD 02RO	1	0	0.6187479496	-64.0	193.0	-69	193	1
2.7	2015_May_22_1010	s	s	7	4	SIC	336	ABS	2	0	02VD 02VO 10VC 02MD 02MO 02MC 02RD 02RO	0	1	2.18868803978	None	None	None	None	1
2.7	2015_May_22_1010	s	s	7	4	SIC	337	ABS	1	1	02VD 02VO 02VC 02MD 10MO 02MC 02RD 02RO	0	1	2.76260495186	None	None	None	None	1
2.7	2015_May_22_1010	s	s	7	4	SIC	338	RC	2	0	02VD 02VO 09VC 02MD 02MO 02MC 02RD 02RO	1	0	0.772666931152	-35.0	196.0	-39	205	1
2.7	2015_May_22_1010	s	s	7	4	SIC	339	ABS	2	2	10VD 02VO 02VC 02MD 02MO 02MC 02RD 02RO	0	1	1.49418783188	None	None	None	None	1
2.7	2015_May_22_1010	s	s	7	4	SIC	340	RC	0	1	02VD 02VO 02VC 02MD 02MO 02MC 02RD 09RO	1	0	2.1602230072	398.0	239.0	398	239	1
2.7	2015_May_22_1010	s	s	7	4	SIC	341	ABS	1	0	02VD 02VO 02VC 02MD 02MO 10MC 02RD 02RO	0	1	2.69457602501	None	None	None	None	1
2.7	2015_May_22_1010	s	s	7	4	SIC	342	RC	1	1	02VD 02VO 02VC 02MD 09MO 02MC 02RD 02RO	1	0	1.24704313278	482.0	180.0	480	182	1
2.7	2015_May_22_1010	s	s	7	4	SIC	343	ABS	2	0	02VD 02VO 10VC 02MD 02MO 02MC 02RD 02RO	0	1	1.07049298286	None	None	None	None	1
2.7	2015_May_22_1010	s	s	7	4	SIC	344	RC	1	0	02VD 02VO 02VC 02MD 02MO 09MC 02RD 02RO	1	0	1.96535897255	508.0	-305.0	514	-299	1
2.7	2015_May_22_1010	s	s	7	4	SIC	345	ABS	2	1	02VD 10VO 02VC 02MD 02MO 02MC 02RD 02RO	0	1	1.16464281082	None	None	None	None	1
2.7	2015_May_22_1010	s	s	7	4	SIC	346	ABS	0	1	02VD 02VO 02VC 02MD 02MO 02MC 02RD 10RO	0	1	2.09446406364	None	None	None	None	1
2.7	2015_May_22_1010	s	s	7	4	SIC	347	RC	1	2	02VD 02VO 02VC 09MD 02MO 02MC 02RD 02RO	1	0	1.40951490402	492.0	-244.0	496	-246	1
2.7	2015_May_22_1010	s	s	7	4	SIC	348	RC	2	1	02VD 09VO 02VC 02MD 02MO 02MC 02RD 02RO	1	0	0.689346075058	-67.0	233.0	-70	227	1
2.7	2015_May_22_1010	s	s	7	4	SIC	349	ABS	1	2	02VD 02VO 02VC 10MD 02MO 02MC 02RD 02RO	0	1	1.70606207848	None	None	None	None	1
2.7	2015_May_22_1010	s	s	7	4	SIC	350	RC	0	2	02VD 02VO 02VC 02MD 02MO 02MC 09RD 02RO	1	0	0.854337215424	317.0	317.0	315	316	1
2.7	2015_May_22_1010	s	s	7	4	SIC	351	ABS	0	2	02VD 02VO 02VC 02MD 02MO 02MC 10RD 02RO	0	1	1.76522684097	None	None	None	None	1
2.7	2015_May_22_1010	s	s	7	4	SIC	352	RC	2	2	09VD 02VO 02VC 02MD 02MO 02MC 02RD 02RO	1	0	1.61173915863	278.0	-138.0	281	-136	1
2.7	2015_May_22_1010	s	s	7	4	SIC	353	ABS	2	0	02VD 02VO 10VC 02MD 02MO 02MC 02RD 02RO	0	1	2.96068406105	None	None	None	None	1
2.7	2015_May_22_1010	s	s	7	4	SIC	354	RC	1	2	02VD 02VO 02VC 09MD 02MO 02MC 02RD 02RO	1	0	0.729172945023	92.0	265.0	99	265	1
2.7	2015_May_22_1010	s	s	7	4	SIC	355	RC	2	2	09VD 02VO 02VC 02MD 02MO 02MC 02RD 02RO	1	0	1.45890593529	-175.0	-325.0	-184	-325	1
2.7	2015_May_22_1010	s	s	7	4	SIC	356	RC	2	1	02VD 09VO 02VC 02MD 02MO 02MC 02RD 02RO	1	0	1.01808214188	275.0	-287.0	275	-281	1
2.7	2015_May_22_1010	s	s	7	4	SIC	357	RC	1	0	02VD 02VO 02VC 02MD 02MO 09MC 02RD 02RO	1	0	1.09394288063	-139.0	257.0	-142	261	1
2.7	2015_May_22_1010	s	s	7	4	SIC	358	ABS	2	2	10VD 02VO 02VC 02MD 02MO 02MC 02RD 02RO	0	1	1.64725112915	None	None	None	None	1
2.7	2015_May_22_1010	s	s	7	4	SIC	359	RC	0	2	02VD 02VO 02VC 02MD 02MO 02MC 09RD 02RO	1	0	1.2182970047	-3.0	-171.0	1	-174	1
2.7	2015_May_22_1010	s	s	7	4	SIC	360	ABS	0	2	02VD 02VO 02VC 02MD 02MO 02MC 10RD 02RO	0	1	1.7953979969	None	None	None	None	1
2.7	2015_May_22_1010	s	s	7	4	SIC	361	RC	2	0	02VD 02VO 09VC 02MD 02MO 02MC 02RD 02RO	1	0	2.00078105927	-534.0	-160.0	-536	-164	1
2.7	2015_May_22_1010	s	s	7	4	SIC	362	ABS	1	2	02VD 02VO 02VC 10MD 02MO 02MC 02RD 02RO	0	1	1.82376599312	None	None	None	None	1
2.7	2015_May_22_1010	s	s	7	4	SIC	363	ABS	1	1	02VD 02VO 02VC 02MD 10MO 02MC 02RD 02RO	0	1	2.65437602997	None	None	None	None	1
2.7	2015_May_22_1010	s	s	7	4	SIC	364	ABS	2	1	02VD 10VO 02VC 02MD 02MO 02MC 02RD 02RO	0	1	1.41921710968	None	None	None	None	1
2.7	2015_May_22_1010	s	s	7	4	SIC	365	ABS	1	0	02VD 02VO 02VC 02MD 02MO 10MC 02RD 02RO	0	1	2.20735406876	None	None	None	None	1
2.7	2015_May_22_1010	s	s	7	4	SIC	366	ABS	0	1	02VD 02VO 02VC 02MD 02MO 02MC 02RD 10RO	0	1	3.33046007156	None	None	None	None	1
2.7	2015_May_22_1010	s	s	7	4	SIC	367	RC	0	1	02VD 02VO 02VC 02MD 02MO 02MC 02RD 09RO	1	0	1.14801096916	100.0	-147.0	100	-146	1
2.7	2015_May_22_1010	s	s	7	4	SIC	368	RC	1	1	02VD 02VO 02VC 02MD 09MO 02MC 02RD 02RO	1	0	2.286703825	396.0	296.0	397	303	1
2.7	2015_May_22_1010	s	s	7	4	SIC	369	RC	0	2	02VD 02VO 02VC 02MD 02MO 02MC 09RD 02RO	1	0	0.587877988815	-312.0	330.0	-305	326	1
2.7	2015_May_22_1010	s	s	7	4	SIC	370	RC	1	2	02VD 02VO 02VC 09MD 02MO 02MC 02RD 02RO	1	0	1.49424505234	317.0	-235.0	315	-239	1
2.7	2015_May_22_1010	s	s	7	4	SIC	371	ABS	2	1	02VD 10VO 02VC 02MD 02MO 02MC 02RD 02RO	0	1	2.08278608322	None	None	None	None	1
2.7	2015_May_22_1010	s	s	7	4	SIC	372	RC	1	1	02VD 02VO 02VC 02MD 09MO 02MC 02RD 02RO	1	0	2.37697505951	434.0	-379.0	432	-378	1
2.7	2015_May_22_1010	s	s	7	4	SIC	373	RC	0	1	02VD 02VO 02VC 02MD 02MO 02MC 02RD 09RO	1	0	1.41184091568	-18.0	221.0	-11	220	1
2.7	2015_May_22_1010	s	s	7	4	SIC	374	RC	2	2	09VD 02VO 02VC 02MD 02MO 02MC 02RD 02RO	1	0	1.32453203201	-232.0	-245.0	-226	-246	1
2.7	2015_May_22_1010	s	s	7	4	SIC	375	RC	2	1	02VD 09VO 02VC 02MD 02MO 02MC 02RD 02RO	1	0	0.917491912842	-352.0	160.0	-358	158	1
2.7	2015_May_22_1010	s	s	7	4	SIC	376	ABS	1	1	02VD 02VO 02VC 02MD 10MO 02MC 02RD 02RO	0	1	2.60755991936	None	None	None	None	1
2.7	2015_May_22_1010	s	s	7	4	SIC	377	RC	1	0	02VD 02VO 02VC 02MD 02MO 09MC 02RD 02RO	1	0	2.31549787521	-462.0	-303.0	-465	-306	1
2.7	2015_May_22_1010	s	s	7	4	SIC	378	ABS	0	2	02VD 02VO 02VC 02MD 02MO 02MC 10RD 02RO	0	1	1.75319290161	None	None	None	None	1
2.7	2015_May_22_1010	s	s	7	4	SIC	379	ABS	1	0	02VD 02VO 02VC 02MD 02MO 10MC 02RD 02RO	0	1	2.08282995224	None	None	None	None	1
2.7	2015_May_22_1010	s	s	7	4	SIC	380	ABS	1	2	02VD 02VO 02VC 10MD 02MO 02MC 02RD 02RO	0	1	2.17691493034	None	None	None	None	1
2.7	2015_May_22_1010	s	s	7	4	SIC	381	ABS	2	0	02VD 02VO 10VC 02MD 02MO 02MC 02RD 02RO	0	1	1.75992393494	None	None	None	None	1
2.7	2015_May_22_1010	s	s	7	4	SIC	382	ABS	0	1	02VD 02VO 02VC 02MD 02MO 02MC 02RD 10RO	0	1	3.26834821701	None	None	None	None	1
2.7	2015_May_22_1010	s	s	7	4	SIC	383	ABS	2	2	10VD 02VO 02VC 02MD 02MO 02MC 02RD 02RO	0	1	1.79536509514	None	None	None	None	1
2.7	2015_May_22_1010	s	s	7	4	SIC	384	RC	2	0	02VD 02VO 09VC 02MD 02MO 02MC 02RD 02RO	1	0	1.52465391159	-460.0	-269.0	-457	-281	1
2.7	2015_May_22_1010	s	s	7	4	SIC	385	ABS	2	1	02VD 10VO 02VC 02MD 02MO 02MC 02RD 02RO	0	1	2.15025305748	None	None	None	None	1
2.7	2015_May_22_1010	s	s	7	4	SIC	386	RC	2	1	02VD 09VO 02VC 02MD 02MO 02MC 02RD 02RO	1	0	1.99519300461	524.0	391.0	527	385	1
2.7	2015_May_22_1010	s	s	7	4	SIC	387	RC	0	2	02VD 02VO 02VC 02MD 02MO 02MC 09RD 02RO	1	0	0.830168008804	120.0	180.0	110	182	1
2.7	2015_May_22_1010	s	s	7	4	SIC	388	ABS	0	2	02VD 02VO 02VC 02MD 02MO 02MC 10RD 02RO	0	1	1.7649538517	None	None	None	None	1
2.7	2015_May_22_1010	s	s	7	4	SIC	389	RC	0	1	02VD 02VO 02VC 02MD 02MO 02MC 02RD 09RO	1	0	0.893785953522	26.0	-32.0	25	-33	1
2.7	2015_May_22_1010	s	s	7	4	SIC	390	ABS	1	0	02VD 02VO 02VC 02MD 02MO 10MC 02RD 02RO	0	1	3.00079798698	None	None	None	None	1
2.7	2015_May_22_1010	s	s	7	4	SIC	391	RC	2	0	02VD 02VO 09VC 02MD 02MO 02MC 02RD 02RO	1	0	0.952658891678	52.0	407.0	53	402	1
2.7	2015_May_22_1010	s	s	7	4	SIC	392	RC	1	2	02VD 02VO 02VC 09MD 02MO 02MC 02RD 02RO	1	0	1.96501398087	-436.0	-367.0	-439	-366	1
2.7	2015_May_22_1010	s	s	7	4	SIC	393	ABS	1	2	02VD 02VO 02VC 10MD 02MO 02MC 02RD 02RO	0	1	2.8194231987	None	None	None	None	1
2.7	2015_May_22_1010	s	s	7	4	SIC	394	RC	1	1	02VD 02VO 02VC 02MD 09MO 02MC 02RD 02RO	1	0	1.96053004265	-378.0	-346.0	-382	-353	1
2.7	2015_May_22_1010	s	s	7	4	SIC	395	RC	1	0	02VD 02VO 02VC 02MD 02MO 09MC 02RD 02RO	1	0	0.823496818542	150.0	178.0	151	175	1
2.7	2015_May_22_1010	s	s	7	4	SIC	396	ABS	2	0	02VD 02VO 10VC 02MD 02MO 02MC 02RD 02RO	0	1	2.45617103577	None	None	None	None	1
2.7	2015_May_22_1010	s	s	7	4	SIC	397	ABS	2	2	10VD 02VO 02VC 02MD 02MO 02MC 02RD 02RO	0	1	1.65902686119	None	None	None	None	1
2.7	2015_May_22_1010	s	s	7	4	SIC	398	ABS	1	1	02VD 02VO 02VC 02MD 10MO 02MC 02RD 02RO	0	1	2.34862709045	None	None	None	None	1
2.7	2015_May_22_1010	s	s	7	4	SIC	399	ABS	0	1	02VD 02VO 02VC 02MD 02MO 02MC 02RD 10RO	0	1	2.88930177689	None	None	None	None	1
2.7	2015_May_22_1010	s	s	7	4	SIC	400	RC	2	2	09VD 02VO 02VC 02MD 02MO 02MC 02RD 02RO	0	1	2.24241995811	386.0	-10.0	None	None	0
2.7	2015_May_22_1010	s	s	7	4	SIC	401	RC	1	1	02VD 02VO 02VC 02MD 09MO 02MC 02RD 02RO	1	0	3.63652801514	315.0	-322.0	312	-322	1
2.7	2015_May_22_1010	s	s	7	4	SIC	402	ABS	2	1	02VD 10VO 02VC 02MD 02MO 02MC 02RD 02RO	0	1	1.76488995552	None	None	None	None	1
2.7	2015_May_22_1010	s	s	7	4	SIC	403	RC	0	1	02VD 02VO 02VC 02MD 02MO 02MC 02RD 09RO	1	0	2.06593990326	384.0	-111.0	375	-109	1
2.7	2015_May_22_1010	s	s	7	4	SIC	404	ABS	2	2	10VD 02VO 02VC 02MD 02MO 02MC 02RD 02RO	0	1	3.00983810425	None	None	None	None	1
2.7	2015_May_22_1010	s	s	7	4	SIC	405	RC	1	0	02VD 02VO 02VC 02MD 02MO 09MC 02RD 02RO	1	0	2.32505607605	470.0	-86.0	465	-88	1
2.7	2015_May_22_1010	s	s	7	4	SIC	406	RC	2	1	02VD 09VO 02VC 02MD 02MO 02MC 02RD 02RO	1	0	0.853715181351	393.0	212.0	388	214	1
2.7	2015_May_22_1010	s	s	7	4	SIC	407	RC	0	2	02VD 02VO 02VC 02MD 02MO 02MC 09RD 02RO	1	0	0.776128053665	-76.0	143.0	-82	142	1
2.7	2015_May_22_1010	s	s	7	4	SIC	408	RC	2	0	02VD 02VO 09VC 02MD 02MO 02MC 02RD 02RO	1	0	0.999834775925	461.0	361.0	463	365	1
2.7	2015_May_22_1010	s	s	7	4	SIC	409	ABS	1	1	02VD 02VO 02VC 02MD 10MO 02MC 02RD 02RO	0	1	2.67823004723	None	None	None	None	1
2.7	2015_May_22_1010	s	s	7	4	SIC	410	RC	1	2	02VD 02VO 02VC 09MD 02MO 02MC 02RD 02RO	1	0	1.48243403435	-343.0	-223.0	-340	-229	1
2.7	2015_May_22_1010	s	s	7	4	SIC	411	RC	2	2	09VD 02VO 02VC 02MD 02MO 02MC 02RD 02RO	1	0	1.00725483894	-240.0	-64.0	-252	-63	1
2.7	2015_May_22_1010	s	s	7	4	SIC	412	ABS	2	0	02VD 02VO 10VC 02MD 02MO 02MC 02RD 02RO	0	1	1.17392301559	None	None	None	None	1
2.7	2015_May_22_1010	s	s	7	4	SIC	413	ABS	0	1	02VD 02VO 02VC 02MD 02MO 02MC 02RD 10RO	0	1	3.26840209961	None	None	None	None	1
2.7	2015_May_22_1010	s	s	7	4	SIC	414	ABS	1	0	02VD 02VO 02VC 02MD 02MO 10MC 02RD 02RO	0	1	2.59774684906	None	None	None	None	1
2.7	2015_May_22_1010	s	s	7	4	SIC	415	ABS	0	2	02VD 02VO 02VC 02MD 02MO 02MC 10RD 02RO	0	1	1.54789185524	None	None	None	None	1
2.7	2015_May_22_1010	s	s	7	4	SIC	416	ABS	1	2	02VD 02VO 02VC 10MD 02MO 02MC 02RD 02RO	0	1	1.21884298325	None	None	None	None	1
2.7	2015_May_22_1010	s	s	7	4	SIC	417	ABS	2	1	02VD 10VO 02VC 02MD 02MO 02MC 02RD 02RO	0	1	2.00075101852	None	None	None	None	1
2.7	2015_May_22_1010	s	s	7	4	SIC	418	RC	2	2	09VD 02VO 02VC 02MD 02MO 02MC 02RD 02RO	1	0	1.71328115463	503.0	34.0	506	28	1
2.7	2015_May_22_1010	s	s	7	4	SIC	419	RC	1	0	02VD 02VO 02VC 02MD 02MO 09MC 02RD 02RO	1	0	1.28246712685	364.0	-102.0	366	-96	1
2.7	2015_May_22_1010	s	s	7	4	SIC	420	ABS	0	1	02VD 02VO 02VC 02MD 02MO 02MC 02RD 10RO	0	1	3.33741903305	None	None	None	None	1
2.7	2015_May_22_1010	s	s	7	4	SIC	421	RC	2	1	02VD 09VO 02VC 02MD 02MO 02MC 02RD 02RO	1	0	0.811544895172	-409.0	344.0	-402	337	1
2.7	2015_May_22_1010	s	s	7	4	SIC	422	ABS	1	2	02VD 02VO 02VC 10MD 02MO 02MC 02RD 02RO	0	1	1.51759600639	None	None	None	None	1
2.7	2015_May_22_1010	s	s	7	4	SIC	423	RC	0	1	02VD 02VO 02VC 02MD 02MO 02MC 02RD 09RO	1	0	1.19995212555	-442.0	369.0	-448	375	1
2.7	2015_May_22_1010	s	s	7	4	SIC	424	ABS	1	1	02VD 02VO 02VC 02MD 10MO 02MC 02RD 02RO	0	1	2.57243108749	None	None	None	None	1
2.7	2015_May_22_1010	s	s	7	4	SIC	425	ABS	2	0	02VD 02VO 10VC 02MD 02MO 02MC 02RD 02RO	0	1	2.27809619904	None	None	None	None	1
2.7	2015_May_22_1010	s	s	7	4	SIC	426	ABS	0	2	02VD 02VO 02VC 02MD 02MO 02MC 10RD 02RO	0	1	1.71779608727	None	None	None	None	1
2.7	2015_May_22_1010	s	s	7	4	SIC	427	RC	1	1	02VD 02VO 02VC 02MD 09MO 02MC 02RD 02RO	1	0	1.2940120697	220.0	1.0	219	-7	1
2.7	2015_May_22_1010	s	s	7	4	SIC	428	RC	2	0	02VD 02VO 09VC 02MD 02MO 02MC 02RD 02RO	1	0	0.947934150696	70.0	109.0	69	115	1
2.7	2015_May_22_1010	s	s	7	4	SIC	429	ABS	1	0	02VD 02VO 02VC 02MD 02MO 10MC 02RD 02RO	0	1	3.00080704689	None	None	None	None	1
2.7	2015_May_22_1010	s	s	7	4	SIC	430	ABS	2	2	10VD 02VO 02VC 02MD 02MO 02MC 02RD 02RO	0	1	1.83134412766	None	None	None	None	1
2.7	2015_May_22_1010	s	s	7	4	SIC	431	RC	1	2	02VD 02VO 02VC 09MD 02MO 02MC 02RD 02RO	1	0	0.994974136353	417.0	377.0	417	379	1
2.7	2015_May_22_1010	s	s	7	4	SIC	432	RC	0	2	02VD 02VO 02VC 02MD 02MO 02MC 09RD 02RO	1	0	0.858618974686	341.0	64.0	339	74	1
2.7	2015_May_22_1010	s	s	7	4	SIC	433	ABS	2	0	02VD 02VO 10VC 02MD 02MO 02MC 02RD 02RO	0	1	1.55293297768	None	None	None	None	1
2.7	2015_May_22_1010	s	s	7	4	SIC	434	ABS	1	0	02VD 02VO 02VC 02MD 02MO 10MC 02RD 02RO	0	1	3.20134091377	None	None	None	None	1
2.7	2015_May_22_1010	s	s	7	4	SIC	435	RC	1	1	02VD 02VO 02VC 02MD 09MO 02MC 02RD 02RO	0	1	4.14983296394	362.0	197.0	None	None	0
2.7	2015_May_22_1010	s	s	7	4	SIC	436	ABS	0	2	02VD 02VO 02VC 02MD 02MO 02MC 10RD 02RO	0	1	1.98926377296	None	None	None	None	1
2.7	2015_May_22_1010	s	s	7	4	SIC	437	ABS	0	1	02VD 02VO 02VC 02MD 02MO 02MC 02RD 10RO	0	1	2.49513101578	None	None	None	None	1
2.7	2015_May_22_1010	s	s	7	4	SIC	438	RC	2	1	02VD 09VO 02VC 02MD 02MO 02MC 02RD 02RO	1	0	1.18824291229	-162.0	-379.0	-162	-385	1
2.7	2015_May_22_1010	s	s	7	4	SIC	439	RC	1	0	02VD 02VO 02VC 02MD 02MO 09MC 02RD 02RO	0	1	2.41228199005	-363.0	112.0	None	None	0
2.7	2015_May_22_1010	s	s	7	4	SIC	440	ABS	1	2	02VD 02VO 02VC 10MD 02MO 02MC 02RD 02RO	0	1	1.94154191017	None	None	None	None	1
2.7	2015_May_22_1010	s	s	7	4	SIC	441	RC	2	2	09VD 02VO 02VC 02MD 02MO 02MC 02RD 02RO	1	0	2.44761896133	516.0	-100.0	510	-105	1
2.7	2015_May_22_1010	s	s	7	4	SIC	442	ABS	1	1	02VD 02VO 02VC 02MD 10MO 02MC 02RD 02RO	0	1	3.11872386932	None	None	None	None	1
2.7	2015_May_22_1010	s	s	7	4	SIC	443	RC	0	2	02VD 02VO 02VC 02MD 02MO 02MC 09RD 02RO	1	0	0.959633827209	-476.0	-91.0	-474	-95	1
2.7	2015_May_22_1010	s	s	7	4	SIC	444	ABS	2	2	10VD 02VO 02VC 02MD 02MO 02MC 02RD 02RO	0	1	1.97684693336	None	None	None	None	1
2.7	2015_May_22_1010	s	s	7	4	SIC	445	RC	2	0	02VD 02VO 09VC 02MD 02MO 02MC 02RD 02RO	1	0	1.07044696808	-107.0	-48.0	-117	-40	1
2.7	2015_May_22_1010	s	s	7	4	SIC	446	RC	0	1	02VD 02VO 02VC 02MD 02MO 02MC 02RD 09RO	1	0	1.54132390022	-164.0	375.0	-170	379	1
2.7	2015_May_22_1010	s	s	7	4	SIC	447	RC	1	2	02VD 02VO 02VC 09MD 02MO 02MC 02RD 02RO	1	0	0.830169916153	25.0	122.0	27	119	1
2.7	2015_May_22_1010	s	s	7	4	SIC	448	ABS	2	1	02VD 10VO 02VC 02MD 02MO 02MC 02RD 02RO	0	1	1.97682285309	None	None	None	None	1
2.7	2015_May_22_1010	s	s	7	4	SIC	449	ABS	2	1	02VD 10VO 02VC 02MD 02MO 02MC 02RD 02RO	0	1	1.58341598511	None	None	None	None	1
2.7	2015_May_22_1010	s	s	7	4	SIC	450	ABS	2	2	10VD 02VO 02VC 02MD 02MO 02MC 02RD 02RO	0	1	2.27107310295	None	None	None	None	1
2.7	2015_May_22_1010	s	s	7	4	SIC	451	RC	2	2	09VD 02VO 02VC 02MD 02MO 02MC 02RD 02RO	1	0	0.96461892128	-260.0	-99.0	-257	-98	1
2.7	2015_May_22_1010	s	s	7	4	SIC	452	ABS	1	1	02VD 02VO 02VC 02MD 10MO 02MC 02RD 02RO	0	1	2.66649603844	None	None	None	None	1
2.7	2015_May_22_1010	s	s	7	4	SIC	453	ABS	0	2	02VD 02VO 02VC 02MD 02MO 02MC 10RD 02RO	0	1	1.82382202148	None	None	None	None	1
2.7	2015_May_22_1010	s	s	7	4	SIC	454	RC	2	0	02VD 02VO 09VC 02MD 02MO 02MC 02RD 02RO	0	1	1.48937606812	283.0	121.0	None	None	0
2.7	2015_May_22_1010	s	s	7	4	SIC	455	ABS	0	1	02VD 02VO 02VC 02MD 02MO 02MC 02RD 10RO	0	1	2.89006209373	None	None	None	None	1
2.7	2015_May_22_1010	s	s	7	4	SIC	456	RC	2	1	02VD 09VO 02VC 02MD 02MO 02MC 02RD 02RO	1	0	1.84728717804	-476.0	-179.0	-468	-182	1
2.7	2015_May_22_1010	s	s	7	4	SIC	457	ABS	2	0	02VD 02VO 10VC 02MD 02MO 02MC 02RD 02RO	0	1	1.90132403374	None	None	None	None	1
2.7	2015_May_22_1010	s	s	7	4	SIC	458	RC	1	0	02VD 02VO 02VC 02MD 02MO 09MC 02RD 02RO	1	0	1.25884199142	-384.0	-281.0	-387	-282	1
2.7	2015_May_22_1010	s	s	7	4	SIC	459	RC	1	1	02VD 02VO 02VC 02MD 09MO 02MC 02RD 02RO	1	0	1.27746987343	49.0	-287.0	53	-288	1
2.7	2015_May_22_1010	s	s	7	4	SIC	460	RC	0	1	02VD 02VO 02VC 02MD 02MO 02MC 02RD 09RO	1	0	2.43276381493	248.0	-104.0	250	-102	1
2.7	2015_May_22_1010	s	s	7	4	SIC	461	ABS	1	2	02VD 02VO 02VC 10MD 02MO 02MC 02RD 02RO	0	1	1.54123210907	None	None	None	None	1
2.7	2015_May_22_1010	s	s	7	4	SIC	462	RC	0	2	02VD 02VO 02VC 02MD 02MO 02MC 09RD 02RO	1	0	2.03568696976	473.0	-208.0	470	-210	1
2.7	2015_May_22_1010	s	s	7	4	SIC	463	ABS	1	0	02VD 02VO 02VC 02MD 02MO 10MC 02RD 02RO	0	1	2.03115701675	None	None	None	None	1
2.7	2015_May_22_1010	s	s	7	4	SIC	464	RC	1	2	02VD 02VO 02VC 09MD 02MO 02MC 02RD 02RO	1	0	0.952796936035	-212.0	-176.0	-214	-180	1
2.7	2015_May_22_1010	s	s	7	4	SIC	465	ABS	0	1	02VD 02VO 02VC 02MD 02MO 02MC 02RD 10RO	0	1	3.47862792015	None	None	None	None	1
2.7	2015_May_22_1010	s	s	7	4	SIC	466	ABS	2	1	02VD 10VO 02VC 02MD 02MO 02MC 02RD 02RO	0	1	1.64725804329	None	None	None	None	1
2.7	2015_May_22_1010	s	s	7	4	SIC	467	RC	2	0	02VD 02VO 09VC 02MD 02MO 02MC 02RD 02RO	1	0	1.21868681908	-51.0	-173.0	-51	-169	1
2.7	2015_May_22_1010	s	s	7	4	SIC	468	ABS	1	1	02VD 02VO 02VC 02MD 10MO 02MC 02RD 02RO	0	1	3.43636202812	None	None	None	None	1
2.7	2015_May_22_1010	s	s	7	4	SIC	469	ABS	2	0	02VD 02VO 10VC 02MD 02MO 02MC 02RD 02RO	0	1	1.92178201675	None	None	None	None	1
2.7	2015_May_22_1010	s	s	7	4	SIC	470	RC	0	1	02VD 02VO 02VC 02MD 02MO 02MC 02RD 09RO	1	0	1.44717097282	9.0	-83.0	7	-87	1
2.7	2015_May_22_1010	s	s	7	4	SIC	471	ABS	1	0	02VD 02VO 02VC 02MD 02MO 10MC 02RD 02RO	0	1	2.03565502167	None	None	None	None	1
2.7	2015_May_22_1010	s	s	7	4	SIC	472	ABS	2	2	10VD 02VO 02VC 02MD 02MO 02MC 02RD 02RO	0	1	1.48239779472	None	None	None	None	1
2.7	2015_May_22_1010	s	s	7	4	SIC	473	RC	1	0	02VD 02VO 02VC 02MD 02MO 09MC 02RD 02RO	1	0	1.38832497597	447.0	80.0	455	83	1
2.7	2015_May_22_1010	s	s	7	4	SIC	474	RC	2	2	09VD 02VO 02VC 02MD 02MO 02MC 02RD 02RO	1	0	2.01214408875	286.0	-262.0	286	-261	1
2.7	2015_May_22_1010	s	s	7	4	SIC	475	RC	2	1	02VD 09VO 02VC 02MD 02MO 02MC 02RD 02RO	1	0	1.91825389862	-153.0	-146.0	-157	-141	1
2.7	2015_May_22_1010	s	s	7	4	SIC	476	ABS	0	2	02VD 02VO 02VC 02MD 02MO 02MC 10RD 02RO	0	1	2.12471389771	None	None	None	None	1
2.7	2015_May_22_1010	s	s	7	4	SIC	477	RC	1	2	02VD 02VO 02VC 09MD 02MO 02MC 02RD 02RO	1	0	0.905549049377	-247.0	262.0	-250	254	1
2.7	2015_May_22_1010	s	s	7	4	SIC	478	ABS	1	2	02VD 02VO 02VC 10MD 02MO 02MC 02RD 02RO	0	1	2.03186917305	None	None	None	None	1
2.7	2015_May_22_1010	s	s	7	4	SIC	479	RC	0	2	02VD 02VO 02VC 02MD 02MO 02MC 09RD 02RO	1	0	1.55310487747	224.0	-250.0	222	-257	1
2.7	2015_May_22_1010	s	s	7	4	SIC	480	RC	1	1	02VD 02VO 02VC 02MD 09MO 02MC 02RD 02RO	1	0	0.818546056747	-418.0	-28.0	-414	-29	1
