Version	Date	Stimuli	Method	Subject	Session	Condition	Trial	Target	Channel1	Channel2	Distractors	LMouseButton	RMouseButton	RT	TargetX	TargetY	ResponseX	ResponseY	Correct
2.7	2015_May_21_1320	s	s	7	2	Capacity	1	RC	0	1	08RD 15RO	1	0	1.98369288445	-29.0	-312.0	-26	-303	1
2.7	2015_May_21_1320	s	s	7	2	Capacity	2	RC	0	2	15RD 08RO	1	0	3.05490589142	525.0	-24.0	526	-21	1
2.7	2015_May_21_1320	s	s	7	2	Capacity	3	ABS	0	1	08RD 16RO	0	1	4.97866201401	None	None	None	None	1
2.7	2015_May_21_1320	s	s	7	2	Capacity	4	ABS	0	2	16RD 08RO	0	1	3.19586205482	None	None	None	None	1
2.7	2015_May_21_1320	s	s	7	2	Capacity	5	ABS	0	2	16RD 08RO	0	1	3.05969500542	None	None	None	None	1
2.7	2015_May_21_1320	s	s	7	2	Capacity	6	RC	0	2	15RD 08RO	1	0	1.85111904144	213.0	349.0	220	342	1
2.7	2015_May_21_1320	s	s	7	2	Capacity	7	ABS	0	1	08RD 16RO	0	1	6.54081296921	None	None	None	None	1
2.7	2015_May_21_1320	s	s	7	2	Capacity	8	RC	0	1	08RD 15RO	1	0	1.65567398071	-312.0	73.0	-309	67	1
2.7	2015_May_21_1320	s	s	7	2	Capacity	9	RC	0	2	15RD 08RO	1	0	2.64306211472	-298.0	-211.0	-305	-212	1
2.7	2015_May_21_1320	s	s	7	2	Capacity	10	ABS	0	2	16RD 08RO	0	1	3.83659601212	None	None	None	None	1
2.7	2015_May_21_1320	s	s	7	2	Capacity	11	ABS	0	1	08RD 16RO	0	1	5.88458704948	None	None	None	None	1
2.7	2015_May_21_1320	s	s	7	2	Capacity	12	RC	0	1	08RD 15RO	1	0	5.07244706154	97.0	112.0	98	111	1
2.7	2015_May_21_1320	s	s	7	2	Capacity	13	RC	0	2	15RD 08RO	1	0	5.08099198341	-446.0	-187.0	-447	-192	1
2.7	2015_May_21_1320	s	s	7	2	Capacity	14	ABS	0	1	08RD 16RO	0	1	6.60910606384	None	None	None	None	1
2.7	2015_May_21_1320	s	s	7	2	Capacity	15	ABS	0	2	16RD 08RO	0	1	4.58509206772	None	None	None	None	1
2.7	2015_May_21_1320	s	s	7	2	Capacity	16	RC	0	1	08RD 15RO	1	0	3.04294109344	-438.0	-261.0	-441	-263	1
2.7	2015_May_21_1320	s	s	7	2	Capacity	17	RC	0	1	08RD 15RO	0	1	8.45742511749	-416.0	168.0	None	None	0
2.7	2015_May_21_1320	s	s	7	2	Capacity	18	ABS	0	2	16RD 08RO	0	1	3.07148814201	None	None	None	None	1
2.7	2015_May_21_1320	s	s	7	2	Capacity	19	RC	0	2	15RD 08RO	1	0	1.98586797714	220.0	-177.0	224	-183	1
2.7	2015_May_21_1320	s	s	7	2	Capacity	20	ABS	0	1	08RD 16RO	0	1	5.64924001694	None	None	None	None	1
2.7	2015_May_21_1320	s	s	7	2	Capacity	21	RC	0	2	15RD 08RO	1	0	1.72427487373	238.0	95.0	237	84	1
2.7	2015_May_21_1320	s	s	7	2	Capacity	22	ABS	0	1	08RD 16RO	0	1	4.58487200737	None	None	None	None	1
2.7	2015_May_21_1320	s	s	7	2	Capacity	23	ABS	0	2	16RD 08RO	0	1	4.61385178566	None	None	None	None	1
2.7	2015_May_21_1320	s	s	7	2	Capacity	24	RC	0	1	08RD 15RO	1	0	1.97674894333	-435.0	-236.0	-424	-227	1
2.7	2015_May_21_1320	s	s	7	2	Capacity	25	RC	0	2	15RD 08RO	1	0	1.45224189758	-22.0	147.0	-22	137	1
2.7	2015_May_21_1320	s	s	7	2	Capacity	26	ABS	0	2	16RD 08RO	0	1	4.16992402077	None	None	None	None	1
2.7	2015_May_21_1320	s	s	7	2	Capacity	27	ABS	0	1	08RD 16RO	0	1	5.44414019585	None	None	None	None	1
2.7	2015_May_21_1320	s	s	7	2	Capacity	28	RC	0	1	08RD 15RO	1	0	1.04214596748	-309.0	345.0	-315	338	1
2.7	2015_May_21_1320	s	s	7	2	Capacity	29	ABS	0	1	08RD 16RO	0	1	4.65318489075	None	None	None	None	1
2.7	2015_May_21_1320	s	s	7	2	Capacity	30	RC	0	1	08RD 15RO	1	0	2.4568939209	379.0	-187.0	383	-187	1
2.7	2015_May_21_1320	s	s	7	2	Capacity	31	ABS	0	2	16RD 08RO	0	1	2.96072602272	None	None	None	None	1
2.7	2015_May_21_1320	s	s	7	2	Capacity	32	RC	0	2	15RD 08RO	1	0	3.58439898491	-69.0	376.0	-72	372	1
2.7	2015_May_21_1320	s	s	7	2	Capacity	33	ABS	0	1	08RD 16RO	0	1	5.87862801552	None	None	None	None	1
2.7	2015_May_21_1320	s	s	7	2	Capacity	34	ABS	0	2	16RD 08RO	0	1	4.46042704582	None	None	None	None	1
2.7	2015_May_21_1320	s	s	7	2	Capacity	35	RC	0	1	08RD 15RO	1	0	5.00181818008	-214.0	71.0	-219	65	1
2.7	2015_May_21_1320	s	s	7	2	Capacity	36	RC	0	2	15RD 08RO	1	0	4.9429898262	-420.0	-327.0	-422	-323	1
2.7	2015_May_21_1320	s	s	7	2	Capacity	37	RC	0	1	08RD 15RO	1	0	5.02539110184	182.0	220.0	182	215	1
2.7	2015_May_21_1320	s	s	7	2	Capacity	38	RC	0	2	15RD 08RO	1	0	2.75372600555	274.0	138.0	282	136	1
2.7	2015_May_21_1320	s	s	7	2	Capacity	39	ABS	0	2	16RD 08RO	0	1	3.78467607498	None	None	None	None	1
2.7	2015_May_21_1320	s	s	7	2	Capacity	40	ABS	0	1	08RD 16RO	0	1	6.55064201355	None	None	None	None	1
2.7	2015_May_21_1320	s	s	7	2	Capacity	41	RC	0	1	08RD 15RO	1	0	3.24795985222	405.0	250.0	408	247	1
2.7	2015_May_21_1320	s	s	7	2	Capacity	42	RC	0	2	15RD 08RO	1	0	2.03051018715	359.0	-262.0	367	-265	1
2.7	2015_May_21_1320	s	s	7	2	Capacity	43	ABS	0	1	08RD 16RO	0	1	5.5786588192	None	None	None	None	1
2.7	2015_May_21_1320	s	s	7	2	Capacity	44	ABS	0	2	16RD 08RO	0	1	5.39402699471	None	None	None	None	1
2.7	2015_May_21_1320	s	s	7	2	Capacity	45	RC	0	2	15RD 08RO	1	0	2.61933684349	353.0	-79.0	354	-77	1
2.7	2015_May_21_1320	s	s	7	2	Capacity	46	ABS	0	2	16RD 08RO	0	1	7.6738049984	None	None	None	None	1
2.7	2015_May_21_1320	s	s	7	2	Capacity	47	ABS	0	1	08RD 16RO	0	1	5.59714794159	None	None	None	None	1
2.7	2015_May_21_1320	s	s	7	2	Capacity	48	RC	0	1	08RD 15RO	1	0	3.70772314072	214.0	78.0	218	82	1
2.7	2015_May_21_1320	s	s	7	2	Capacity	49	RC	0	2	15RD 08RO	1	0	2.50159788132	486.0	-304.0	486	-309	1
2.7	2015_May_21_1320	s	s	7	2	Capacity	50	RC	0	1	08RD 15RO	1	0	1.6471991539	-42.0	-95.0	-37	-91	1
2.7	2015_May_21_1320	s	s	7	2	Capacity	51	ABS	0	1	08RD 16RO	0	1	8.12091708183	None	None	None	None	1
2.7	2015_May_21_1320	s	s	7	2	Capacity	52	ABS	0	2	16RD 08RO	0	1	3.38927388191	None	None	None	None	1
2.7	2015_May_21_1320	s	s	7	2	Capacity	53	RC	0	2	15RD 08RO	1	0	0.971547842026	-335.0	-138.0	-340	-134	1
2.7	2015_May_21_1320	s	s	7	2	Capacity	54	RC	0	1	08RD 15RO	1	0	12.0798401833	-411.0	-397.0	-399	-395	1
2.7	2015_May_21_1320	s	s	7	2	Capacity	55	ABS	0	2	16RD 08RO	0	1	7.56784415245	None	None	None	None	1
2.7	2015_May_21_1320	s	s	7	2	Capacity	56	ABS	0	1	08RD 16RO	0	1	7.39505386353	None	None	None	None	1
2.7	2015_May_21_1320	s	s	7	2	Capacity	57	ABS	0	2	16RD 08RO	0	1	14.8357720375	None	None	None	None	1
2.7	2015_May_21_1320	s	s	7	2	Capacity	58	RC	0	1	08RD 15RO	1	0	6.71598696709	446.0	263.0	447	261	1
2.7	2015_May_21_1320	s	s	7	2	Capacity	59	ABS	0	1	08RD 16RO	0	1	8.17986083031	None	None	None	None	1
2.7	2015_May_21_1320	s	s	7	2	Capacity	60	RC	0	2	15RD 08RO	1	0	6.10875701904	-129.0	407.0	-131	411	1
2.7	2015_May_21_1320	s	s	7	2	Capacity	61	RC	0	1	08RD 15RO	1	0	6.56502008438	-493.0	5.0	-492	5	1
2.7	2015_May_21_1320	s	s	7	2	Capacity	62	RC	0	2	15RD 08RO	1	0	0.8885679245	-401.0	222.0	-398	216	1
2.7	2015_May_21_1320	s	s	7	2	Capacity	63	ABS	0	2	16RD 08RO	0	1	4.04847812653	None	None	None	None	1
2.7	2015_May_21_1320	s	s	7	2	Capacity	64	ABS	0	1	08RD 16RO	0	1	9.86309289932	None	None	None	None	1
2.7	2015_May_21_1320	s	s	7	2	Capacity	1	RC	1	0	08VC 15MC	1	0	6.72691202164	249.0	-386.0	-270	-328	0
2.7	2015_May_21_1320	s	s	7	2	Capacity	2	RC	2	0	15VC 08MC	1	0	5.66100406647	-364.0	201.0	-142	-27	0
2.7	2015_May_21_1320	s	s	7	2	Capacity	3	ABS	2	0	16VC 08MC	1	0	3.73445916176	None	None	451	-52	0
2.7	2015_May_21_1320	s	s	7	2	Capacity	4	ABS	1	0	08VC 16MC	1	0	4.91453099251	None	None	-122	-183	0
2.7	2015_May_21_1320	s	s	7	2	Capacity	5	ABS	2	0	16VC 08MC	1	0	6.73897504807	None	None	490	-151	0
2.7	2015_May_21_1320	s	s	7	2	Capacity	6	RC	2	0	15VC 08MC	1	0	3.85626101494	162.0	239.0	-8	-64	0
2.7	2015_May_21_1320	s	s	7	2	Capacity	7	RC	1	0	08VC 15MC	0	1	5.59029603004	-422.0	-186.0	None	None	0
2.7	2015_May_21_1320	s	s	7	2	Capacity	8	ABS	1	0	08VC 16MC	0	0	-1	None	None	None	None	-1
2.7	2015_May_21_1320	s	s	7	2	Capacity	9	RC	1	0	08VC 15MC	1	0	5.04655098915	-210.0	-313.0	-62	-132	0
2.7	2015_May_21_1320	s	s	7	2	Capacity	10	ABS	2	0	16VC 08MC	0	1	2.96037006378	None	None	None	None	1
2.7	2015_May_21_1320	s	s	7	2	Capacity	11	RC	2	0	15VC 08MC	0	1	2.57261681557	-415.0	-330.0	None	None	0
2.7	2015_May_21_1320	s	s	7	2	Capacity	12	ABS	1	0	08VC 16MC	1	0	9.46290493011	None	None	499	-395	0
2.7	2015_May_21_1320	s	s	7	2	Capacity	13	ABS	1	0	08VC 16MC	1	0	4.361317873	None	None	-294	352	0
2.7	2015_May_21_1320	s	s	7	2	Capacity	14	RC	2	0	15VC 08MC	0	1	11.5525128841	-42.0	240.0	None	None	0
2.7	2015_May_21_1320	s	s	7	2	Capacity	15	RC	1	0	08VC 15MC	0	1	11.1343610287	-2.0	190.0	None	None	0
2.7	2015_May_21_1320	s	s	7	2	Capacity	16	ABS	2	0	16VC 08MC	1	0	5.21141505241	None	None	307	64	0
2.7	2015_May_21_1320	s	s	7	2	Capacity	17	ABS	1	0	08VC 16MC	0	1	13.0597968102	None	None	None	None	1
2.7	2015_May_21_1320	s	s	7	2	Capacity	18	RC	2	0	15VC 08MC	1	0	2.13633799553	316.0	354.0	308	349	1
2.7	2015_May_21_1320	s	s	7	2	Capacity	19	RC	1	0	08VC 15MC	1	0	11.0251920223	-233.0	272.0	170	-17	0
2.7	2015_May_21_1320	s	s	7	2	Capacity	20	ABS	2	0	16VC 08MC	1	0	3.44599795341	None	None	91	-349	0
2.7	2015_May_21_1320	s	s	7	2	Capacity	21	ABS	2	0	16VC 08MC	1	0	3.98462700844	None	None	273	15	0
2.7	2015_May_21_1320	s	s	7	2	Capacity	22	RC	1	0	08VC 15MC	1	0	7.03814792633	233.0	161.0	-454	19	0
2.7	2015_May_21_1320	s	s	7	2	Capacity	23	RC	2	0	15VC 08MC	1	0	6.68493700027	-325.0	150.0	-328	158	1
2.7	2015_May_21_1320	s	s	7	2	Capacity	24	ABS	1	0	08VC 16MC	1	0	6.47988891602	None	None	430	-110	0
2.7	2015_May_21_1320	s	s	7	2	Capacity	25	RC	2	0	15VC 08MC	1	0	13.6178719997	-499.0	-106.0	-30	23	0
2.7	2015_May_21_1320	s	s	7	2	Capacity	26	ABS	2	0	16VC 08MC	1	0	1.38316488266	None	None	392	-197	0
2.7	2015_May_21_1320	s	s	7	2	Capacity	27	ABS	1	0	08VC 16MC	1	0	2.70230793953	None	None	-489	-174	0
2.7	2015_May_21_1320	s	s	7	2	Capacity	28	RC	1	0	08VC 15MC	1	0	8.15406107903	-526.0	-362.0	-16	-316	0
2.7	2015_May_21_1320	s	s	7	2	Capacity	29	ABS	2	0	16VC 08MC	1	0	17.7258849144	None	None	-288	119	0
2.7	2015_May_21_1320	s	s	7	2	Capacity	30	RC	2	0	15VC 08MC	1	0	3.88368296623	-516.0	118.0	313	222	0
2.7	2015_May_21_1320	s	s	7	2	Capacity	31	ABS	1	0	08VC 16MC	1	0	5.10284996033	None	None	-350	-134	0
2.7	2015_May_21_1320	s	s	7	2	Capacity	32	RC	1	0	08VC 15MC	1	0	3.73064398766	-104.0	-240.0	-109	-247	1
2.7	2015_May_21_1320	s	s	7	2	Capacity	33	RC	1	0	08VC 15MC	1	0	9.29813313484	169.0	-317.0	173	-326	1
2.7	2015_May_21_1320	s	s	7	2	Capacity	34	RC	2	0	15VC 08MC	1	0	3.04249286652	-324.0	6.0	242	201	0
2.7	2015_May_21_1320	s	s	7	2	Capacity	35	ABS	2	0	16VC 08MC	1	0	8.31632590294	None	None	507	254	0
2.7	2015_May_21_1320	s	s	7	2	Capacity	36	ABS	1	0	08VC 16MC	1	0	3.40632414818	None	None	463	-302	0
2.7	2015_May_21_1320	s	s	7	2	Capacity	37	RC	1	0	08VC 15MC	1	0	13.8533198833	434.0	113.0	431	107	1
2.7	2015_May_21_1320	s	s	7	2	Capacity	38	ABS	2	0	16VC 08MC	1	0	5.13135814667	None	None	-4	-133	0
2.7	2015_May_21_1320	s	s	7	2	Capacity	39	RC	2	0	15VC 08MC	1	0	9.78074407578	0.0	73.0	-97	-53	0
2.7	2015_May_21_1320	s	s	7	2	Capacity	40	ABS	1	0	08VC 16MC	1	0	3.45988082886	None	None	-127	-193	0
2.7	2015_May_21_1320	s	s	7	2	Capacity	41	RC	1	0	08VC 15MC	1	0	10.5655040741	-26.0	-110.0	451	-319	0
2.7	2015_May_21_1320	s	s	7	2	Capacity	42	ABS	2	0	16VC 08MC	0	1	4.38377690315	None	None	None	None	1
2.7	2015_May_21_1320	s	s	7	2	Capacity	43	ABS	1	0	08VC 16MC	1	0	4.22044110298	None	None	-88	-48	0
2.7	2015_May_21_1320	s	s	7	2	Capacity	44	RC	2	0	15VC 08MC	1	0	2.95082306862	-512.0	304.0	64	-108	0
2.7	2015_May_21_1320	s	s	7	2	Capacity	45	ABS	2	0	16VC 08MC	1	0	2.20040297508	None	None	107	-83	0
2.7	2015_May_21_1320	s	s	7	2	Capacity	46	RC	1	0	08VC 15MC	1	0	4.44064593315	-207.0	49.0	-510	-212	0
2.7	2015_May_21_1320	s	s	7	2	Capacity	47	ABS	1	0	08VC 16MC	0	1	4.40153098106	None	None	None	None	1
2.7	2015_May_21_1320	s	s	7	2	Capacity	48	RC	2	0	15VC 08MC	1	0	1.3480219841	303.0	-24.0	-219	-43	0
2.7	2015_May_21_1320	s	s	7	2	Capacity	49	RC	2	0	15VC 08MC	0	1	4.37308287621	188.0	159.0	None	None	0
2.7	2015_May_21_1320	s	s	7	2	Capacity	50	ABS	2	0	16VC 08MC	0	1	6.59089303017	None	None	None	None	1
2.7	2015_May_21_1320	s	s	7	2	Capacity	51	ABS	1	0	08VC 16MC	0	1	11.8405468464	None	None	None	None	1
2.7	2015_May_21_1320	s	s	7	2	Capacity	52	RC	1	0	08VC 15MC	0	1	17.793102026	-185.0	163.0	None	None	0
2.7	2015_May_21_1320	s	s	7	2	Capacity	53	RC	2	0	15VC 08MC	0	1	3.33042693138	-131.0	203.0	None	None	0
2.7	2015_May_21_1320	s	s	7	2	Capacity	54	ABS	2	0	16VC 08MC	1	0	1.33642601967	None	None	311	130	0
2.7	2015_May_21_1320	s	s	7	2	Capacity	55	ABS	1	0	08VC 16MC	1	0	2.23333191872	None	None	261	-374	0
2.7	2015_May_21_1320	s	s	7	2	Capacity	56	RC	1	0	08VC 15MC	1	0	6.2093501091	-467.0	139.0	259	-382	0
2.7	2015_May_21_1320	s	s	7	2	Capacity	57	RC	1	0	08VC 15MC	1	0	5.43265509605	-26.0	87.0	-109	-379	0
2.7	2015_May_21_1320	s	s	7	2	Capacity	58	ABS	1	0	08VC 16MC	1	0	2.00722312927	None	None	239	-319	0
2.7	2015_May_21_1320	s	s	7	2	Capacity	59	ABS	2	0	16VC 08MC	1	0	1.8946390152	None	None	139	98	0
2.7	2015_May_21_1320	s	s	7	2	Capacity	60	RC	2	0	15VC 08MC	1	0	2.18869495392	-453.0	292.0	-422	190	0
2.7	2015_May_21_1320	s	s	7	2	Capacity	61	ABS	1	0	08VC 16MC	1	0	2.28970098495	None	None	-217	-285	0
2.7	2015_May_21_1320	s	s	7	2	Capacity	62	RC	2	0	15VC 08MC	1	0	3.45991492271	465.0	-64.0	-518	118	0
2.7	2015_May_21_1320	s	s	7	2	Capacity	63	ABS	2	0	16VC 08MC	1	0	7.0970480442	None	None	-408	-277	0
2.7	2015_May_21_1320	s	s	7	2	Capacity	64	RC	1	0	08VC 15MC	1	0	5.19397592545	254.0	100.0	-398	-322	0
2.7	2015_May_21_1320	s	s	7	2	SIC	1	RC	1	2	02VD 02VO 02VC 09MD 02MO 02MC 02RD 02RO	1	0	3.6363799572	530.0	118.0	533	117	1
2.7	2015_May_21_1320	s	s	7	2	SIC	2	RC	1	1	02VD 02VO 02VC 02MD 09MO 02MC 02RD 02RO	1	0	6.50519800186	39.0	-227.0	-76	-139	0
2.7	2015_May_21_1320	s	s	7	2	SIC	3	ABS	2	2	10VD 02VO 02VC 02MD 02MO 02MC 02RD 02RO	1	0	4.11557507515	None	None	534	-15	0
2.7	2015_May_21_1320	s	s	7	2	SIC	4	ABS	1	2	02VD 02VO 02VC 10MD 02MO 02MC 02RD 02RO	1	0	2.93017196655	None	None	296	-176	0
2.7	2015_May_21_1320	s	s	7	2	SIC	5	ABS	1	1	02VD 02VO 02VC 02MD 10MO 02MC 02RD 02RO	1	0	1.14147782326	None	None	-53	69	0
2.7	2015_May_21_1320	s	s	7	2	SIC	6	RC	0	1	02VD 02VO 02VC 02MD 02MO 02MC 02RD 09RO	1	0	7.50408196449	482.0	72.0	487	71	1
2.7	2015_May_21_1320	s	s	7	2	SIC	7	RC	1	0	02VD 02VO 02VC 02MD 02MO 09MC 02RD 02RO	1	0	3.85692715645	-457.0	-289.0	-456	-297	1
2.7	2015_May_21_1320	s	s	7	2	SIC	8	ABS	0	1	02VD 02VO 02VC 02MD 02MO 02MC 02RD 10RO	1	0	6.76730513573	None	None	-490	-264	0
2.7	2015_May_21_1320	s	s	7	2	SIC	9	RC	0	2	02VD 02VO 02VC 02MD 02MO 02MC 09RD 02RO	1	0	2.89494609833	378.0	101.0	375	102	1
2.7	2015_May_21_1320	s	s	7	2	SIC	10	ABS	0	2	02VD 02VO 02VC 02MD 02MO 02MC 10RD 02RO	1	0	3.23323607445	None	None	357	-355	0
2.7	2015_May_21_1320	s	s	7	2	SIC	11	ABS	2	1	02VD 10VO 02VC 02MD 02MO 02MC 02RD 02RO	1	0	3.03130984306	None	None	-90	162	0
2.7	2015_May_21_1320	s	s	7	2	SIC	12	ABS	2	0	02VD 02VO 10VC 02MD 02MO 02MC 02RD 02RO	1	0	3.57291889191	None	None	340	-310	0
2.7	2015_May_21_1320	s	s	7	2	SIC	13	RC	2	1	02VD 09VO 02VC 02MD 02MO 02MC 02RD 02RO	0	1	4.68403887749	-398.0	-184.0	None	None	0
2.7	2015_May_21_1320	s	s	7	2	SIC	14	RC	2	0	02VD 02VO 09VC 02MD 02MO 02MC 02RD 02RO	1	0	6.89433598518	447.0	183.0	452	180	1
2.7	2015_May_21_1320	s	s	7	2	SIC	15	RC	2	2	09VD 02VO 02VC 02MD 02MO 02MC 02RD 02RO	1	0	4.3730738163	410.0	-209.0	403	-214	1
2.7	2015_May_21_1320	s	s	7	2	SIC	16	ABS	1	0	02VD 02VO 02VC 02MD 02MO 10MC 02RD 02RO	1	0	6.31498789787	None	None	95	-189	0
2.7	2015_May_21_1320	s	s	7	2	SIC	17	RC	1	1	02VD 02VO 02VC 02MD 09MO 02MC 02RD 02RO	1	0	8.78018712997	16.0	-217.0	18	-213	1
2.7	2015_May_21_1320	s	s	7	2	SIC	18	RC	2	2	09VD 02VO 02VC 02MD 02MO 02MC 02RD 02RO	0	1	7.90421104431	435.0	363.0	None	None	0
2.7	2015_May_21_1320	s	s	7	2	SIC	19	RC	2	0	02VD 02VO 09VC 02MD 02MO 02MC 02RD 02RO	1	0	3.66685700417	-526.0	-330.0	-23	151	0
2.7	2015_May_21_1320	s	s	7	2	SIC	20	ABS	1	2	02VD 02VO 02VC 10MD 02MO 02MC 02RD 02RO	0	1	3.30114603043	None	None	None	None	1
2.7	2015_May_21_1320	s	s	7	2	SIC	21	RC	1	2	02VD 02VO 02VC 09MD 02MO 02MC 02RD 02RO	1	0	5.59720897675	345.0	-24.0	-107	58	0
2.7	2015_May_21_1320	s	s	7	2	SIC	22	ABS	2	2	10VD 02VO 02VC 02MD 02MO 02MC 02RD 02RO	1	0	3.62240409851	None	None	303	-103	0
2.7	2015_May_21_1320	s	s	7	2	SIC	23	RC	1	0	02VD 02VO 02VC 02MD 02MO 09MC 02RD 02RO	1	0	6.28009796143	-516.0	158.0	7	-95	0
2.7	2015_May_21_1320	s	s	7	2	SIC	24	ABS	0	2	02VD 02VO 02VC 02MD 02MO 02MC 10RD 02RO	0	1	5.57862687111	None	None	None	None	1
2.7	2015_May_21_1320	s	s	7	2	SIC	25	ABS	1	0	02VD 02VO 02VC 02MD 02MO 10MC 02RD 02RO	1	0	8.52772283554	None	None	521	388	0
2.7	2015_May_21_1320	s	s	7	2	SIC	26	RC	2	1	02VD 09VO 02VC 02MD 02MO 02MC 02RD 02RO	1	0	4.30731797218	-62.0	-325.0	-59	-336	1
2.7	2015_May_21_1320	s	s	7	2	SIC	27	ABS	0	1	02VD 02VO 02VC 02MD 02MO 02MC 02RD 10RO	0	1	7.38636088371	None	None	None	None	1
2.7	2015_May_21_1320	s	s	7	2	SIC	28	RC	0	1	02VD 02VO 02VC 02MD 02MO 02MC 02RD 09RO	1	0	6.36239814758	-321.0	-265.0	-326	-261	1
2.7	2015_May_21_1320	s	s	7	2	SIC	29	ABS	2	1	02VD 10VO 02VC 02MD 02MO 02MC 02RD 02RO	0	1	2.60748910904	None	None	None	None	1
2.7	2015_May_21_1320	s	s	7	2	SIC	30	RC	0	2	02VD 02VO 02VC 02MD 02MO 02MC 09RD 02RO	0	1	4.18699002266	334.0	293.0	None	None	0
2.7	2015_May_21_1320	s	s	7	2	SIC	31	ABS	2	0	02VD 02VO 10VC 02MD 02MO 02MC 02RD 02RO	1	0	3.04819703102	None	None	228	-111	0
2.7	2015_May_21_1320	s	s	7	2	SIC	32	ABS	1	1	02VD 02VO 02VC 02MD 10MO 02MC 02RD 02RO	1	0	4.7899711132	None	None	-163	-392	0
2.7	2015_May_21_1320	s	s	7	2	SIC	33	ABS	2	2	10VD 02VO 02VC 02MD 02MO 02MC 02RD 02RO	0	1	3.34887981415	None	None	None	None	1
2.7	2015_May_21_1320	s	s	7	2	SIC	34	RC	1	1	02VD 02VO 02VC 02MD 09MO 02MC 02RD 02RO	1	0	5.02534890175	-42.0	-118.0	510	24	0
2.7	2015_May_21_1320	s	s	7	2	SIC	35	RC	2	2	09VD 02VO 02VC 02MD 02MO 02MC 02RD 02RO	1	0	3.0714840889	-8.0	289.0	-3	285	1
2.7	2015_May_21_1320	s	s	7	2	SIC	36	RC	2	1	02VD 09VO 02VC 02MD 02MO 02MC 02RD 02RO	0	1	2.9630689621	194.0	-19.0	None	None	0
2.7	2015_May_21_1320	s	s	7	2	SIC	37	ABS	2	1	02VD 10VO 02VC 02MD 02MO 02MC 02RD 02RO	1	0	3.0483288765	None	None	399	223	0
2.7	2015_May_21_1320	s	s	7	2	SIC	38	ABS	1	2	02VD 02VO 02VC 10MD 02MO 02MC 02RD 02RO	1	0	6.63769102097	None	None	448	92	0
2.7	2015_May_21_1320	s	s	7	2	SIC	39	ABS	1	1	02VD 02VO 02VC 02MD 10MO 02MC 02RD 02RO	1	0	6.13804888725	None	None	1	-218	0
2.7	2015_May_21_1320	s	s	7	2	SIC	40	ABS	0	2	02VD 02VO 02VC 02MD 02MO 02MC 10RD 02RO	1	0	4.41332101822	None	None	-370	400	0
2.7	2015_May_21_1320	s	s	7	2	SIC	41	ABS	0	1	02VD 02VO 02VC 02MD 02MO 02MC 02RD 10RO	1	0	8.297716856	None	None	249	371	0
2.7	2015_May_21_1320	s	s	7	2	SIC	42	RC	2	0	02VD 02VO 09VC 02MD 02MO 02MC 02RD 02RO	1	0	3.17515802383	-240.0	118.0	-286	-44	0
2.7	2015_May_21_1320	s	s	7	2	SIC	43	RC	1	0	02VD 02VO 02VC 02MD 02MO 09MC 02RD 02RO	1	0	7.50496411324	387.0	-300.0	388	-304	1
2.7	2015_May_21_1320	s	s	7	2	SIC	44	ABS	1	0	02VD 02VO 02VC 02MD 02MO 10MC 02RD 02RO	1	0	6.59089207649	None	None	524	-404	0
2.7	2015_May_21_1320	s	s	7	2	SIC	45	RC	0	1	02VD 02VO 02VC 02MD 02MO 02MC 02RD 09RO	1	0	5.08109092712	419.0	-133.0	418	-141	1
2.7	2015_May_21_1320	s	s	7	2	SIC	46	RC	0	2	02VD 02VO 02VC 02MD 02MO 02MC 09RD 02RO	1	0	2.62422800064	193.0	-316.0	-181	-168	0
2.7	2015_May_21_1320	s	s	7	2	SIC	47	ABS	2	0	02VD 02VO 10VC 02MD 02MO 02MC 02RD 02RO	1	0	4.84386587143	None	None	465	188	0
2.7	2015_May_21_1320	s	s	7	2	SIC	48	RC	1	2	02VD 02VO 02VC 09MD 02MO 02MC 02RD 02RO	1	0	3.73439097404	56.0	93.0	59	91	1
2.7	2015_May_21_1320	s	s	7	2	SIC	49	ABS	1	0	02VD 02VO 02VC 02MD 02MO 10MC 02RD 02RO	0	1	5.73696684837	None	None	None	None	1
2.7	2015_May_21_1320	s	s	7	2	SIC	50	RC	1	1	02VD 02VO 02VC 02MD 09MO 02MC 02RD 02RO	1	0	6.27345609665	467.0	-110.0	467	-112	1
2.7	2015_May_21_1320	s	s	7	2	SIC	51	RC	2	1	02VD 09VO 02VC 02MD 02MO 02MC 02RD 02RO	1	0	2.69264698029	298.0	-44.0	291	-48	1
2.7	2015_May_21_1320	s	s	7	2	SIC	52	ABS	2	1	02VD 10VO 02VC 02MD 02MO 02MC 02RD 02RO	0	1	4.29091501236	None	None	None	None	1
2.7	2015_May_21_1320	s	s	7	2	SIC	53	RC	0	1	02VD 02VO 02VC 02MD 02MO 02MC 02RD 09RO	1	0	5.78816795349	108.0	-34.0	101	-33	1
2.7	2015_May_21_1320	s	s	7	2	SIC	54	ABS	2	0	02VD 02VO 10VC 02MD 02MO 02MC 02RD 02RO	0	1	5.66868114471	None	None	None	None	1
2.7	2015_May_21_1320	s	s	7	2	SIC	55	ABS	1	2	02VD 02VO 02VC 10MD 02MO 02MC 02RD 02RO	1	0	3.68735909462	None	None	332	-246	0
2.7	2015_May_21_1320	s	s	7	2	SIC	56	RC	1	2	02VD 02VO 02VC 09MD 02MO 02MC 02RD 02RO	1	0	3.07142686844	201.0	-316.0	-379	-272	0
2.7	2015_May_21_1320	s	s	7	2	SIC	57	ABS	1	1	02VD 02VO 02VC 02MD 10MO 02MC 02RD 02RO	1	0	5.36675786972	None	None	72	-365	0
2.7	2015_May_21_1320	s	s	7	2	SIC	58	RC	0	2	02VD 02VO 02VC 02MD 02MO 02MC 09RD 02RO	1	0	1.1242351532	-259.0	-49.0	-258	-44	1
2.7	2015_May_21_1320	s	s	7	2	SIC	59	RC	2	2	09VD 02VO 02VC 02MD 02MO 02MC 02RD 02RO	1	0	2.74873185158	-379.0	388.0	-389	396	1
2.7	2015_May_21_1320	s	s	7	2	SIC	60	RC	1	0	02VD 02VO 02VC 02MD 02MO 09MC 02RD 02RO	1	0	2.83115696907	411.0	169.0	-517	309	0
2.7	2015_May_21_1320	s	s	7	2	SIC	61	RC	2	0	02VD 02VO 09VC 02MD 02MO 02MC 02RD 02RO	1	0	4.83283400536	41.0	-372.0	47	-381	1
2.7	2015_May_21_1320	s	s	7	2	SIC	62	ABS	2	2	10VD 02VO 02VC 02MD 02MO 02MC 02RD 02RO	1	0	3.84839081764	None	None	-323	-172	0
2.7	2015_May_21_1320	s	s	7	2	SIC	63	ABS	0	1	02VD 02VO 02VC 02MD 02MO 02MC 02RD 10RO	0	1	6.29660511017	None	None	None	None	1
2.7	2015_May_21_1320	s	s	7	2	SIC	64	ABS	0	2	02VD 02VO 02VC 02MD 02MO 02MC 10RD 02RO	1	0	5.89088702202	None	None	533	147	0
2.7	2015_May_21_1320	s	s	7	2	SIC	65	RC	1	0	02VD 02VO 02VC 02MD 02MO 09MC 02RD 02RO	1	0	2.68295097351	367.0	83.0	375	80	1
2.7	2015_May_21_1320	s	s	7	2	SIC	66	ABS	0	1	02VD 02VO 02VC 02MD 02MO 02MC 02RD 10RO	0	1	5.7132358551	None	None	None	None	1
2.7	2015_May_21_1320	s	s	7	2	SIC	67	ABS	0	2	02VD 02VO 02VC 02MD 02MO 02MC 10RD 02RO	0	1	4.26024913788	None	None	None	None	1
2.7	2015_May_21_1320	s	s	7	2	SIC	68	ABS	2	2	10VD 02VO 02VC 02MD 02MO 02MC 02RD 02RO	1	0	3.54225802422	None	None	292	376	0
2.7	2015_May_21_1320	s	s	7	2	SIC	69	ABS	1	1	02VD 02VO 02VC 02MD 10MO 02MC 02RD 02RO	0	1	4.34991788864	None	None	None	None	1
2.7	2015_May_21_1320	s	s	7	2	SIC	70	RC	0	2	02VD 02VO 02VC 02MD 02MO 02MC 09RD 02RO	1	0	3.32556200027	339.0	122.0	345	117	1
2.7	2015_May_21_1320	s	s	7	2	SIC	71	ABS	2	1	02VD 10VO 02VC 02MD 02MO 02MC 02RD 02RO	0	1	3.61303806305	None	None	None	None	1
2.7	2015_May_21_1320	s	s	7	2	SIC	72	RC	1	1	02VD 02VO 02VC 02MD 09MO 02MC 02RD 02RO	1	0	2.01206493378	-448.0	-131.0	-455	-135	1
2.7	2015_May_21_1320	s	s	7	2	SIC	73	RC	2	0	02VD 02VO 09VC 02MD 02MO 02MC 02RD 02RO	1	0	1.2650411129	-357.0	-185.0	-357	-186	1
2.7	2015_May_21_1320	s	s	7	2	SIC	74	ABS	2	0	02VD 02VO 10VC 02MD 02MO 02MC 02RD 02RO	0	1	2.76213288307	None	None	None	None	1
2.7	2015_May_21_1320	s	s	7	2	SIC	75	RC	0	1	02VD 02VO 02VC 02MD 02MO 02MC 02RD 09RO	1	0	2.30155706406	-70.0	-367.0	-63	-370	1
2.7	2015_May_21_1320	s	s	7	2	SIC	76	RC	2	1	02VD 09VO 02VC 02MD 02MO 02MC 02RD 02RO	1	0	2.61908793449	234.0	169.0	236	166	1
2.7	2015_May_21_1320	s	s	7	2	SIC	77	ABS	1	2	02VD 02VO 02VC 10MD 02MO 02MC 02RD 02RO	0	1	4.22285509109	None	None	None	None	1
2.7	2015_May_21_1320	s	s	7	2	SIC	78	RC	1	2	02VD 02VO 02VC 09MD 02MO 02MC 02RD 02RO	1	0	3.09495210648	9.0	49.0	13	49	1
2.7	2015_May_21_1320	s	s	7	2	SIC	79	ABS	1	0	02VD 02VO 02VC 02MD 02MO 10MC 02RD 02RO	0	1	5.77642297745	None	None	None	None	1
2.7	2015_May_21_1320	s	s	7	2	SIC	80	RC	2	2	09VD 02VO 02VC 02MD 02MO 02MC 02RD 02RO	1	0	2.5537610054	230.0	-406.0	227	-409	1
2.7	2015_May_21_1320	s	s	7	2	SIC	81	ABS	1	2	02VD 02VO 02VC 10MD 02MO 02MC 02RD 02RO	0	1	2.95139694214	None	None	None	None	1
2.7	2015_May_21_1320	s	s	7	2	SIC	82	RC	1	2	02VD 02VO 02VC 09MD 02MO 02MC 02RD 02RO	1	0	3.27874112129	-303.0	-277.0	-300	-277	1
2.7	2015_May_21_1320	s	s	7	2	SIC	83	ABS	0	2	02VD 02VO 02VC 02MD 02MO 02MC 10RD 02RO	0	1	2.4868850708	None	None	None	None	1
2.7	2015_May_21_1320	s	s	7	2	SIC	84	ABS	2	0	02VD 02VO 10VC 02MD 02MO 02MC 02RD 02RO	0	1	2.84781503677	None	None	None	None	1
2.7	2015_May_21_1320	s	s	7	2	SIC	85	ABS	0	1	02VD 02VO 02VC 02MD 02MO 02MC 02RD 10RO	1	0	5.31959795952	None	None	-446	360	0
2.7	2015_May_21_1320	s	s	7	2	SIC	86	RC	1	1	02VD 02VO 02VC 02MD 09MO 02MC 02RD 02RO	1	0	2.68303704262	234.0	113.0	238	116	1
2.7	2015_May_21_1320	s	s	7	2	SIC	87	ABS	2	2	10VD 02VO 02VC 02MD 02MO 02MC 02RD 02RO	0	1	2.3605890274	None	None	None	None	1
2.7	2015_May_21_1320	s	s	7	2	SIC	88	RC	2	2	09VD 02VO 02VC 02MD 02MO 02MC 02RD 02RO	1	0	3.82475614548	468.0	14.0	467	13	1
2.7	2015_May_21_1320	s	s	7	2	SIC	89	RC	2	0	02VD 02VO 09VC 02MD 02MO 02MC 02RD 02RO	1	0	2.93953204155	-50.0	107.0	-49	90	1
2.7	2015_May_21_1320	s	s	7	2	SIC	90	ABS	1	0	02VD 02VO 02VC 02MD 02MO 10MC 02RD 02RO	0	1	6.44959998131	None	None	None	None	1
2.7	2015_May_21_1320	s	s	7	2	SIC	91	RC	2	1	02VD 09VO 02VC 02MD 02MO 02MC 02RD 02RO	1	0	2.6553478241	-153.0	-337.0	-152	-337	1
2.7	2015_May_21_1320	s	s	7	2	SIC	92	RC	0	1	02VD 02VO 02VC 02MD 02MO 02MC 02RD 09RO	1	0	3.43127298355	-345.0	288.0	-342	286	1
2.7	2015_May_21_1320	s	s	7	2	SIC	93	ABS	2	1	02VD 10VO 02VC 02MD 02MO 02MC 02RD 02RO	1	0	4.02005791664	None	None	-351	51	0
2.7	2015_May_21_1320	s	s	7	2	SIC	94	RC	0	2	02VD 02VO 02VC 02MD 02MO 02MC 09RD 02RO	1	0	3.39667415619	193.0	390.0	186	385	1
2.7	2015_May_21_1320	s	s	7	2	SIC	95	RC	1	0	02VD 02VO 02VC 02MD 02MO 09MC 02RD 02RO	1	0	2.58420801163	347.0	136.0	349	138	1
2.7	2015_May_21_1320	s	s	7	2	SIC	96	ABS	1	1	02VD 02VO 02VC 02MD 10MO 02MC 02RD 02RO	1	0	8.39868497849	None	None	58	389	0
2.7	2015_May_21_1320	s	s	7	2	SIC	97	ABS	2	2	10VD 02VO 02VC 02MD 02MO 02MC 02RD 02RO	0	1	3.67856407166	None	None	None	None	1
2.7	2015_May_21_1320	s	s	7	2	SIC	98	ABS	2	1	02VD 10VO 02VC 02MD 02MO 02MC 02RD 02RO	0	1	2.79590606689	None	None	None	None	1
2.7	2015_May_21_1320	s	s	7	2	SIC	99	ABS	1	0	02VD 02VO 02VC 02MD 02MO 10MC 02RD 02RO	0	1	3.48345589638	None	None	None	None	1
2.7	2015_May_21_1320	s	s	7	2	SIC	100	RC	0	1	02VD 02VO 02VC 02MD 02MO 02MC 02RD 09RO	1	0	4.7782227993	-172.0	192.0	-176	184	1
2.7	2015_May_21_1320	s	s	7	2	SIC	101	ABS	0	2	02VD 02VO 02VC 02MD 02MO 02MC 10RD 02RO	0	1	3.02435302734	None	None	None	None	1
2.7	2015_May_21_1320	s	s	7	2	SIC	102	RC	1	0	02VD 02VO 02VC 02MD 02MO 09MC 02RD 02RO	0	1	4.22010993958	162.0	165.0	None	None	0
2.7	2015_May_21_1320	s	s	7	2	SIC	103	RC	2	0	02VD 02VO 09VC 02MD 02MO 02MC 02RD 02RO	1	0	2.27787399292	-458.0	-119.0	-460	-120	1
2.7	2015_May_21_1320	s	s	7	2	SIC	104	ABS	1	2	02VD 02VO 02VC 10MD 02MO 02MC 02RD 02RO	0	1	3.18673706055	None	None	None	None	1
2.7	2015_May_21_1320	s	s	7	2	SIC	105	RC	0	2	02VD 02VO 02VC 02MD 02MO 02MC 09RD 02RO	1	0	0.988435983658	-475.0	167.0	-479	162	1
2.7	2015_May_21_1320	s	s	7	2	SIC	106	RC	2	1	02VD 09VO 02VC 02MD 02MO 02MC 02RD 02RO	1	0	2.20087599754	416.0	-27.0	407	-28	1
2.7	2015_May_21_1320	s	s	7	2	SIC	107	ABS	1	1	02VD 02VO 02VC 02MD 10MO 02MC 02RD 02RO	0	1	4.47218608856	None	None	None	None	1
2.7	2015_May_21_1320	s	s	7	2	SIC	108	RC	1	2	02VD 02VO 02VC 09MD 02MO 02MC 02RD 02RO	0	1	3.26661491394	112.0	-66.0	None	None	0
2.7	2015_May_21_1320	s	s	7	2	SIC	109	RC	2	2	09VD 02VO 02VC 02MD 02MO 02MC 02RD 02RO	0	1	2.87861299515	173.0	-185.0	None	None	0
2.7	2015_May_21_1320	s	s	7	2	SIC	110	ABS	2	0	02VD 02VO 10VC 02MD 02MO 02MC 02RD 02RO	0	1	2.12980008125	None	None	None	None	1
2.7	2015_May_21_1320	s	s	7	2	SIC	111	RC	1	1	02VD 02VO 02VC 02MD 09MO 02MC 02RD 02RO	1	0	2.2473859787	-118.0	-5.0	-121	-7	1
2.7	2015_May_21_1320	s	s	7	2	SIC	112	ABS	0	1	02VD 02VO 02VC 02MD 02MO 02MC 02RD 10RO	0	1	5.14287781715	None	None	None	None	1
2.7	2015_May_21_1320	s	s	7	2	SIC	113	RC	0	1	02VD 02VO 02VC 02MD 02MO 02MC 02RD 09RO	1	0	3.88363718987	81.0	-338.0	93	-333	1
2.7	2015_May_21_1320	s	s	7	2	SIC	114	RC	0	2	02VD 02VO 02VC 02MD 02MO 02MC 09RD 02RO	0	1	3.17049694061	151.0	202.0	None	None	0
2.7	2015_May_21_1320	s	s	7	2	SIC	115	RC	1	2	02VD 02VO 02VC 09MD 02MO 02MC 02RD 02RO	0	1	3.48340010643	355.0	-370.0	None	None	0
2.7	2015_May_21_1320	s	s	7	2	SIC	116	RC	2	2	09VD 02VO 02VC 02MD 02MO 02MC 02RD 02RO	1	0	3.00773596764	-152.0	60.0	-164	69	1
2.7	2015_May_21_1320	s	s	7	2	SIC	117	ABS	1	0	02VD 02VO 02VC 02MD 02MO 10MC 02RD 02RO	0	1	3.52243185043	None	None	None	None	1
2.7	2015_May_21_1320	s	s	7	2	SIC	118	ABS	1	1	02VD 02VO 02VC 02MD 10MO 02MC 02RD 02RO	0	1	3.3893289566	None	None	None	None	1
2.7	2015_May_21_1320	s	s	7	2	SIC	119	RC	2	0	02VD 02VO 09VC 02MD 02MO 02MC 02RD 02RO	1	0	2.89530801773	138.0	97.0	133	100	1
2.7	2015_May_21_1320	s	s	7	2	SIC	120	RC	1	1	02VD 02VO 02VC 02MD 09MO 02MC 02RD 02RO	1	0	2.0355091095	-258.0	-374.0	-252	-378	1
2.7	2015_May_21_1320	s	s	7	2	SIC	121	ABS	2	0	02VD 02VO 10VC 02MD 02MO 02MC 02RD 02RO	0	1	4.08152580261	None	None	None	None	1
2.7	2015_May_21_1320	s	s	7	2	SIC	122	ABS	2	2	10VD 02VO 02VC 02MD 02MO 02MC 02RD 02RO	0	1	2.86644697189	None	None	None	None	1
2.7	2015_May_21_1320	s	s	7	2	SIC	123	ABS	0	2	02VD 02VO 02VC 02MD 02MO 02MC 10RD 02RO	0	1	2.87138795853	None	None	None	None	1
2.7	2015_May_21_1320	s	s	7	2	SIC	124	RC	2	1	02VD 09VO 02VC 02MD 02MO 02MC 02RD 02RO	1	0	3.11839318275	468.0	264.0	469	261	1
2.7	2015_May_21_1320	s	s	7	2	SIC	125	ABS	0	1	02VD 02VO 02VC 02MD 02MO 02MC 02RD 10RO	0	1	4.44863891602	None	None	None	None	1
2.7	2015_May_21_1320	s	s	7	2	SIC	126	ABS	1	2	02VD 02VO 02VC 10MD 02MO 02MC 02RD 02RO	0	1	2.96059703827	None	None	None	None	1
2.7	2015_May_21_1320	s	s	7	2	SIC	127	ABS	2	1	02VD 10VO 02VC 02MD 02MO 02MC 02RD 02RO	0	1	2.07092404366	None	None	None	None	1
2.7	2015_May_21_1320	s	s	7	2	SIC	128	RC	1	0	02VD 02VO 02VC 02MD 02MO 09MC 02RD 02RO	1	0	11.4839990139	-320.0	-119.0	-327	-120	1
2.7	2015_May_21_1320	s	s	7	2	SIC	129	RC	2	0	02VD 02VO 09VC 02MD 02MO 02MC 02RD 02RO	1	0	3.56581306458	504.0	-366.0	505	-372	1
2.7	2015_May_21_1320	s	s	7	2	SIC	130	RC	1	0	02VD 02VO 02VC 02MD 02MO 09MC 02RD 02RO	1	0	5.3292222023	-21.0	-106.0	-15	-113	1
2.7	2015_May_21_1320	s	s	7	2	SIC	131	ABS	1	0	02VD 02VO 02VC 02MD 02MO 10MC 02RD 02RO	0	1	5.34314608574	None	None	None	None	1
2.7	2015_May_21_1320	s	s	7	2	SIC	132	ABS	0	2	02VD 02VO 02VC 02MD 02MO 02MC 10RD 02RO	0	1	4.4555721283	None	None	None	None	1
2.7	2015_May_21_1320	s	s	7	2	SIC	133	RC	0	2	02VD 02VO 02VC 02MD 02MO 02MC 09RD 02RO	0	1	3.84336805344	-449.0	-84.0	None	None	0
2.7	2015_May_21_1320	s	s	7	2	SIC	134	ABS	2	0	02VD 02VO 10VC 02MD 02MO 02MC 02RD 02RO	0	1	3.16070795059	None	None	None	None	1
2.7	2015_May_21_1320	s	s	7	2	SIC	135	ABS	1	1	02VD 02VO 02VC 02MD 10MO 02MC 02RD 02RO	0	1	3.92521595955	None	None	None	None	1
2.7	2015_May_21_1320	s	s	7	2	SIC	136	ABS	2	2	10VD 02VO 02VC 02MD 02MO 02MC 02RD 02RO	0	1	2.31817317009	None	None	None	None	1
2.7	2015_May_21_1320	s	s	7	2	SIC	137	ABS	2	1	02VD 10VO 02VC 02MD 02MO 02MC 02RD 02RO	0	1	2.53050899506	None	None	None	None	1
2.7	2015_May_21_1320	s	s	7	2	SIC	138	ABS	1	2	02VD 02VO 02VC 10MD 02MO 02MC 02RD 02RO	0	1	4.83704304695	None	None	None	None	1
2.7	2015_May_21_1320	s	s	7	2	SIC	139	ABS	0	1	02VD 02VO 02VC 02MD 02MO 02MC 02RD 10RO	0	1	4.24308109283	None	None	None	None	1
2.7	2015_May_21_1320	s	s	7	2	SIC	140	RC	2	1	02VD 09VO 02VC 02MD 02MO 02MC 02RD 02RO	1	0	3.1656370163	-12.0	80.0	-5	74	1
2.7	2015_May_21_1320	s	s	7	2	SIC	141	RC	2	2	09VD 02VO 02VC 02MD 02MO 02MC 02RD 02RO	1	0	4.70761108398	236.0	201.0	227	199	1
2.7	2015_May_21_1320	s	s	7	2	SIC	142	RC	1	2	02VD 02VO 02VC 09MD 02MO 02MC 02RD 02RO	1	0	1.80599713326	-300.0	200.0	-296	192	1
2.7	2015_May_21_1320	s	s	7	2	SIC	143	RC	1	1	02VD 02VO 02VC 02MD 09MO 02MC 02RD 02RO	1	0	3.1185708046	-122.0	378.0	-122	367	1
2.7	2015_May_21_1320	s	s	7	2	SIC	144	RC	0	1	02VD 02VO 02VC 02MD 02MO 02MC 02RD 09RO	1	0	5.14890193939	405.0	239.0	410	237	1
2.7	2015_May_21_1320	s	s	7	2	SIC	145	ABS	1	2	02VD 02VO 02VC 10MD 02MO 02MC 02RD 02RO	0	1	3.17239713669	None	None	None	None	1
2.7	2015_May_21_1320	s	s	7	2	SIC	146	RC	1	1	02VD 02VO 02VC 02MD 09MO 02MC 02RD 02RO	1	0	3.65539193153	445.0	340.0	452	338	1
2.7	2015_May_21_1320	s	s	7	2	SIC	147	RC	2	2	09VD 02VO 02VC 02MD 02MO 02MC 02RD 02RO	1	0	3.96608090401	439.0	-306.0	447	-301	1
2.7	2015_May_21_1320	s	s	7	2	SIC	148	ABS	2	1	02VD 10VO 02VC 02MD 02MO 02MC 02RD 02RO	0	1	3.095058918	None	None	None	None	1
2.7	2015_May_21_1320	s	s	7	2	SIC	149	ABS	1	0	02VD 02VO 02VC 02MD 02MO 10MC 02RD 02RO	0	1	5.36673402786	None	None	None	None	1
2.7	2015_May_21_1320	s	s	7	2	SIC	150	RC	0	1	02VD 02VO 02VC 02MD 02MO 02MC 02RD 09RO	0	1	6.09646320343	331.0	64.0	None	None	0
2.7	2015_May_21_1320	s	s	7	2	SIC	151	RC	2	0	02VD 02VO 09VC 02MD 02MO 02MC 02RD 02RO	0	1	3.60794901848	337.0	-125.0	None	None	0
2.7	2015_May_21_1320	s	s	7	2	SIC	152	RC	2	1	02VD 09VO 02VC 02MD 02MO 02MC 02RD 02RO	1	0	3.77767205238	-55.0	100.0	-59	97	1
2.7	2015_May_21_1320	s	s	7	2	SIC	153	ABS	1	1	02VD 02VO 02VC 02MD 10MO 02MC 02RD 02RO	0	1	5.03218007088	None	None	None	None	1
2.7	2015_May_21_1320	s	s	7	2	SIC	154	RC	1	0	02VD 02VO 02VC 02MD 02MO 09MC 02RD 02RO	1	0	1.29412508011	-519.0	102.0	-529	104	1
2.7	2015_May_21_1320	s	s	7	2	SIC	155	RC	1	2	02VD 02VO 02VC 09MD 02MO 02MC 02RD 02RO	1	0	2.65435481071	-390.0	77.0	-385	82	1
2.7	2015_May_21_1320	s	s	7	2	SIC	156	RC	0	2	02VD 02VO 02VC 02MD 02MO 02MC 09RD 02RO	1	0	2.53797793388	85.0	155.0	91	147	1
2.7	2015_May_21_1320	s	s	7	2	SIC	157	ABS	2	2	10VD 02VO 02VC 02MD 02MO 02MC 02RD 02RO	0	1	3.14226198196	None	None	None	None	1
2.7	2015_May_21_1320	s	s	7	2	SIC	158	ABS	0	2	02VD 02VO 02VC 02MD 02MO 02MC 10RD 02RO	0	1	6.49183511734	None	None	None	None	1
2.7	2015_May_21_1320	s	s	7	2	SIC	159	ABS	2	0	02VD 02VO 10VC 02MD 02MO 02MC 02RD 02RO	0	1	3.38434100151	None	None	None	None	1
2.7	2015_May_21_1320	s	s	7	2	SIC	160	ABS	0	1	02VD 02VO 02VC 02MD 02MO 02MC 02RD 10RO	0	1	5.70319890976	None	None	None	None	1
2.7	2015_May_21_1320	s	s	7	2	SIC	161	ABS	2	1	02VD 10VO 02VC 02MD 02MO 02MC 02RD 02RO	0	1	6.78761816025	None	None	None	None	1
2.7	2015_May_21_1320	s	s	7	2	SIC	162	ABS	1	1	02VD 02VO 02VC 02MD 10MO 02MC 02RD 02RO	0	1	4.97508788109	None	None	None	None	1
2.7	2015_May_21_1320	s	s	7	2	SIC	163	ABS	0	1	02VD 02VO 02VC 02MD 02MO 02MC 02RD 10RO	0	1	5.94030284882	None	None	None	None	1
2.7	2015_May_21_1320	s	s	7	2	SIC	164	RC	0	1	02VD 02VO 02VC 02MD 02MO 02MC 02RD 09RO	1	0	1.99555397034	-292.0	335.0	-294	343	1
2.7	2015_May_21_1320	s	s	7	2	SIC	165	RC	2	0	02VD 02VO 09VC 02MD 02MO 02MC 02RD 02RO	1	0	7.12091302872	423.0	-150.0	414	-151	1
2.7	2015_May_21_1320	s	s	7	2	SIC	166	ABS	0	2	02VD 02VO 02VC 02MD 02MO 02MC 10RD 02RO	0	1	3.61668300629	None	None	None	None	1
2.7	2015_May_21_1320	s	s	7	2	SIC	167	RC	1	1	02VD 02VO 02VC 02MD 09MO 02MC 02RD 02RO	1	0	1.66521406174	-466.0	311.0	-471	306	1
2.7	2015_May_21_1320	s	s	7	2	SIC	168	RC	2	1	02VD 09VO 02VC 02MD 02MO 02MC 02RD 02RO	1	0	2.50652694702	425.0	-110.0	427	-103	1
2.7	2015_May_21_1320	s	s	7	2	SIC	169	RC	1	0	02VD 02VO 02VC 02MD 02MO 09MC 02RD 02RO	0	1	4.23185992241	-212.0	190.0	None	None	0
2.7	2015_May_21_1320	s	s	7	2	SIC	170	RC	2	2	09VD 02VO 02VC 02MD 02MO 02MC 02RD 02RO	1	0	3.10683298111	-254.0	-118.0	-249	-121	1
2.7	2015_May_21_1320	s	s	7	2	SIC	171	RC	0	2	02VD 02VO 02VC 02MD 02MO 02MC 09RD 02RO	1	0	1.04232192039	-526.0	270.0	-521	264	1
2.7	2015_May_21_1320	s	s	7	2	SIC	172	ABS	2	2	10VD 02VO 02VC 02MD 02MO 02MC 02RD 02RO	0	1	3.13884592056	None	None	None	None	1
2.7	2015_May_21_1320	s	s	7	2	SIC	173	RC	1	2	02VD 02VO 02VC 09MD 02MO 02MC 02RD 02RO	1	0	4.406031847	372.0	-405.0	381	-405	1
2.7	2015_May_21_1320	s	s	7	2	SIC	174	ABS	2	0	02VD 02VO 10VC 02MD 02MO 02MC 02RD 02RO	0	1	4.95114302635	None	None	None	None	1
2.7	2015_May_21_1320	s	s	7	2	SIC	175	ABS	1	2	02VD 02VO 02VC 10MD 02MO 02MC 02RD 02RO	0	1	3.16562104225	None	None	None	None	1
2.7	2015_May_21_1320	s	s	7	2	SIC	176	ABS	1	0	02VD 02VO 02VC 02MD 02MO 10MC 02RD 02RO	0	1	8.63900017738	None	None	None	None	1
2.7	2015_May_21_1320	s	s	7	2	SIC	177	ABS	1	1	02VD 02VO 02VC 02MD 10MO 02MC 02RD 02RO	0	1	3.47985696793	None	None	None	None	1
2.7	2015_May_21_1320	s	s	7	2	SIC	178	ABS	1	2	02VD 02VO 02VC 10MD 02MO 02MC 02RD 02RO	0	1	2.34884381294	None	None	None	None	1
2.7	2015_May_21_1320	s	s	7	2	SIC	179	RC	1	2	02VD 02VO 02VC 09MD 02MO 02MC 02RD 02RO	1	0	2.52525210381	225.0	45.0	232	48	1
2.7	2015_May_21_1320	s	s	7	2	SIC	180	ABS	2	2	10VD 02VO 02VC 02MD 02MO 02MC 02RD 02RO	0	1	4.43675994873	None	None	None	None	1
2.7	2015_May_21_1320	s	s	7	2	SIC	181	RC	2	0	02VD 02VO 09VC 02MD 02MO 02MC 02RD 02RO	0	1	4.18695688248	-132.0	247.0	None	None	0
2.7	2015_May_21_1320	s	s	7	2	SIC	182	ABS	2	1	02VD 10VO 02VC 02MD 02MO 02MC 02RD 02RO	0	1	2.93737101555	None	None	None	None	1
2.7	2015_May_21_1320	s	s	7	2	SIC	183	ABS	0	2	02VD 02VO 02VC 02MD 02MO 02MC 10RD 02RO	0	1	2.54010105133	None	None	None	None	1
2.7	2015_May_21_1320	s	s	7	2	SIC	184	RC	1	0	02VD 02VO 02VC 02MD 02MO 09MC 02RD 02RO	0	1	4.33952498436	438.0	-137.0	None	None	0
2.7	2015_May_21_1320	s	s	7	2	SIC	185	RC	2	2	09VD 02VO 02VC 02MD 02MO 02MC 02RD 02RO	1	0	1.47606992722	-289.0	-354.0	-290	-346	1
2.7	2015_May_21_1320	s	s	7	2	SIC	186	ABS	1	0	02VD 02VO 02VC 02MD 02MO 10MC 02RD 02RO	0	1	4.77817296982	None	None	None	None	1
2.7	2015_May_21_1320	s	s	7	2	SIC	187	RC	2	1	02VD 09VO 02VC 02MD 02MO 02MC 02RD 02RO	1	0	1.52950382233	-278.0	289.0	-284	281	1
2.7	2015_May_21_1320	s	s	7	2	SIC	188	ABS	0	1	02VD 02VO 02VC 02MD 02MO 02MC 02RD 10RO	0	1	4.89073109627	None	None	None	None	1
2.7	2015_May_21_1320	s	s	7	2	SIC	189	RC	0	1	02VD 02VO 02VC 02MD 02MO 02MC 02RD 09RO	1	0	2.35349702835	-38.0	-332.0	-42	-334	1
2.7	2015_May_21_1320	s	s	7	2	SIC	190	RC	0	2	02VD 02VO 02VC 02MD 02MO 02MC 09RD 02RO	1	0	2.7132768631	347.0	-313.0	353	-316	1
2.7	2015_May_21_1320	s	s	7	2	SIC	191	ABS	2	0	02VD 02VO 10VC 02MD 02MO 02MC 02RD 02RO	0	1	2.31318306923	None	None	None	None	1
2.7	2015_May_21_1320	s	s	7	2	SIC	192	RC	1	1	02VD 02VO 02VC 02MD 09MO 02MC 02RD 02RO	1	0	4.48391604424	-3.0	-21.0	9	-20	1
2.7	2015_May_21_1320	s	s	7	2	SIC	193	ABS	1	0	02VD 02VO 02VC 02MD 02MO 10MC 02RD 02RO	0	1	5.33150005341	None	None	None	None	1
2.7	2015_May_21_1320	s	s	7	2	SIC	194	RC	2	0	02VD 02VO 09VC 02MD 02MO 02MC 02RD 02RO	1	0	4.78995990753	-138.0	394.0	-140	399	1
2.7	2015_May_21_1320	s	s	7	2	SIC	195	ABS	0	1	02VD 02VO 02VC 02MD 02MO 02MC 02RD 10RO	0	1	4.61103391647	None	None	None	None	1
2.7	2015_May_21_1320	s	s	7	2	SIC	196	ABS	1	2	02VD 02VO 02VC 10MD 02MO 02MC 02RD 02RO	0	1	2.78411602974	None	None	None	None	1
2.7	2015_May_21_1320	s	s	7	2	SIC	197	ABS	0	2	02VD 02VO 02VC 02MD 02MO 02MC 10RD 02RO	0	1	2.15331983566	None	None	None	None	1
2.7	2015_May_21_1320	s	s	7	2	SIC	198	ABS	1	1	02VD 02VO 02VC 02MD 10MO 02MC 02RD 02RO	0	1	3.89041185379	None	None	None	None	1
2.7	2015_May_21_1320	s	s	7	2	SIC	199	RC	1	1	02VD 02VO 02VC 02MD 09MO 02MC 02RD 02RO	0	1	5.44466996193	-423.0	-263.0	None	None	0
2.7	2015_May_21_1320	s	s	7	2	SIC	200	ABS	2	1	02VD 10VO 02VC 02MD 02MO 02MC 02RD 02RO	0	1	3.44374084473	None	None	None	None	1
2.7	2015_May_21_1320	s	s	7	2	SIC	201	RC	0	1	02VD 02VO 02VC 02MD 02MO 02MC 02RD 09RO	1	0	5.57360601425	292.0	379.0	301	382	1
2.7	2015_May_21_1320	s	s	7	2	SIC	202	RC	1	0	02VD 02VO 02VC 02MD 02MO 09MC 02RD 02RO	1	0	3.05490684509	188.0	49.0	193	45	1
2.7	2015_May_21_1320	s	s	7	2	SIC	203	ABS	2	2	10VD 02VO 02VC 02MD 02MO 02MC 02RD 02RO	0	1	3.44802594185	None	None	None	None	1
2.7	2015_May_21_1320	s	s	7	2	SIC	204	RC	0	2	02VD 02VO 02VC 02MD 02MO 02MC 09RD 02RO	1	0	3.01254796982	-411.0	-308.0	-415	-302	1
2.7	2015_May_21_1320	s	s	7	2	SIC	205	RC	2	2	09VD 02VO 02VC 02MD 02MO 02MC 02RD 02RO	1	0	1.01166009903	-536.0	220.0	-526	224	1
2.7	2015_May_21_1320	s	s	7	2	SIC	206	RC	1	2	02VD 02VO 02VC 09MD 02MO 02MC 02RD 02RO	1	0	1.1482861042	-324.0	85.0	-326	87	1
2.7	2015_May_21_1320	s	s	7	2	SIC	207	RC	2	1	02VD 09VO 02VC 02MD 02MO 02MC 02RD 02RO	1	0	2.96934819221	270.0	195.0	269	192	1
2.7	2015_May_21_1320	s	s	7	2	SIC	208	ABS	2	0	02VD 02VO 10VC 02MD 02MO 02MC 02RD 02RO	0	1	3.59311318398	None	None	None	None	1
2.7	2015_May_21_1320	s	s	7	2	SIC	209	RC	1	0	02VD 02VO 02VC 02MD 02MO 09MC 02RD 02RO	1	0	5.49159407616	351.0	-255.0	344	-254	1
2.7	2015_May_21_1320	s	s	7	2	SIC	210	ABS	2	0	02VD 02VO 10VC 02MD 02MO 02MC 02RD 02RO	0	1	2.36043381691	None	None	None	None	1
2.7	2015_May_21_1320	s	s	7	2	SIC	211	RC	0	1	02VD 02VO 02VC 02MD 02MO 02MC 02RD 09RO	1	0	4.5192489624	281.0	305.0	278	303	1
2.7	2015_May_21_1320	s	s	7	2	SIC	212	RC	2	1	02VD 09VO 02VC 02MD 02MO 02MC 02RD 02RO	1	0	1.64752292633	-135.0	-327.0	-129	-326	1
2.7	2015_May_21_1320	s	s	7	2	SIC	213	ABS	1	2	02VD 02VO 02VC 10MD 02MO 02MC 02RD 02RO	0	1	3.75416684151	None	None	None	None	1
2.7	2015_May_21_1320	s	s	7	2	SIC	214	RC	1	1	02VD 02VO 02VC 02MD 09MO 02MC 02RD 02RO	1	0	2.1712501049	-402.0	189.0	-405	188	1
2.7	2015_May_21_1320	s	s	7	2	SIC	215	ABS	2	2	10VD 02VO 02VC 02MD 02MO 02MC 02RD 02RO	0	1	2.76099300385	None	None	None	None	1
2.7	2015_May_21_1320	s	s	7	2	SIC	216	ABS	0	1	02VD 02VO 02VC 02MD 02MO 02MC 02RD 10RO	0	1	3.58938002586	None	None	None	None	1
2.7	2015_May_21_1320	s	s	7	2	SIC	217	ABS	1	1	02VD 02VO 02VC 02MD 10MO 02MC 02RD 02RO	0	1	2.88992214203	None	None	None	None	1
2.7	2015_May_21_1320	s	s	7	2	SIC	218	RC	2	0	02VD 02VO 09VC 02MD 02MO 02MC 02RD 02RO	1	0	2.08033895493	-138.0	-269.0	-139	-269	1
2.7	2015_May_21_1320	s	s	7	2	SIC	219	RC	2	2	09VD 02VO 02VC 02MD 02MO 02MC 02RD 02RO	1	0	1.51762104034	46.0	80.0	46	77	1
2.7	2015_May_21_1320	s	s	7	2	SIC	220	ABS	0	2	02VD 02VO 02VC 02MD 02MO 02MC 10RD 02RO	0	1	2.75368690491	None	None	None	None	1
2.7	2015_May_21_1320	s	s	7	2	SIC	221	RC	1	2	02VD 02VO 02VC 09MD 02MO 02MC 02RD 02RO	0	1	2.89085412025	272.0	-260.0	None	None	0
2.7	2015_May_21_1320	s	s	7	2	SIC	222	ABS	1	0	02VD 02VO 02VC 02MD 02MO 10MC 02RD 02RO	1	0	1.16006398201	None	None	-534	-354	0
2.7	2015_May_21_1320	s	s	7	2	SIC	223	ABS	2	1	02VD 10VO 02VC 02MD 02MO 02MC 02RD 02RO	0	1	2.03336215019	None	None	None	None	1
2.7	2015_May_21_1320	s	s	7	2	SIC	224	RC	0	2	02VD 02VO 02VC 02MD 02MO 02MC 09RD 02RO	1	0	3.48344492912	-497.0	-248.0	-500	-257	1
2.7	2015_May_21_1320	s	s	7	2	SIC	225	RC	0	1	02VD 02VO 02VC 02MD 02MO 02MC 02RD 09RO	0	1	4.96658396721	465.0	-85.0	None	None	0
2.7	2015_May_21_1320	s	s	7	2	SIC	226	ABS	1	1	02VD 02VO 02VC 02MD 10MO 02MC 02RD 02RO	0	1	3.23137998581	None	None	None	None	1
2.7	2015_May_21_1320	s	s	7	2	SIC	227	RC	2	2	09VD 02VO 02VC 02MD 02MO 02MC 02RD 02RO	1	0	3.01960587502	486.0	231.0	487	222	1
2.7	2015_May_21_1320	s	s	7	2	SIC	228	ABS	1	2	02VD 02VO 02VC 10MD 02MO 02MC 02RD 02RO	0	1	2.17186498642	None	None	None	None	1
2.7	2015_May_21_1320	s	s	7	2	SIC	229	RC	1	0	02VD 02VO 02VC 02MD 02MO 09MC 02RD 02RO	1	0	1.12950110435	-343.0	184.0	-352	189	1
2.7	2015_May_21_1320	s	s	7	2	SIC	230	ABS	1	0	02VD 02VO 02VC 02MD 02MO 10MC 02RD 02RO	0	1	2.80805492401	None	None	None	None	1
2.7	2015_May_21_1320	s	s	7	2	SIC	231	RC	1	1	02VD 02VO 02VC 02MD 09MO 02MC 02RD 02RO	1	0	1.19482588768	-149.0	275.0	-154	272	1
2.7	2015_May_21_1320	s	s	7	2	SIC	232	RC	0	2	02VD 02VO 02VC 02MD 02MO 02MC 09RD 02RO	1	0	4.26030611992	-147.0	-271.0	-149	-283	1
2.7	2015_May_21_1320	s	s	7	2	SIC	233	RC	2	1	02VD 09VO 02VC 02MD 02MO 02MC 02RD 02RO	1	0	1.90123987198	474.0	-259.0	483	-261	1
2.7	2015_May_21_1320	s	s	7	2	SIC	234	ABS	0	2	02VD 02VO 02VC 02MD 02MO 02MC 10RD 02RO	0	1	2.78406691551	None	None	None	None	1
2.7	2015_May_21_1320	s	s	7	2	SIC	235	RC	1	2	02VD 02VO 02VC 09MD 02MO 02MC 02RD 02RO	0	1	3.64395999908	-249.0	-371.0	None	None	0
2.7	2015_May_21_1320	s	s	7	2	SIC	236	RC	2	0	02VD 02VO 09VC 02MD 02MO 02MC 02RD 02RO	1	0	2.93020296097	-88.0	241.0	-90	227	1
2.7	2015_May_21_1320	s	s	7	2	SIC	237	ABS	2	2	10VD 02VO 02VC 02MD 02MO 02MC 02RD 02RO	0	1	3.49514508247	None	None	None	None	1
2.7	2015_May_21_1320	s	s	7	2	SIC	238	ABS	2	0	02VD 02VO 10VC 02MD 02MO 02MC 02RD 02RO	0	1	2.23336315155	None	None	None	None	1
2.7	2015_May_21_1320	s	s	7	2	SIC	239	ABS	2	1	02VD 10VO 02VC 02MD 02MO 02MC 02RD 02RO	0	1	2.25925087929	None	None	None	None	1
2.7	2015_May_21_1320	s	s	7	2	SIC	240	ABS	0	1	02VD 02VO 02VC 02MD 02MO 02MC 02RD 10RO	0	1	3.73060488701	None	None	None	None	1
2.7	2015_May_21_1320	s	s	7	2	SIC	241	RC	0	1	02VD 02VO 02VC 02MD 02MO 02MC 02RD 09RO	1	0	3.70709776878	-499.0	223.0	-503	219	1
2.7	2015_May_21_1320	s	s	7	2	SIC	242	ABS	2	1	02VD 10VO 02VC 02MD 02MO 02MC 02RD 02RO	0	1	2.56555700302	None	None	None	None	1
2.7	2015_May_21_1320	s	s	7	2	SIC	243	RC	1	0	02VD 02VO 02VC 02MD 02MO 09MC 02RD 02RO	1	0	1.63554811478	-356.0	355.0	-360	343	1
2.7	2015_May_21_1320	s	s	7	2	SIC	244	ABS	1	0	02VD 02VO 02VC 02MD 02MO 10MC 02RD 02RO	0	1	3.00798296928	None	None	None	None	1
2.7	2015_May_21_1320	s	s	7	2	SIC	245	ABS	2	0	02VD 02VO 10VC 02MD 02MO 02MC 02RD 02RO	0	1	2.45139193535	None	None	None	None	1
2.7	2015_May_21_1320	s	s	7	2	SIC	246	ABS	2	2	10VD 02VO 02VC 02MD 02MO 02MC 02RD 02RO	0	1	3.03617882729	None	None	None	None	1
2.7	2015_May_21_1320	s	s	7	2	SIC	247	ABS	1	2	02VD 02VO 02VC 10MD 02MO 02MC 02RD 02RO	0	1	2.61913394928	None	None	None	None	1
2.7	2015_May_21_1320	s	s	7	2	SIC	248	RC	1	1	02VD 02VO 02VC 02MD 09MO 02MC 02RD 02RO	0	1	4.21319007874	225.0	-155.0	None	None	0
2.7	2015_May_21_1320	s	s	7	2	SIC	249	RC	2	1	02VD 09VO 02VC 02MD 02MO 02MC 02RD 02RO	1	0	1.42973709106	125.0	310.0	138	319	1
2.7	2015_May_21_1320	s	s	7	2	SIC	250	ABS	0	1	02VD 02VO 02VC 02MD 02MO 02MC 02RD 10RO	0	1	3.76347899437	None	None	None	None	1
2.7	2015_May_21_1320	s	s	7	2	SIC	251	RC	2	2	09VD 02VO 02VC 02MD 02MO 02MC 02RD 02RO	0	1	2.0591609478	455.0	284.0	None	None	0
2.7	2015_May_21_1320	s	s	7	2	SIC	252	ABS	0	2	02VD 02VO 02VC 02MD 02MO 02MC 10RD 02RO	0	1	3.39553904533	None	None	None	None	1
2.7	2015_May_21_1320	s	s	7	2	SIC	253	RC	1	2	02VD 02VO 02VC 09MD 02MO 02MC 02RD 02RO	1	0	4.72627496719	-274.0	-300.0	-274	-298	1
2.7	2015_May_21_1320	s	s	7	2	SIC	254	RC	2	0	02VD 02VO 09VC 02MD 02MO 02MC 02RD 02RO	0	1	3.91321802139	-118.0	-118.0	None	None	0
2.7	2015_May_21_1320	s	s	7	2	SIC	255	ABS	1	1	02VD 02VO 02VC 02MD 10MO 02MC 02RD 02RO	0	1	3.59872698784	None	None	None	None	1
2.7	2015_May_21_1320	s	s	7	2	SIC	256	RC	0	2	02VD 02VO 02VC 02MD 02MO 02MC 09RD 02RO	1	0	1.87939095497	20.0	116.0	23	119	1
2.7	2015_May_21_1320	s	s	7	2	SIC	257	ABS	1	1	02VD 02VO 02VC 02MD 10MO 02MC 02RD 02RO	0	1	3.11854910851	None	None	None	None	1
2.7	2015_May_21_1320	s	s	7	2	SIC	258	RC	2	2	09VD 02VO 02VC 02MD 02MO 02MC 02RD 02RO	1	0	2.58880281448	469.0	260.0	463	258	1
2.7	2015_May_21_1320	s	s	7	2	SIC	259	RC	1	1	02VD 02VO 02VC 02MD 09MO 02MC 02RD 02RO	1	0	1.93796610832	-135.0	294.0	-136	286	1
2.7	2015_May_21_1320	s	s	7	2	SIC	260	ABS	1	2	02VD 02VO 02VC 10MD 02MO 02MC 02RD 02RO	0	1	0.0651309490204	None	None	None	None	1
2.7	2015_May_21_1320	s	s	7	2	SIC	261	ABS	0	1	02VD 02VO 02VC 02MD 02MO 02MC 02RD 10RO	0	1	4.93879103661	None	None	None	None	1
2.7	2015_May_21_1320	s	s	7	2	SIC	262	RC	0	1	02VD 02VO 02VC 02MD 02MO 02MC 02RD 09RO	1	0	4.79852509499	-155.0	383.0	-152	380	1
2.7	2015_May_21_1320	s	s	7	2	SIC	263	RC	2	0	02VD 02VO 09VC 02MD 02MO 02MC 02RD 02RO	1	0	5.43236899376	-124.0	-8.0	-123	-9	1
2.7	2015_May_21_1320	s	s	7	2	SIC	264	ABS	2	2	10VD 02VO 02VC 02MD 02MO 02MC 02RD 02RO	0	1	2.59644699097	None	None	None	None	1
2.7	2015_May_21_1320	s	s	7	2	SIC	265	RC	1	2	02VD 02VO 02VC 09MD 02MO 02MC 02RD 02RO	1	0	1.22342014313	-48.0	-120.0	-43	-126	1
2.7	2015_May_21_1320	s	s	7	2	SIC	266	RC	2	1	02VD 09VO 02VC 02MD 02MO 02MC 02RD 02RO	1	0	1.92730784416	-112.0	-296.0	-109	-310	1
2.7	2015_May_21_1320	s	s	7	2	SIC	267	ABS	2	0	02VD 02VO 10VC 02MD 02MO 02MC 02RD 02RO	0	1	2.9542028904	None	None	None	None	1
2.7	2015_May_21_1320	s	s	7	2	SIC	268	ABS	2	1	02VD 10VO 02VC 02MD 02MO 02MC 02RD 02RO	0	1	3.01681399345	None	None	None	None	1
2.7	2015_May_21_1320	s	s	7	2	SIC	269	ABS	0	2	02VD 02VO 02VC 02MD 02MO 02MC 10RD 02RO	0	1	2.00023913383	None	None	None	None	1
2.7	2015_May_21_1320	s	s	7	2	SIC	270	RC	1	0	02VD 02VO 02VC 02MD 02MO 09MC 02RD 02RO	1	0	5.08234596252	168.0	247.0	168	245	1
2.7	2015_May_21_1320	s	s	7	2	SIC	271	RC	0	2	02VD 02VO 02VC 02MD 02MO 02MC 09RD 02RO	1	0	2.47796297073	-257.0	-186.0	-257	-187	1
2.7	2015_May_21_1320	s	s	7	2	SIC	272	ABS	1	0	02VD 02VO 02VC 02MD 02MO 10MC 02RD 02RO	0	1	4.1510848999	None	None	None	None	1
2.7	2015_May_21_1320	s	s	7	2	SIC	273	RC	1	2	02VD 02VO 02VC 09MD 02MO 02MC 02RD 02RO	1	0	2.01213598251	-534.0	228.0	-532	222	1
2.7	2015_May_21_1320	s	s	7	2	SIC	274	ABS	2	1	02VD 10VO 02VC 02MD 02MO 02MC 02RD 02RO	0	1	2.86866521835	None	None	None	None	1
2.7	2015_May_21_1320	s	s	7	2	SIC	275	RC	0	2	02VD 02VO 02VC 02MD 02MO 02MC 09RD 02RO	1	0	2.44274806976	96.0	228.0	95	226	1
2.7	2015_May_21_1320	s	s	7	2	SIC	276	ABS	1	0	02VD 02VO 02VC 02MD 02MO 10MC 02RD 02RO	0	1	3.90216612816	None	None	None	None	1
2.7	2015_May_21_1320	s	s	7	2	SIC	277	RC	1	0	02VD 02VO 02VC 02MD 02MO 09MC 02RD 02RO	1	0	3.49500513077	504.0	-41.0	506	-48	1
2.7	2015_May_21_1320	s	s	7	2	SIC	278	RC	0	1	02VD 02VO 02VC 02MD 02MO 02MC 02RD 09RO	0	1	3.95420908928	441.0	-240.0	None	None	0
2.7	2015_May_21_1320	s	s	7	2	SIC	279	ABS	0	1	02VD 02VO 02VC 02MD 02MO 02MC 02RD 10RO	0	1	3.91375303268	None	None	None	None	1
2.7	2015_May_21_1320	s	s	7	2	SIC	280	ABS	0	2	02VD 02VO 02VC 02MD 02MO 02MC 10RD 02RO	0	1	2.29459619522	None	None	None	None	1
2.7	2015_May_21_1320	s	s	7	2	SIC	281	ABS	1	1	02VD 02VO 02VC 02MD 10MO 02MC 02RD 02RO	0	1	3.12697219849	None	None	None	None	1
2.7	2015_May_21_1320	s	s	7	2	SIC	282	ABS	1	2	02VD 02VO 02VC 10MD 02MO 02MC 02RD 02RO	0	1	2.47988700867	None	None	None	None	1
2.7	2015_May_21_1320	s	s	7	2	SIC	283	RC	2	1	02VD 09VO 02VC 02MD 02MO 02MC 02RD 02RO	1	0	1.57663106918	-342.0	128.0	-345	126	1
2.7	2015_May_21_1320	s	s	7	2	SIC	284	RC	2	0	02VD 02VO 09VC 02MD 02MO 02MC 02RD 02RO	1	0	1.15285897255	-460.0	-124.0	-454	-126	1
2.7	2015_May_21_1320	s	s	7	2	SIC	285	ABS	2	0	02VD 02VO 10VC 02MD 02MO 02MC 02RD 02RO	0	1	2.73684501648	None	None	None	None	1
2.7	2015_May_21_1320	s	s	7	2	SIC	286	ABS	2	2	10VD 02VO 02VC 02MD 02MO 02MC 02RD 02RO	0	1	3.1952958107	None	None	None	None	1
2.7	2015_May_21_1320	s	s	7	2	SIC	287	RC	1	1	02VD 02VO 02VC 02MD 09MO 02MC 02RD 02RO	1	0	2.72546720505	-136.0	-199.0	-126	-192	1
2.7	2015_May_21_1320	s	s	7	2	SIC	288	RC	2	2	09VD 02VO 02VC 02MD 02MO 02MC 02RD 02RO	1	0	2.81249284744	-530.0	22.0	-532	31	1
2.7	2015_May_21_1320	s	s	7	2	SIC	289	ABS	0	2	02VD 02VO 02VC 02MD 02MO 02MC 10RD 02RO	0	1	2.9890999794	None	None	None	None	1
2.7	2015_May_21_1320	s	s	7	2	SIC	290	RC	1	1	02VD 02VO 02VC 02MD 09MO 02MC 02RD 02RO	1	0	2.19545316696	369.0	23.0	368	15	1
2.7	2015_May_21_1320	s	s	7	2	SIC	291	ABS	2	1	02VD 10VO 02VC 02MD 02MO 02MC 02RD 02RO	0	1	2.65478491783	None	None	None	None	1
2.7	2015_May_21_1320	s	s	7	2	SIC	292	RC	0	1	02VD 02VO 02VC 02MD 02MO 02MC 02RD 09RO	1	0	1.23525714874	-272.0	311.0	-267	309	1
2.7	2015_May_21_1320	s	s	7	2	SIC	293	ABS	1	0	02VD 02VO 02VC 02MD 02MO 10MC 02RD 02RO	0	1	2.32513904572	None	None	None	None	1
2.7	2015_May_21_1320	s	s	7	2	SIC	294	ABS	2	2	10VD 02VO 02VC 02MD 02MO 02MC 02RD 02RO	0	1	2.94834685326	None	None	None	None	1
2.7	2015_May_21_1320	s	s	7	2	SIC	295	RC	2	2	09VD 02VO 02VC 02MD 02MO 02MC 02RD 02RO	1	0	1.18323397636	-394.0	85.0	-410	94	1
2.7	2015_May_21_1320	s	s	7	2	SIC	296	ABS	0	1	02VD 02VO 02VC 02MD 02MO 02MC 02RD 10RO	0	1	4.78996801376	None	None	None	None	1
2.7	2015_May_21_1320	s	s	7	2	SIC	297	ABS	1	1	02VD 02VO 02VC 02MD 10MO 02MC 02RD 02RO	0	1	3.35395598412	None	None	None	None	1
2.7	2015_May_21_1320	s	s	7	2	SIC	298	RC	2	0	02VD 02VO 09VC 02MD 02MO 02MC 02RD 02RO	1	0	1.64722013474	179.0	70.0	185	71	1
2.7	2015_May_21_1320	s	s	7	2	SIC	299	RC	0	2	02VD 02VO 02VC 02MD 02MO 02MC 09RD 02RO	1	0	2.49471712112	179.0	-400.0	167	-395	1
2.7	2015_May_21_1320	s	s	7	2	SIC	300	ABS	2	0	02VD 02VO 10VC 02MD 02MO 02MC 02RD 02RO	0	1	3.74244999886	None	None	None	None	1
2.7	2015_May_21_1320	s	s	7	2	SIC	301	RC	1	0	02VD 02VO 02VC 02MD 02MO 09MC 02RD 02RO	0	1	3.65504598618	-142.0	94.0	None	None	0
2.7	2015_May_21_1320	s	s	7	2	SIC	302	RC	1	2	02VD 02VO 02VC 09MD 02MO 02MC 02RD 02RO	1	0	1.26688408852	169.0	-84.0	-528	299	0
2.7	2015_May_21_1320	s	s	7	2	SIC	303	RC	2	1	02VD 09VO 02VC 02MD 02MO 02MC 02RD 02RO	1	0	2.90161585808	524.0	-322.0	526	-314	1
2.7	2015_May_21_1320	s	s	7	2	SIC	304	ABS	1	2	02VD 02VO 02VC 10MD 02MO 02MC 02RD 02RO	0	1	3.17257595062	None	None	None	None	1
2.7	2015_May_21_1320	s	s	7	2	SIC	305	RC	2	1	02VD 09VO 02VC 02MD 02MO 02MC 02RD 02RO	1	0	3.81062698364	57.0	-314.0	68	-307	1
2.7	2015_May_21_1320	s	s	7	2	SIC	306	ABS	2	2	10VD 02VO 02VC 02MD 02MO 02MC 02RD 02RO	0	1	4.64429616928	None	None	None	None	1
2.7	2015_May_21_1320	s	s	7	2	SIC	307	RC	0	1	02VD 02VO 02VC 02MD 02MO 02MC 02RD 09RO	1	0	3.09257912636	-38.0	283.0	-36	278	1
2.7	2015_May_21_1320	s	s	7	2	SIC	308	ABS	1	1	02VD 02VO 02VC 02MD 10MO 02MC 02RD 02RO	0	1	3.88990807533	None	None	None	None	1
2.7	2015_May_21_1320	s	s	7	2	SIC	309	ABS	2	1	02VD 10VO 02VC 02MD 02MO 02MC 02RD 02RO	0	1	3.64822506905	None	None	None	None	1
2.7	2015_May_21_1320	s	s	7	2	SIC	310	ABS	0	1	02VD 02VO 02VC 02MD 02MO 02MC 02RD 10RO	0	1	3.30686807632	None	None	None	None	1
2.7	2015_May_21_1320	s	s	7	2	SIC	311	RC	1	1	02VD 02VO 02VC 02MD 09MO 02MC 02RD 02RO	1	0	1.28918504715	-299.0	124.0	-290	122	1
2.7	2015_May_21_1320	s	s	7	2	SIC	312	ABS	0	2	02VD 02VO 02VC 02MD 02MO 02MC 10RD 02RO	0	1	1.58840298653	None	None	None	None	1
2.7	2015_May_21_1320	s	s	7	2	SIC	313	RC	2	2	09VD 02VO 02VC 02MD 02MO 02MC 02RD 02RO	1	0	4.24356889725	76.0	11.0	72	16	1
2.7	2015_May_21_1320	s	s	7	2	SIC	314	RC	1	0	02VD 02VO 02VC 02MD 02MO 09MC 02RD 02RO	0	1	5.12818598747	336.0	47.0	None	None	0
2.7	2015_May_21_1320	s	s	7	2	SIC	315	RC	2	0	02VD 02VO 09VC 02MD 02MO 02MC 02RD 02RO	1	0	2.90662097931	481.0	53.0	488	53	1
2.7	2015_May_21_1320	s	s	7	2	SIC	316	ABS	1	0	02VD 02VO 02VC 02MD 02MO 10MC 02RD 02RO	0	1	3.76349806786	None	None	None	None	1
2.7	2015_May_21_1320	s	s	7	2	SIC	317	ABS	1	2	02VD 02VO 02VC 10MD 02MO 02MC 02RD 02RO	0	1	2.28262615204	None	None	None	None	1
2.7	2015_May_21_1320	s	s	7	2	SIC	318	RC	1	2	02VD 02VO 02VC 09MD 02MO 02MC 02RD 02RO	1	0	2.29236197472	279.0	-210.0	275	-209	1
2.7	2015_May_21_1320	s	s	7	2	SIC	319	ABS	2	0	02VD 02VO 10VC 02MD 02MO 02MC 02RD 02RO	0	1	2.12478303909	None	None	None	None	1
2.7	2015_May_21_1320	s	s	7	2	SIC	320	RC	0	2	02VD 02VO 02VC 02MD 02MO 02MC 09RD 02RO	1	0	3.49031496048	496.0	105.0	499	101	1
2.7	2015_May_21_1320	s	s	7	2	SIC	321	ABS	2	0	02VD 02VO 10VC 02MD 02MO 02MC 02RD 02RO	0	1	2.84284090996	None	None	None	None	1
2.7	2015_May_21_1320	s	s	7	2	SIC	322	ABS	2	1	02VD 10VO 02VC 02MD 02MO 02MC 02RD 02RO	0	1	3.47164106369	None	None	None	None	1
2.7	2015_May_21_1320	s	s	7	2	SIC	323	RC	2	1	02VD 09VO 02VC 02MD 02MO 02MC 02RD 02RO	1	0	1.44292187691	126.0	343.0	122	349	1
2.7	2015_May_21_1320	s	s	7	2	SIC	324	RC	1	0	02VD 02VO 02VC 02MD 02MO 09MC 02RD 02RO	1	0	1.84728193283	-537.0	299.0	-536	300	1
2.7	2015_May_21_1320	s	s	7	2	SIC	325	RC	2	0	02VD 02VO 09VC 02MD 02MO 02MC 02RD 02RO	1	0	2.18364906311	394.0	215.0	389	212	1
2.7	2015_May_21_1320	s	s	7	2	SIC	326	RC	1	1	02VD 02VO 02VC 02MD 09MO 02MC 02RD 02RO	1	0	2.85689592361	341.0	231.0	334	229	1
2.7	2015_May_21_1320	s	s	7	2	SIC	327	ABS	2	2	10VD 02VO 02VC 02MD 02MO 02MC 02RD 02RO	0	1	2.37219619751	None	None	None	None	1
2.7	2015_May_21_1320	s	s	7	2	SIC	328	RC	2	2	09VD 02VO 02VC 02MD 02MO 02MC 02RD 02RO	1	0	3.19291996956	335.0	-225.0	329	-222	1
2.7	2015_May_21_1320	s	s	7	2	SIC	329	ABS	1	0	02VD 02VO 02VC 02MD 02MO 10MC 02RD 02RO	0	1	5.0488781929	None	None	None	None	1
2.7	2015_May_21_1320	s	s	7	2	SIC	330	ABS	0	2	02VD 02VO 02VC 02MD 02MO 02MC 10RD 02RO	0	1	2.28965306282	None	None	None	None	1
2.7	2015_May_21_1320	s	s	7	2	SIC	331	ABS	1	1	02VD 02VO 02VC 02MD 10MO 02MC 02RD 02RO	0	1	3.05516791344	None	None	None	None	1
2.7	2015_May_21_1320	s	s	7	2	SIC	332	RC	0	1	02VD 02VO 02VC 02MD 02MO 02MC 02RD 09RO	1	0	3.02476811409	43.0	363.0	36	361	1
2.7	2015_May_21_1320	s	s	7	2	SIC	333	ABS	1	2	02VD 02VO 02VC 10MD 02MO 02MC 02RD 02RO	0	1	2.6322619915	None	None	None	None	1
2.7	2015_May_21_1320	s	s	7	2	SIC	334	RC	0	2	02VD 02VO 02VC 02MD 02MO 02MC 09RD 02RO	1	0	0.78297495842	-238.0	31.0	-241	37	1
2.7	2015_May_21_1320	s	s	7	2	SIC	335	ABS	0	1	02VD 02VO 02VC 02MD 02MO 02MC 02RD 10RO	0	1	3.40105390549	None	None	None	None	1
2.7	2015_May_21_1320	s	s	7	2	SIC	336	RC	1	2	02VD 02VO 02VC 09MD 02MO 02MC 02RD 02RO	1	0	2.08952593803	-105.0	65.0	-111	65	1
2.7	2015_May_21_1320	s	s	7	2	SIC	337	ABS	2	0	02VD 02VO 10VC 02MD 02MO 02MC 02RD 02RO	1	0	2.16510391235	None	None	177	56	0
2.7	2015_May_21_1320	s	s	7	2	SIC	338	RC	1	0	02VD 02VO 02VC 02MD 02MO 09MC 02RD 02RO	1	0	1.63128709793	-82.0	37.0	-85	33	1
2.7	2015_May_21_1320	s	s	7	2	SIC	339	ABS	0	2	02VD 02VO 02VC 02MD 02MO 02MC 10RD 02RO	0	1	3.89297509193	None	None	None	None	1
2.7	2015_May_21_1320	s	s	7	2	SIC	340	RC	2	1	02VD 09VO 02VC 02MD 02MO 02MC 02RD 02RO	0	1	6.76246500015	-115.0	395.0	None	None	0
2.7	2015_May_21_1320	s	s	7	2	SIC	341	RC	2	0	02VD 02VO 09VC 02MD 02MO 02MC 02RD 02RO	1	0	6.04131293297	147.0	100.0	147	98	1
2.7	2015_May_21_1320	s	s	7	2	SIC	342	ABS	1	2	02VD 02VO 02VC 10MD 02MO 02MC 02RD 02RO	0	1	3.21270704269	None	None	None	None	1
2.7	2015_May_21_1320	s	s	7	2	SIC	343	ABS	1	0	02VD 02VO 02VC 02MD 02MO 10MC 02RD 02RO	0	1	4.44622087479	None	None	None	None	1
2.7	2015_May_21_1320	s	s	7	2	SIC	344	ABS	2	1	02VD 10VO 02VC 02MD 02MO 02MC 02RD 02RO	0	1	2.8831050396	None	None	None	None	1
2.7	2015_May_21_1320	s	s	7	2	SIC	345	RC	0	1	02VD 02VO 02VC 02MD 02MO 02MC 02RD 09RO	1	0	2.26660585403	-400.0	-322.0	-391	-321	1
2.7	2015_May_21_1320	s	s	7	2	SIC	346	ABS	0	1	02VD 02VO 02VC 02MD 02MO 02MC 02RD 10RO	0	1	3.94932317734	None	None	None	None	1
2.7	2015_May_21_1320	s	s	7	2	SIC	347	RC	2	2	09VD 02VO 02VC 02MD 02MO 02MC 02RD 02RO	1	0	1.20697283745	-259.0	-170.0	-254	-170	1
2.7	2015_May_21_1320	s	s	7	2	SIC	348	RC	1	1	02VD 02VO 02VC 02MD 09MO 02MC 02RD 02RO	1	0	1.0302400589	-468.0	351.0	-472	355	1
2.7	2015_May_21_1320	s	s	7	2	SIC	349	RC	0	2	02VD 02VO 02VC 02MD 02MO 02MC 09RD 02RO	1	0	1.89149999619	-213.0	-263.0	-218	-266	1
2.7	2015_May_21_1320	s	s	7	2	SIC	350	ABS	1	1	02VD 02VO 02VC 02MD 10MO 02MC 02RD 02RO	0	1	4.37796497345	None	None	None	None	1
2.7	2015_May_21_1320	s	s	7	2	SIC	351	RC	1	2	02VD 02VO 02VC 09MD 02MO 02MC 02RD 02RO	1	0	1.3035159111	-130.0	-259.0	-507	376	0
2.7	2015_May_21_1320	s	s	7	2	SIC	352	ABS	2	2	10VD 02VO 02VC 02MD 02MO 02MC 02RD 02RO	0	1	3.56095004082	None	None	None	None	1
2.7	2015_May_21_1320	s	s	7	2	SIC	353	RC	1	2	02VD 02VO 02VC 09MD 02MO 02MC 02RD 02RO	1	0	2.68291687965	200.0	264.0	204	266	1
2.7	2015_May_21_1320	s	s	7	2	SIC	354	RC	1	0	02VD 02VO 02VC 02MD 02MO 09MC 02RD 02RO	1	0	1.20755410194	-448.0	-407.0	-436	-398	1
2.7	2015_May_21_1320	s	s	7	2	SIC	355	ABS	1	2	02VD 02VO 02VC 10MD 02MO 02MC 02RD 02RO	0	1	3.51868414879	None	None	None	None	1
2.7	2015_May_21_1320	s	s	7	2	SIC	356	ABS	0	1	02VD 02VO 02VC 02MD 02MO 02MC 02RD 10RO	0	1	3.25978207588	None	None	None	None	1
2.7	2015_May_21_1320	s	s	7	2	SIC	357	ABS	2	1	02VD 10VO 02VC 02MD 02MO 02MC 02RD 02RO	0	1	1.74176692963	None	None	None	None	1
2.7	2015_May_21_1320	s	s	7	2	SIC	358	ABS	2	2	10VD 02VO 02VC 02MD 02MO 02MC 02RD 02RO	0	1	3.02433896065	None	None	None	None	1
2.7	2015_May_21_1320	s	s	7	2	SIC	359	RC	1	1	02VD 02VO 02VC 02MD 09MO 02MC 02RD 02RO	1	0	1.54129099846	-318.0	-37.0	-315	-44	1
2.7	2015_May_21_1320	s	s	7	2	SIC	360	ABS	1	0	02VD 02VO 02VC 02MD 02MO 10MC 02RD 02RO	0	1	5.35875201225	None	None	None	None	1
2.7	2015_May_21_1320	s	s	7	2	SIC	361	RC	0	1	02VD 02VO 02VC 02MD 02MO 02MC 02RD 09RO	1	0	2.2121989727	-334.0	-147.0	-325	-147	1
2.7	2015_May_21_1320	s	s	7	2	SIC	362	RC	2	2	09VD 02VO 02VC 02MD 02MO 02MC 02RD 02RO	1	0	2.37127709389	-99.0	-125.0	-98	-130	1
2.7	2015_May_21_1320	s	s	7	2	SIC	363	ABS	1	1	02VD 02VO 02VC 02MD 10MO 02MC 02RD 02RO	0	1	3.45987701416	None	None	None	None	1
2.7	2015_May_21_1320	s	s	7	2	SIC	364	RC	2	0	02VD 02VO 09VC 02MD 02MO 02MC 02RD 02RO	1	0	1.07139897346	-279.0	401.0	-270	406	1
2.7	2015_May_21_1320	s	s	7	2	SIC	365	RC	2	1	02VD 09VO 02VC 02MD 02MO 02MC 02RD 02RO	1	0	2.36043405533	189.0	-222.0	188	-226	1
2.7	2015_May_21_1320	s	s	7	2	SIC	366	RC	0	2	02VD 02VO 02VC 02MD 02MO 02MC 09RD 02RO	1	0	2.48278784752	73.0	163.0	82	163	1
2.7	2015_May_21_1320	s	s	7	2	SIC	367	ABS	2	0	02VD 02VO 10VC 02MD 02MO 02MC 02RD 02RO	0	1	3.13043904305	None	None	None	None	1
2.7	2015_May_21_1320	s	s	7	2	SIC	368	ABS	0	2	02VD 02VO 02VC 02MD 02MO 02MC 10RD 02RO	0	1	2.02966499329	None	None	None	None	1
2.7	2015_May_21_1320	s	s	7	2	SIC	369	ABS	1	2	02VD 02VO 02VC 10MD 02MO 02MC 02RD 02RO	0	1	2.27107596397	None	None	None	None	1
2.7	2015_May_21_1320	s	s	7	2	SIC	370	RC	1	0	02VD 02VO 02VC 02MD 02MO 09MC 02RD 02RO	1	0	2.44780015945	244.0	305.0	244	308	1
2.7	2015_May_21_1320	s	s	7	2	SIC	371	ABS	0	1	02VD 02VO 02VC 02MD 02MO 02MC 02RD 10RO	0	1	5.39871191978	None	None	None	None	1
2.7	2015_May_21_1320	s	s	7	2	SIC	372	ABS	2	1	02VD 10VO 02VC 02MD 02MO 02MC 02RD 02RO	0	1	2.78898692131	None	None	None	None	1
2.7	2015_May_21_1320	s	s	7	2	SIC	373	RC	2	1	02VD 09VO 02VC 02MD 02MO 02MC 02RD 02RO	1	0	1.67928695679	-382.0	-47.0	-378	-44	1
2.7	2015_May_21_1320	s	s	7	2	SIC	374	ABS	0	2	02VD 02VO 02VC 02MD 02MO 02MC 10RD 02RO	0	1	2.23046898842	None	None	None	None	1
2.7	2015_May_21_1320	s	s	7	2	SIC	375	ABS	2	0	02VD 02VO 10VC 02MD 02MO 02MC 02RD 02RO	0	1	2.06599593163	None	None	None	None	1
2.7	2015_May_21_1320	s	s	7	2	SIC	376	ABS	1	1	02VD 02VO 02VC 02MD 10MO 02MC 02RD 02RO	0	1	3.707062006	None	None	None	None	1
2.7	2015_May_21_1320	s	s	7	2	SIC	377	RC	0	1	02VD 02VO 02VC 02MD 02MO 02MC 02RD 09RO	1	0	4.6840929985	166.0	123.0	160	123	1
2.7	2015_May_21_1320	s	s	7	2	SIC	378	RC	2	0	02VD 02VO 09VC 02MD 02MO 02MC 02RD 02RO	1	0	3.03118395805	356.0	-117.0	358	-111	1
2.7	2015_May_21_1320	s	s	7	2	SIC	379	ABS	2	2	10VD 02VO 02VC 02MD 02MO 02MC 02RD 02RO	0	1	3.4081659317	None	None	None	None	1
2.7	2015_May_21_1320	s	s	7	2	SIC	380	ABS	1	0	02VD 02VO 02VC 02MD 02MO 10MC 02RD 02RO	0	1	3.66668009758	None	None	None	None	1
2.7	2015_May_21_1320	s	s	7	2	SIC	381	RC	1	2	02VD 02VO 02VC 09MD 02MO 02MC 02RD 02RO	1	0	1.09401798248	-212.0	291.0	-203	291	1
2.7	2015_May_21_1320	s	s	7	2	SIC	382	RC	0	2	02VD 02VO 02VC 02MD 02MO 02MC 09RD 02RO	0	1	2.28961086273	520.0	334.0	None	None	0
2.7	2015_May_21_1320	s	s	7	2	SIC	383	RC	2	2	09VD 02VO 02VC 02MD 02MO 02MC 02RD 02RO	1	0	1.87764811516	198.0	172.0	194	174	1
2.7	2015_May_21_1320	s	s	7	2	SIC	384	RC	1	1	02VD 02VO 02VC 02MD 09MO 02MC 02RD 02RO	1	0	3.16937494278	98.0	197.0	92	198	1
2.7	2015_May_21_1320	s	s	7	2	SIC	385	ABS	2	1	02VD 10VO 02VC 02MD 02MO 02MC 02RD 02RO	0	1	2.16037297249	None	None	None	None	1
2.7	2015_May_21_1320	s	s	7	2	SIC	386	ABS	2	2	10VD 02VO 02VC 02MD 02MO 02MC 02RD 02RO	0	1	2.3181579113	None	None	None	None	1
2.7	2015_May_21_1320	s	s	7	2	SIC	387	ABS	1	1	02VD 02VO 02VC 02MD 10MO 02MC 02RD 02RO	0	1	4.13083195686	None	None	None	None	1
2.7	2015_May_21_1320	s	s	7	2	SIC	388	RC	1	0	02VD 02VO 02VC 02MD 02MO 09MC 02RD 02RO	1	0	1.68247294426	-121.0	-227.0	-117	-230	1
2.7	2015_May_21_1320	s	s	7	2	SIC	389	ABS	0	1	02VD 02VO 02VC 02MD 02MO 02MC 02RD 10RO	0	1	5.06654214859	None	None	None	None	1
2.7	2015_May_21_1320	s	s	7	2	SIC	390	ABS	2	0	02VD 02VO 10VC 02MD 02MO 02MC 02RD 02RO	0	1	2.25444889069	None	None	None	None	1
2.7	2015_May_21_1320	s	s	7	2	SIC	391	RC	0	1	02VD 02VO 02VC 02MD 02MO 02MC 02RD 09RO	1	0	1.66584181786	-186.0	180.0	-183	177	1
2.7	2015_May_21_1320	s	s	7	2	SIC	392	RC	2	1	02VD 09VO 02VC 02MD 02MO 02MC 02RD 02RO	1	0	1.11249017715	-230.0	203.0	-224	200	1
2.7	2015_May_21_1320	s	s	7	2	SIC	393	RC	2	0	02VD 02VO 09VC 02MD 02MO 02MC 02RD 02RO	0	1	5.07237195969	-18.0	-265.0	None	None	0
2.7	2015_May_21_1320	s	s	7	2	SIC	394	RC	1	1	02VD 02VO 02VC 02MD 09MO 02MC 02RD 02RO	1	0	2.23061704636	120.0	-323.0	120	-324	1
2.7	2015_May_21_1320	s	s	7	2	SIC	395	ABS	1	0	02VD 02VO 02VC 02MD 02MO 10MC 02RD 02RO	0	1	3.88364315033	None	None	None	None	1
2.7	2015_May_21_1320	s	s	7	2	SIC	396	RC	0	2	02VD 02VO 02VC 02MD 02MO 02MC 09RD 02RO	1	0	1.2352540493	-371.0	-284.0	-367	-282	1
2.7	2015_May_21_1320	s	s	7	2	SIC	397	RC	2	2	09VD 02VO 02VC 02MD 02MO 02MC 02RD 02RO	1	0	1.40001606941	-83.0	53.0	-72	53	1
2.7	2015_May_21_1320	s	s	7	2	SIC	398	ABS	0	2	02VD 02VO 02VC 02MD 02MO 02MC 10RD 02RO	0	1	2.92220616341	None	None	None	None	1
2.7	2015_May_21_1320	s	s	7	2	SIC	399	RC	1	2	02VD 02VO 02VC 09MD 02MO 02MC 02RD 02RO	1	0	1.08882808685	-487.0	-200.0	-475	-199	1
2.7	2015_May_21_1320	s	s	7	2	SIC	400	ABS	1	2	02VD 02VO 02VC 10MD 02MO 02MC 02RD 02RO	0	1	2.51287579536	None	None	None	None	1
2.7	2015_May_21_1320	s	s	7	2	SIC	401	ABS	2	1	02VD 10VO 02VC 02MD 02MO 02MC 02RD 02RO	0	1	4.01350903511	None	None	None	None	1
2.7	2015_May_21_1320	s	s	7	2	SIC	402	ABS	1	2	02VD 02VO 02VC 10MD 02MO 02MC 02RD 02RO	0	1	2.58457493782	None	None	None	None	1
2.7	2015_May_21_1320	s	s	7	2	SIC	403	ABS	2	2	10VD 02VO 02VC 02MD 02MO 02MC 02RD 02RO	0	1	2.37745380402	None	None	None	None	1
2.7	2015_May_21_1320	s	s	7	2	SIC	404	RC	2	1	02VD 09VO 02VC 02MD 02MO 02MC 02RD 02RO	1	0	2.0425260067	259.0	206.0	258	205	1
2.7	2015_May_21_1320	s	s	7	2	SIC	405	ABS	2	0	02VD 02VO 10VC 02MD 02MO 02MC 02RD 02RO	0	1	1.83552622795	None	None	None	None	1
2.7	2015_May_21_1320	s	s	7	2	SIC	406	RC	1	0	02VD 02VO 02VC 02MD 02MO 09MC 02RD 02RO	1	0	1.1151509285	-300.0	-36.0	-298	-39	1
2.7	2015_May_21_1320	s	s	7	2	SIC	407	ABS	1	1	02VD 02VO 02VC 02MD 10MO 02MC 02RD 02RO	0	1	2.71836304665	None	None	None	None	1
2.7	2015_May_21_1320	s	s	7	2	SIC	408	RC	0	1	02VD 02VO 02VC 02MD 02MO 02MC 02RD 09RO	0	1	3.36082696915	-290.0	-357.0	None	None	0
2.7	2015_May_21_1320	s	s	7	2	SIC	409	ABS	1	0	02VD 02VO 02VC 02MD 02MO 10MC 02RD 02RO	0	1	3.38428711891	None	None	None	None	1
2.7	2015_May_21_1320	s	s	7	2	SIC	410	ABS	0	2	02VD 02VO 02VC 02MD 02MO 02MC 10RD 02RO	0	1	1.6540350914	None	None	None	None	1
2.7	2015_May_21_1320	s	s	7	2	SIC	411	RC	0	2	02VD 02VO 02VC 02MD 02MO 02MC 09RD 02RO	1	0	3.71885895729	-241.0	-45.0	-237	-44	1
2.7	2015_May_21_1320	s	s	7	2	SIC	412	RC	2	2	09VD 02VO 02VC 02MD 02MO 02MC 02RD 02RO	1	0	1.32941102982	-426.0	-366.0	-421	-360	1
2.7	2015_May_21_1320	s	s	7	2	SIC	413	RC	1	1	02VD 02VO 02VC 02MD 09MO 02MC 02RD 02RO	1	0	1.05629086494	-335.0	-383.0	-342	-388	1
2.7	2015_May_21_1320	s	s	7	2	SIC	414	RC	2	0	02VD 02VO 09VC 02MD 02MO 02MC 02RD 02RO	1	0	2.9260020256	309.0	-236.0	307	-234	1
2.7	2015_May_21_1320	s	s	7	2	SIC	415	ABS	0	1	02VD 02VO 02VC 02MD 02MO 02MC 02RD 10RO	0	1	3.30698513985	None	None	None	None	1
2.7	2015_May_21_1320	s	s	7	2	SIC	416	RC	1	2	02VD 02VO 02VC 09MD 02MO 02MC 02RD 02RO	1	0	1.31268382072	-232.0	305.0	-230	307	1
2.7	2015_May_21_1320	s	s	7	2	SIC	417	ABS	2	0	02VD 02VO 10VC 02MD 02MO 02MC 02RD 02RO	0	1	2.23581910133	None	None	None	None	1
2.7	2015_May_21_1320	s	s	7	2	SIC	418	ABS	2	2	10VD 02VO 02VC 02MD 02MO 02MC 02RD 02RO	0	1	1.74841213226	None	None	None	None	1
2.7	2015_May_21_1320	s	s	7	2	SIC	419	RC	0	1	02VD 02VO 02VC 02MD 02MO 02MC 02RD 09RO	1	0	4.02486610413	199.0	142.0	190	140	1
2.7	2015_May_21_1320	s	s	7	2	SIC	420	ABS	1	2	02VD 02VO 02VC 10MD 02MO 02MC 02RD 02RO	0	1	4.84883117676	None	None	None	None	1
2.7	2015_May_21_1320	s	s	7	2	SIC	421	RC	2	0	02VD 02VO 09VC 02MD 02MO 02MC 02RD 02RO	1	0	1.81247806549	-39.0	-365.0	-29	-363	1
2.7	2015_May_21_1320	s	s	7	2	SIC	422	RC	0	2	02VD 02VO 02VC 02MD 02MO 02MC 09RD 02RO	1	0	0.805972099304	-225.0	161.0	-230	159	1
2.7	2015_May_21_1320	s	s	7	2	SIC	423	RC	2	1	02VD 09VO 02VC 02MD 02MO 02MC 02RD 02RO	1	0	1.23207092285	-401.0	299.0	-408	303	1
2.7	2015_May_21_1320	s	s	7	2	SIC	424	ABS	0	1	02VD 02VO 02VC 02MD 02MO 02MC 02RD 10RO	0	1	3.64028477669	None	None	None	None	1
2.7	2015_May_21_1320	s	s	7	2	SIC	425	RC	1	2	02VD 02VO 02VC 09MD 02MO 02MC 02RD 02RO	1	0	5.89170694351	-130.0	-409.0	-128	-423	1
2.7	2015_May_21_1320	s	s	7	2	SIC	426	ABS	1	1	02VD 02VO 02VC 02MD 10MO 02MC 02RD 02RO	0	1	3.59759306908	None	None	None	None	1
2.7	2015_May_21_1320	s	s	7	2	SIC	427	ABS	2	1	02VD 10VO 02VC 02MD 02MO 02MC 02RD 02RO	0	1	2.87976002693	None	None	None	None	1
2.7	2015_May_21_1320	s	s	7	2	SIC	428	RC	2	2	09VD 02VO 02VC 02MD 02MO 02MC 02RD 02RO	1	0	1.98358201981	374.0	-97.0	367	-96	1
2.7	2015_May_21_1320	s	s	7	2	SIC	429	RC	1	1	02VD 02VO 02VC 02MD 09MO 02MC 02RD 02RO	1	0	3.09498095512	489.0	158.0	491	161	1
2.7	2015_May_21_1320	s	s	7	2	SIC	430	ABS	0	2	02VD 02VO 02VC 02MD 02MO 02MC 10RD 02RO	0	1	2.24747300148	None	None	None	None	1
2.7	2015_May_21_1320	s	s	7	2	SIC	431	ABS	1	0	02VD 02VO 02VC 02MD 02MO 10MC 02RD 02RO	0	1	3.86686706543	None	None	None	None	1
2.7	2015_May_21_1320	s	s	7	2	SIC	432	RC	1	0	02VD 02VO 02VC 02MD 02MO 09MC 02RD 02RO	1	0	1.58338093758	-368.0	-131.0	-372	-138	1
2.7	2015_May_21_1320	s	s	7	2	SIC	433	RC	1	1	02VD 02VO 02VC 02MD 09MO 02MC 02RD 02RO	1	0	2.38380122185	-37.0	-178.0	-42	-179	1
2.7	2015_May_21_1320	s	s	7	2	SIC	434	ABS	1	2	02VD 02VO 02VC 10MD 02MO 02MC 02RD 02RO	0	1	2.05900812149	None	None	None	None	1
2.7	2015_May_21_1320	s	s	7	2	SIC	435	RC	0	1	02VD 02VO 02VC 02MD 02MO 02MC 02RD 09RO	1	0	1.12930297852	-333.0	229.0	-328	236	1
2.7	2015_May_21_1320	s	s	7	2	SIC	436	ABS	1	0	02VD 02VO 02VC 02MD 02MO 10MC 02RD 02RO	0	1	2.87157893181	None	None	None	None	1
2.7	2015_May_21_1320	s	s	7	2	SIC	437	RC	1	0	02VD 02VO 02VC 02MD 02MO 09MC 02RD 02RO	1	0	2.36519098282	315.0	-375.0	314	-381	1
2.7	2015_May_21_1320	s	s	7	2	SIC	438	RC	2	0	02VD 02VO 09VC 02MD 02MO 02MC 02RD 02RO	1	0	1.37648701668	228.0	-376.0	228	-382	1
2.7	2015_May_21_1320	s	s	7	2	SIC	439	ABS	2	2	10VD 02VO 02VC 02MD 02MO 02MC 02RD 02RO	0	1	2.00042295456	None	None	None	None	1
2.7	2015_May_21_1320	s	s	7	2	SIC	440	ABS	1	1	02VD 02VO 02VC 02MD 10MO 02MC 02RD 02RO	0	1	4.20143389702	None	None	None	None	1
2.7	2015_May_21_1320	s	s	7	2	SIC	441	ABS	0	1	02VD 02VO 02VC 02MD 02MO 02MC 02RD 10RO	0	1	4.99714112282	None	None	None	None	1
2.7	2015_May_21_1320	s	s	7	2	SIC	442	RC	2	1	02VD 09VO 02VC 02MD 02MO 02MC 02RD 02RO	1	0	1.32626199722	-174.0	343.0	-174	345	1
2.7	2015_May_21_1320	s	s	7	2	SIC	443	ABS	0	2	02VD 02VO 02VC 02MD 02MO 02MC 10RD 02RO	0	1	1.97681689262	None	None	None	None	1
2.7	2015_May_21_1320	s	s	7	2	SIC	444	RC	1	2	02VD 02VO 02VC 09MD 02MO 02MC 02RD 02RO	1	0	1.6424908638	415.0	-354.0	416	-352	1
2.7	2015_May_21_1320	s	s	7	2	SIC	445	ABS	2	1	02VD 10VO 02VC 02MD 02MO 02MC 02RD 02RO	0	1	2.31815695763	None	None	None	None	1
2.7	2015_May_21_1320	s	s	7	2	SIC	446	RC	2	2	09VD 02VO 02VC 02MD 02MO 02MC 02RD 02RO	1	0	0.867434978485	-369.0	140.0	-369	131	1
2.7	2015_May_21_1320	s	s	7	2	SIC	447	ABS	2	0	02VD 02VO 10VC 02MD 02MO 02MC 02RD 02RO	0	1	1.96164703369	None	None	None	None	1
2.7	2015_May_21_1320	s	s	7	2	SIC	448	RC	0	2	02VD 02VO 02VC 02MD 02MO 02MC 09RD 02RO	1	0	1.2234518528	3.0	-328.0	6	-334	1
2.7	2015_May_21_1320	s	s	7	2	SIC	449	ABS	1	2	02VD 02VO 02VC 10MD 02MO 02MC 02RD 02RO	0	1	1.97217798233	None	None	None	None	1
2.7	2015_May_21_1320	s	s	7	2	SIC	450	RC	1	2	02VD 02VO 02VC 09MD 02MO 02MC 02RD 02RO	1	0	2.58890891075	-452.0	-321.0	-449	-320	1
2.7	2015_May_21_1320	s	s	7	2	SIC	451	ABS	0	1	02VD 02VO 02VC 02MD 02MO 02MC 02RD 10RO	0	1	3.43251800537	None	None	None	None	1
2.7	2015_May_21_1320	s	s	7	2	SIC	452	RC	1	1	02VD 02VO 02VC 02MD 09MO 02MC 02RD 02RO	1	0	1.42357492447	52.0	-274.0	61	-272	1
2.7	2015_May_21_1320	s	s	7	2	SIC	453	ABS	1	0	02VD 02VO 02VC 02MD 02MO 10MC 02RD 02RO	0	1	2.44265699387	None	None	None	None	1
2.7	2015_May_21_1320	s	s	7	2	SIC	454	ABS	2	0	02VD 02VO 10VC 02MD 02MO 02MC 02RD 02RO	0	1	1.96261501312	None	None	None	None	1
2.7	2015_May_21_1320	s	s	7	2	SIC	455	RC	0	1	02VD 02VO 02VC 02MD 02MO 02MC 02RD 09RO	1	0	0.98814702034	-510.0	112.0	-509	111	1
2.7	2015_May_21_1320	s	s	7	2	SIC	456	ABS	0	2	02VD 02VO 02VC 02MD 02MO 02MC 10RD 02RO	0	1	2.25928092003	None	None	None	None	1
2.7	2015_May_21_1320	s	s	7	2	SIC	457	ABS	1	1	02VD 02VO 02VC 02MD 10MO 02MC 02RD 02RO	0	1	3.63373398781	None	None	None	None	1
2.7	2015_May_21_1320	s	s	7	2	SIC	458	RC	2	0	02VD 02VO 09VC 02MD 02MO 02MC 02RD 02RO	1	0	2.47798895836	400.0	66.0	395	57	1
2.7	2015_May_21_1320	s	s	7	2	SIC	459	ABS	2	2	10VD 02VO 02VC 02MD 02MO 02MC 02RD 02RO	0	1	2.49138617516	None	None	None	None	1
2.7	2015_May_21_1320	s	s	7	2	SIC	460	RC	2	2	09VD 02VO 02VC 02MD 02MO 02MC 02RD 02RO	1	0	1.80894303322	-385.0	-399.0	-392	-394	1
2.7	2015_May_21_1320	s	s	7	2	SIC	461	RC	0	2	02VD 02VO 02VC 02MD 02MO 02MC 09RD 02RO	1	0	1.76498794556	-277.0	-343.0	-280	-350	1
2.7	2015_May_21_1320	s	s	7	2	SIC	462	RC	2	1	02VD 09VO 02VC 02MD 02MO 02MC 02RD 02RO	1	0	3.57263112068	-330.0	-128.0	-327	-123	1
2.7	2015_May_21_1320	s	s	7	2	SIC	463	RC	1	0	02VD 02VO 02VC 02MD 02MO 09MC 02RD 02RO	1	0	1.60861515999	-26.0	286.0	-13	290	1
2.7	2015_May_21_1320	s	s	7	2	SIC	464	ABS	2	1	02VD 10VO 02VC 02MD 02MO 02MC 02RD 02RO	0	1	2.33670592308	None	None	None	None	1
2.7	2015_May_21_1320	s	s	7	2	SIC	465	RC	2	1	02VD 09VO 02VC 02MD 02MO 02MC 02RD 02RO	1	0	1.09393978119	-75.0	-144.0	-70	-155	1
2.7	2015_May_21_1320	s	s	7	2	SIC	466	ABS	2	0	02VD 02VO 10VC 02MD 02MO 02MC 02RD 02RO	0	1	3.14197993279	None	None	None	None	1
2.7	2015_May_21_1320	s	s	7	2	SIC	467	RC	2	2	09VD 02VO 02VC 02MD 02MO 02MC 02RD 02RO	1	0	0.959264993668	-106.0	-99.0	-108	-103	1
2.7	2015_May_21_1320	s	s	7	2	SIC	468	RC	2	0	02VD 02VO 09VC 02MD 02MO 02MC 02RD 02RO	1	0	1.13640499115	-109.0	3.0	-104	-2	1
2.7	2015_May_21_1320	s	s	7	2	SIC	469	RC	0	2	02VD 02VO 02VC 02MD 02MO 02MC 09RD 02RO	1	0	2.26791000366	-388.0	-292.0	-393	-297	1
2.7	2015_May_21_1320	s	s	7	2	SIC	470	RC	1	2	02VD 02VO 02VC 09MD 02MO 02MC 02RD 02RO	1	0	2.04736399651	-157.0	-80.0	-148	-84	1
2.7	2015_May_21_1320	s	s	7	2	SIC	471	ABS	0	1	02VD 02VO 02VC 02MD 02MO 02MC 02RD 10RO	0	1	4.08374190331	None	None	None	None	1
2.7	2015_May_21_1320	s	s	7	2	SIC	472	ABS	0	2	02VD 02VO 02VC 02MD 02MO 02MC 10RD 02RO	0	1	2.30140089989	None	None	None	None	1
2.7	2015_May_21_1320	s	s	7	2	SIC	473	RC	0	1	02VD 02VO 02VC 02MD 02MO 02MC 02RD 09RO	1	0	3.07826805115	141.0	-26.0	143	-27	1
2.7	2015_May_21_1320	s	s	7	2	SIC	474	ABS	1	2	02VD 02VO 02VC 10MD 02MO 02MC 02RD 02RO	0	1	2.09448981285	None	None	None	None	1
2.7	2015_May_21_1320	s	s	7	2	SIC	475	RC	1	1	02VD 02VO 02VC 02MD 09MO 02MC 02RD 02RO	1	0	1.64721798897	108.0	-106.0	104	-104	1
2.7	2015_May_21_1320	s	s	7	2	SIC	476	ABS	2	2	10VD 02VO 02VC 02MD 02MO 02MC 02RD 02RO	0	1	2.12502193451	None	None	None	None	1
2.7	2015_May_21_1320	s	s	7	2	SIC	477	ABS	1	1	02VD 02VO 02VC 02MD 10MO 02MC 02RD 02RO	0	1	3.03642296791	None	None	None	None	1
2.7	2015_May_21_1320	s	s	7	2	SIC	478	ABS	1	0	02VD 02VO 02VC 02MD 02MO 10MC 02RD 02RO	0	1	3.06701803207	None	None	None	None	1
2.7	2015_May_21_1320	s	s	7	2	SIC	479	RC	1	0	02VD 02VO 02VC 02MD 02MO 09MC 02RD 02RO	0	1	3.56582593918	127.0	129.0	None	None	0
2.7	2015_May_21_1320	s	s	7	2	SIC	480	ABS	2	1	02VD 10VO 02VC 02MD 02MO 02MC 02RD 02RO	1	0	2.04196000099	None	None	-461	92	0
