Version	Date	Stimuli	Method	Subject	Session	Condition	Trial	Target	Channel1	Channel2	Distractors	LMouseButton	RMouseButton	RT	TargetX	TargetY	ResponseX	ResponseY	Correct
2.7	2015_May_21_1746	s	s	7	3	Capacity	1	RC	2	0	15VC 08MC	1	0	2.07109808922	108.0	-98.0	114	-105	1
2.7	2015_May_21_1746	s	s	7	3	Capacity	2	ABS	1	0	08VC 16MC	1	0	0.103322982788	None	None	-116	-77	0
2.7	2015_May_21_1746	s	s	7	3	Capacity	3	ABS	2	0	16VC 08MC	0	1	2.76553297043	None	None	None	None	1
2.7	2015_May_21_1746	s	s	7	3	Capacity	4	RC	1	0	08VC 15MC	1	0	3.44470095634	340.0	349.0	330	349	1
2.7	2015_May_21_1746	s	s	7	3	Capacity	5	ABS	1	0	08VC 16MC	0	1	3.9042031765	None	None	None	None	1
2.7	2015_May_21_1746	s	s	7	3	Capacity	6	RC	1	0	08VC 15MC	0	1	8.85772299767	389.0	-96.0	None	None	0
2.7	2015_May_21_1746	s	s	7	3	Capacity	7	ABS	2	0	16VC 08MC	0	1	4.43714499474	None	None	None	None	1
2.7	2015_May_21_1746	s	s	7	3	Capacity	8	RC	2	0	15VC 08MC	1	0	6.41049695015	-359.0	-269.0	-435	154	0
2.7	2015_May_21_1746	s	s	7	3	Capacity	9	ABS	1	0	08VC 16MC	0	1	8.0150809288	None	None	None	None	1
2.7	2015_May_21_1746	s	s	7	3	Capacity	10	ABS	2	0	16VC 08MC	0	1	6.70343804359	None	None	None	None	1
2.7	2015_May_21_1746	s	s	7	3	Capacity	11	RC	2	0	15VC 08MC	1	0	3.25490498543	362.0	-383.0	375	-375	1
2.7	2015_May_21_1746	s	s	7	3	Capacity	12	RC	1	0	08VC 15MC	1	0	1.53640818596	-526.0	-30.0	-527	-35	1
2.7	2015_May_21_1746	s	s	7	3	Capacity	13	ABS	1	0	08VC 16MC	0	1	0.371546983719	None	None	None	None	1
2.7	2015_May_21_1746	s	s	7	3	Capacity	14	ABS	2	0	16VC 08MC	0	1	4.29044985771	None	None	None	None	1
2.7	2015_May_21_1746	s	s	7	3	Capacity	15	RC	2	0	15VC 08MC	1	0	3.41319298744	-201.0	-136.0	-205	-140	1
2.7	2015_May_21_1746	s	s	7	3	Capacity	16	RC	1	0	08VC 15MC	1	0	3.11853909492	-259.0	56.0	-265	47	1
2.7	2015_May_21_1746	s	s	7	3	Capacity	17	RC	2	0	15VC 08MC	1	0	0.782468080521	-367.0	235.0	-363	224	1
2.7	2015_May_21_1746	s	s	7	3	Capacity	18	ABS	1	0	08VC 16MC	0	1	4.99982190132	None	None	None	None	1
2.7	2015_May_21_1746	s	s	7	3	Capacity	19	RC	1	0	08VC 15MC	1	0	3.95421099663	-185.0	-148.0	-189	-155	1
2.7	2015_May_21_1746	s	s	7	3	Capacity	20	ABS	2	0	16VC 08MC	0	1	3.55411100388	None	None	None	None	1
2.7	2015_May_21_1746	s	s	7	3	Capacity	21	RC	1	0	08VC 15MC	1	0	4.11418199539	222.0	279.0	214	276	1
2.7	2015_May_21_1746	s	s	7	3	Capacity	22	ABS	2	0	16VC 08MC	0	1	3.6791908741	None	None	None	None	1
2.7	2015_May_21_1746	s	s	7	3	Capacity	23	ABS	1	0	08VC 16MC	0	1	3.66047883034	None	None	None	None	1
2.7	2015_May_21_1746	s	s	7	3	Capacity	24	RC	2	0	15VC 08MC	1	0	2.17206382751	334.0	38.0	333	31	1
2.7	2015_May_21_1746	s	s	7	3	Capacity	25	ABS	1	0	08VC 16MC	0	1	5.17845416069	None	None	None	None	1
2.7	2015_May_21_1746	s	s	7	3	Capacity	26	RC	2	0	15VC 08MC	1	0	1.83562302589	181.0	237.0	174	240	1
2.7	2015_May_21_1746	s	s	7	3	Capacity	27	RC	1	0	08VC 15MC	1	0	1.40010404587	97.0	185.0	99	181	1
2.7	2015_May_21_1746	s	s	7	3	Capacity	28	ABS	2	0	16VC 08MC	1	0	3.73761606216	None	None	-23	174	0
2.7	2015_May_21_1746	s	s	7	3	Capacity	29	ABS	2	0	16VC 08MC	0	1	1.65416002274	None	None	None	None	1
2.7	2015_May_21_1746	s	s	7	3	Capacity	30	ABS	1	0	08VC 16MC	1	0	2.28283810616	None	None	-131	382	0
2.7	2015_May_21_1746	s	s	7	3	Capacity	31	RC	2	0	15VC 08MC	1	0	0.882135152817	-22.0	172.0	-14	166	1
2.7	2015_May_21_1746	s	s	7	3	Capacity	32	RC	1	0	08VC 15MC	1	0	1.03505301476	261.0	307.0	264	309	1
2.7	2015_May_21_1746	s	s	7	3	Capacity	33	RC	1	0	08VC 15MC	1	0	0.994947910309	-219.0	27.0	-212	27	1
2.7	2015_May_21_1746	s	s	7	3	Capacity	34	RC	2	0	15VC 08MC	1	0	0.799774885178	68.0	136.0	72	126	1
2.7	2015_May_21_1746	s	s	7	3	Capacity	35	ABS	2	0	16VC 08MC	0	1	2.49855589867	None	None	None	None	1
2.7	2015_May_21_1746	s	s	7	3	Capacity	36	ABS	1	0	08VC 16MC	0	1	4.43194699287	None	None	None	None	1
2.7	2015_May_21_1746	s	s	7	3	Capacity	37	RC	1	0	08VC 15MC	1	0	0.959644079208	114.0	-43.0	110	-38	1
2.7	2015_May_21_1746	s	s	7	3	Capacity	38	RC	2	0	15VC 08MC	1	0	0.776485919952	-347.0	-275.0	-347	-272	1
2.7	2015_May_21_1746	s	s	7	3	Capacity	39	ABS	1	0	08VC 16MC	0	1	4.03676390648	None	None	None	None	1
2.7	2015_May_21_1746	s	s	7	3	Capacity	40	ABS	2	0	16VC 08MC	0	1	2.53006196022	None	None	None	None	1
2.7	2015_May_21_1746	s	s	7	3	Capacity	41	ABS	2	0	16VC 08MC	0	1	2.54183602333	None	None	None	None	1
2.7	2015_May_21_1746	s	s	7	3	Capacity	42	RC	1	0	08VC 15MC	1	0	1.50292897224	339.0	133.0	339	125	1
2.7	2015_May_21_1746	s	s	7	3	Capacity	43	RC	2	0	15VC 08MC	1	0	2.60751795769	-107.0	-329.0	-111	-331	1
2.7	2015_May_21_1746	s	s	7	3	Capacity	44	ABS	1	0	08VC 16MC	0	1	3.09012103081	None	None	None	None	1
2.7	2015_May_21_1746	s	s	7	3	Capacity	45	RC	2	0	15VC 08MC	1	0	0.762530088425	-427.0	355.0	-421	358	1
2.7	2015_May_21_1746	s	s	7	3	Capacity	46	ABS	2	0	16VC 08MC	0	1	2.05920886993	None	None	None	None	1
2.7	2015_May_21_1746	s	s	7	3	Capacity	47	ABS	1	0	08VC 16MC	0	1	3.88366508484	None	None	None	None	1
2.7	2015_May_21_1746	s	s	7	3	Capacity	48	RC	1	0	08VC 15MC	1	0	0.700062036514	-400.0	78.0	-398	82	1
2.7	2015_May_21_1746	s	s	7	3	Capacity	49	ABS	1	0	08VC 16MC	0	1	3.89055299759	None	None	None	None	1
2.7	2015_May_21_1746	s	s	7	3	Capacity	50	RC	2	0	15VC 08MC	1	0	0.835023164749	20.0	245.0	24	243	1
2.7	2015_May_21_1746	s	s	7	3	Capacity	51	RC	1	0	08VC 15MC	1	0	1.32453608513	293.0	-355.0	289	-357	1
2.7	2015_May_21_1746	s	s	7	3	Capacity	52	ABS	2	0	16VC 08MC	0	1	2.60759091377	None	None	None	None	1
2.7	2015_May_21_1746	s	s	7	3	Capacity	53	ABS	2	0	16VC 08MC	0	1	2.02431821823	None	None	None	None	1
2.7	2015_May_21_1746	s	s	7	3	Capacity	54	ABS	1	0	08VC 16MC	0	1	2.98639822006	None	None	None	None	1
2.7	2015_May_21_1746	s	s	7	3	Capacity	55	RC	2	0	15VC 08MC	1	0	0.725296974182	-32.0	225.0	-24	221	1
2.7	2015_May_21_1746	s	s	7	3	Capacity	56	RC	1	0	08VC 15MC	1	0	2.77506804466	-303.0	-113.0	-298	-113	1
2.7	2015_May_21_1746	s	s	7	3	Capacity	57	ABS	2	0	16VC 08MC	0	1	3.2789208889	None	None	None	None	1
2.7	2015_May_21_1746	s	s	7	3	Capacity	58	RC	1	0	08VC 15MC	1	0	1.61881303787	-284.0	-127.0	-285	-131	1
2.7	2015_May_21_1746	s	s	7	3	Capacity	59	RC	2	0	15VC 08MC	1	0	0.599601984024	164.0	-43.0	164	-40	1
2.7	2015_May_21_1746	s	s	7	3	Capacity	60	ABS	1	0	08VC 16MC	0	1	5.05644202232	None	None	None	None	1
2.7	2015_May_21_1746	s	s	7	3	Capacity	61	ABS	2	0	16VC 08MC	0	1	2.90190792084	None	None	None	None	1
2.7	2015_May_21_1746	s	s	7	3	Capacity	62	RC	2	0	15VC 08MC	1	0	1.98063206673	-203.0	-204.0	-196	-211	1
2.7	2015_May_21_1746	s	s	7	3	Capacity	63	ABS	1	0	08VC 16MC	0	1	4.52839994431	None	None	None	None	1
2.7	2015_May_21_1746	s	s	7	3	Capacity	64	RC	1	0	08VC 15MC	1	0	1.86598396301	-268.0	-395.0	-268	-406	1
2.7	2015_May_21_1746	s	s	7	3	Capacity	1	RC	0	1	08RD 15RO	1	0	2.46662187576	77.0	407.0	84	408	1
2.7	2015_May_21_1746	s	s	7	3	Capacity	2	RC	0	2	15RD 08RO	1	0	0.0228998661041	522.0	167.0	123	59	0
2.7	2015_May_21_1746	s	s	7	3	Capacity	3	ABS	0	1	08RD 16RO	0	1	3.51876997948	None	None	None	None	1
2.7	2015_May_21_1746	s	s	7	3	Capacity	4	ABS	0	2	16RD 08RO	0	1	1.7599670887	None	None	None	None	1
2.7	2015_May_21_1746	s	s	7	3	Capacity	5	ABS	0	1	08RD 16RO	0	1	3.1278488636	None	None	None	None	1
2.7	2015_May_21_1746	s	s	7	3	Capacity	6	ABS	0	2	16RD 08RO	0	1	2.0125541687	None	None	None	None	1
2.7	2015_May_21_1746	s	s	7	3	Capacity	7	RC	0	2	15RD 08RO	1	0	1.49007105827	267.0	-317.0	262	-316	1
2.7	2015_May_21_1746	s	s	7	3	Capacity	8	RC	0	1	08RD 15RO	1	0	2.78904700279	498.0	-377.0	494	-374	1
2.7	2015_May_21_1746	s	s	7	3	Capacity	9	RC	0	1	08RD 15RO	1	0	1.17304182053	-507.0	-57.0	-498	-59	1
2.7	2015_May_21_1746	s	s	7	3	Capacity	10	ABS	0	1	08RD 16RO	0	1	3.30192899704	None	None	None	None	1
2.7	2015_May_21_1746	s	s	7	3	Capacity	11	ABS	0	2	16RD 08RO	0	1	2.52772116661	None	None	None	None	1
2.7	2015_May_21_1746	s	s	7	3	Capacity	12	RC	0	2	15RD 08RO	1	0	2.70336294174	-65.0	-319.0	-63	-317	1
2.7	2015_May_21_1746	s	s	7	3	Capacity	13	ABS	0	2	16RD 08RO	0	1	2.13609099388	None	None	None	None	1
2.7	2015_May_21_1746	s	s	7	3	Capacity	14	RC	0	2	15RD 08RO	1	0	1.18818378448	-112.0	245.0	-105	248	1
2.7	2015_May_21_1746	s	s	7	3	Capacity	15	ABS	0	1	08RD 16RO	0	1	4.29561400414	None	None	None	None	1
2.7	2015_May_21_1746	s	s	7	3	Capacity	16	RC	0	1	08RD 15RO	1	0	1.97182798386	-223.0	-149.0	-222	-142	1
2.7	2015_May_21_1746	s	s	7	3	Capacity	17	ABS	0	2	16RD 08RO	0	1	2.9423661232	None	None	None	None	1
2.7	2015_May_21_1746	s	s	7	3	Capacity	18	RC	0	2	15RD 08RO	1	0	1.11760497093	-200.0	48.0	-195	44	1
2.7	2015_May_21_1746	s	s	7	3	Capacity	19	ABS	0	1	08RD 16RO	0	1	3.3740708828	None	None	None	None	1
2.7	2015_May_21_1746	s	s	7	3	Capacity	20	RC	0	1	08RD 15RO	1	0	0.81162405014	208.0	288.0	202	296	1
2.7	2015_May_21_1746	s	s	7	3	Capacity	21	RC	0	2	15RD 08RO	1	0	0.900835990906	399.0	208.0	408	208	1
2.7	2015_May_21_1746	s	s	7	3	Capacity	22	ABS	0	1	08RD 16RO	0	1	2.67862606049	None	None	None	None	1
2.7	2015_May_21_1746	s	s	7	3	Capacity	23	RC	0	1	08RD 15RO	1	0	3.31911206245	-372.0	-115.0	-365	-112	1
2.7	2015_May_21_1746	s	s	7	3	Capacity	24	ABS	0	2	16RD 08RO	0	1	2.45947003365	None	None	None	None	1
2.7	2015_May_21_1746	s	s	7	3	Capacity	25	RC	0	1	08RD 15RO	1	0	2.90161895752	-127.0	-271.0	-130	-277	1
2.7	2015_May_21_1746	s	s	7	3	Capacity	26	ABS	0	2	16RD 08RO	1	0	1.92394304276	None	None	-91	54	0
2.7	2015_May_21_1746	s	s	7	3	Capacity	27	ABS	0	1	08RD 16RO	0	1	3.21275305748	None	None	None	None	1
2.7	2015_May_21_1746	s	s	7	3	Capacity	28	RC	0	2	15RD 08RO	1	0	1.70149683952	531.0	69.0	539	76	1
2.7	2015_May_21_1746	s	s	7	3	Capacity	29	RC	0	1	08RD 15RO	1	0	2.7887980938	473.0	405.0	475	407	1
2.7	2015_May_21_1746	s	s	7	3	Capacity	30	ABS	0	2	16RD 08RO	0	1	2.34868597984	None	None	None	None	1
2.7	2015_May_21_1746	s	s	7	3	Capacity	31	ABS	0	1	08RD 16RO	0	1	4.621997118	None	None	None	None	1
2.7	2015_May_21_1746	s	s	7	3	Capacity	32	RC	0	2	15RD 08RO	1	0	2.5182762146	418.0	-110.0	417	-103	1
2.7	2015_May_21_1746	s	s	7	3	Capacity	33	ABS	0	1	08RD 16RO	0	1	3.69002795219	None	None	None	None	1
2.7	2015_May_21_1746	s	s	7	3	Capacity	34	RC	0	2	15RD 08RO	1	0	2.80993700027	-507.0	-44.0	-511	-40	1
2.7	2015_May_21_1746	s	s	7	3	Capacity	35	RC	0	1	08RD 15RO	1	0	2.78901004791	36.0	-325.0	35	-336	1
2.7	2015_May_21_1746	s	s	7	3	Capacity	36	ABS	0	2	16RD 08RO	0	1	2.21227407455	None	None	None	None	1
2.7	2015_May_21_1746	s	s	7	3	Capacity	37	ABS	0	2	16RD 08RO	0	1	2.72513008118	None	None	None	None	1
2.7	2015_May_21_1746	s	s	7	3	Capacity	38	ABS	0	1	08RD 16RO	0	1	3.38629603386	None	None	None	None	1
2.7	2015_May_21_1746	s	s	7	3	Capacity	39	RC	0	1	08RD 15RO	0	1	4.3727209568	-39.0	-224.0	None	None	0
2.7	2015_May_21_1746	s	s	7	3	Capacity	40	RC	0	2	15RD 08RO	1	0	1.0301721096	-273.0	103.0	-276	102	1
2.7	2015_May_21_1746	s	s	7	3	Capacity	41	RC	0	1	08RD 15RO	1	0	1.17642879486	158.0	52.0	164	45	1
2.7	2015_May_21_1746	s	s	7	3	Capacity	42	RC	0	2	15RD 08RO	1	0	1.60794305801	290.0	-51.0	289	-53	1
2.7	2015_May_21_1746	s	s	7	3	Capacity	43	ABS	0	1	08RD 16RO	0	1	4.34317398071	None	None	None	None	1
2.7	2015_May_21_1746	s	s	7	3	Capacity	44	ABS	0	2	16RD 08RO	0	1	2.31375694275	None	None	None	None	1
2.7	2015_May_21_1746	s	s	7	3	Capacity	45	RC	0	2	15RD 08RO	1	0	1.97688293457	416.0	-60.0	412	-60	1
2.7	2015_May_21_1746	s	s	7	3	Capacity	46	RC	0	1	08RD 15RO	1	0	2.80682396889	-513.0	-93.0	-518	-101	1
2.7	2015_May_21_1746	s	s	7	3	Capacity	47	ABS	0	2	16RD 08RO	0	1	2.23219203949	None	None	None	None	1
2.7	2015_May_21_1746	s	s	7	3	Capacity	48	ABS	0	1	08RD 16RO	0	1	3.52754211426	None	None	None	None	1
2.7	2015_May_21_1746	s	s	7	3	Capacity	49	RC	0	2	15RD 08RO	1	0	1.50128698349	231.0	-353.0	229	-351	1
2.7	2015_May_21_1746	s	s	7	3	Capacity	50	ABS	0	1	08RD 16RO	0	1	4.0367410183	None	None	None	None	1
2.7	2015_May_21_1746	s	s	7	3	Capacity	51	RC	0	1	08RD 15RO	1	0	2.64799404144	-364.0	-245.0	-361	-242	1
2.7	2015_May_21_1746	s	s	7	3	Capacity	52	ABS	0	2	16RD 08RO	0	1	2.70173215866	None	None	None	None	1
2.7	2015_May_21_1746	s	s	7	3	Capacity	53	RC	0	2	15RD 08RO	1	0	1.8064789772	-192.0	-326.0	-190	-332	1
2.7	2015_May_21_1746	s	s	7	3	Capacity	54	RC	0	1	08RD 15RO	1	0	2.17220497131	208.0	-246.0	210	-247	1
2.7	2015_May_21_1746	s	s	7	3	Capacity	55	ABS	0	2	16RD 08RO	0	1	2.08974695206	None	None	None	None	1
2.7	2015_May_21_1746	s	s	7	3	Capacity	56	ABS	0	1	08RD 16RO	0	1	2.99614095688	None	None	None	None	1
2.7	2015_May_21_1746	s	s	7	3	Capacity	57	RC	0	2	15RD 08RO	1	0	0.759181976318	-300.0	238.0	-289	245	1
2.7	2015_May_21_1746	s	s	7	3	Capacity	58	ABS	0	2	16RD 08RO	0	1	1.89445495605	None	None	None	None	1
2.7	2015_May_21_1746	s	s	7	3	Capacity	59	RC	0	1	08RD 15RO	1	0	0.665750026703	-246.0	316.0	-249	307	1
2.7	2015_May_21_1746	s	s	7	3	Capacity	60	ABS	0	1	08RD 16RO	0	1	3.34899091721	None	None	None	None	1
2.7	2015_May_21_1746	s	s	7	3	Capacity	61	ABS	0	2	16RD 08RO	0	1	2.00698518753	None	None	None	None	1
2.7	2015_May_21_1746	s	s	7	3	Capacity	62	RC	0	1	08RD 15RO	0	1	3.0422039032	296.0	386.0	None	None	0
2.7	2015_May_21_1746	s	s	7	3	Capacity	63	ABS	0	1	08RD 16RO	0	1	2.81012797356	None	None	None	None	1
2.7	2015_May_21_1746	s	s	7	3	Capacity	64	RC	0	2	15RD 08RO	1	0	2.08963298798	248.0	316.0	252	316	1
2.7	2015_May_21_1746	s	s	7	3	SIC	1	RC	2	2	09VD 02VO 02VC 02MD 02MO 02MC 02RD 02RO	1	0	1.01159095764	-15.0	0.0	-13	0	1
2.7	2015_May_21_1746	s	s	7	3	SIC	2	ABS	1	2	02VD 02VO 02VC 10MD 02MO 02MC 02RD 02RO	0	1	2.32994604111	None	None	None	None	1
2.7	2015_May_21_1746	s	s	7	3	SIC	3	RC	1	0	02VD 02VO 02VC 02MD 02MO 09MC 02RD 02RO	1	0	0.950453042984	-171.0	8.0	-174	17	1
2.7	2015_May_21_1746	s	s	7	3	SIC	4	RC	2	1	02VD 09VO 02VC 02MD 02MO 02MC 02RD 02RO	1	0	1.99615812302	357.0	-131.0	348	-125	1
2.7	2015_May_21_1746	s	s	7	3	SIC	5	RC	1	2	02VD 02VO 02VC 09MD 02MO 02MC 02RD 02RO	1	0	1.54516196251	-188.0	359.0	-187	358	1
2.7	2015_May_21_1746	s	s	7	3	SIC	6	ABS	2	1	02VD 10VO 02VC 02MD 02MO 02MC 02RD 02RO	0	1	2.72216796875	None	None	None	None	1
2.7	2015_May_21_1746	s	s	7	3	SIC	7	RC	0	1	02VD 02VO 02VC 02MD 02MO 02MC 02RD 09RO	1	0	1.91799283028	-55.0	76.0	-48	76	1
2.7	2015_May_21_1746	s	s	7	3	SIC	8	RC	2	0	02VD 02VO 09VC 02MD 02MO 02MC 02RD 02RO	1	0	2.51829814911	396.0	-83.0	390	-85	1
2.7	2015_May_21_1746	s	s	7	3	SIC	9	RC	0	2	02VD 02VO 02VC 02MD 02MO 02MC 09RD 02RO	1	0	1.77661585808	-42.0	-374.0	-39	-387	1
2.7	2015_May_21_1746	s	s	7	3	SIC	10	ABS	0	2	02VD 02VO 02VC 02MD 02MO 02MC 10RD 02RO	0	1	1.91793608665	None	None	None	None	1
2.7	2015_May_21_1746	s	s	7	3	SIC	11	ABS	2	0	02VD 02VO 10VC 02MD 02MO 02MC 02RD 02RO	0	1	2.28955984116	None	None	None	None	1
2.7	2015_May_21_1746	s	s	7	3	SIC	12	ABS	0	1	02VD 02VO 02VC 02MD 02MO 02MC 02RD 10RO	0	1	3.58454108238	None	None	None	None	1
2.7	2015_May_21_1746	s	s	7	3	SIC	13	ABS	1	0	02VD 02VO 02VC 02MD 02MO 10MC 02RD 02RO	0	1	2.43591094017	None	None	None	None	1
2.7	2015_May_21_1746	s	s	7	3	SIC	14	RC	1	1	02VD 02VO 02VC 02MD 09MO 02MC 02RD 02RO	1	0	2.40053391457	429.0	79.0	439	84	1
2.7	2015_May_21_1746	s	s	7	3	SIC	15	ABS	1	1	02VD 02VO 02VC 02MD 10MO 02MC 02RD 02RO	0	1	2.7958741188	None	None	None	None	1
2.7	2015_May_21_1746	s	s	7	3	SIC	16	ABS	2	2	10VD 02VO 02VC 02MD 02MO 02MC 02RD 02RO	0	1	1.97271609306	None	None	None	None	1
2.7	2015_May_21_1746	s	s	7	3	SIC	17	RC	0	1	02VD 02VO 02VC 02MD 02MO 02MC 02RD 09RO	1	0	2.56303215027	-96.0	13.0	-90	9	1
2.7	2015_May_21_1746	s	s	7	3	SIC	18	ABS	1	0	02VD 02VO 02VC 02MD 02MO 10MC 02RD 02RO	0	1	2.7183880806	None	None	None	None	1
2.7	2015_May_21_1746	s	s	7	3	SIC	19	ABS	2	0	02VD 02VO 10VC 02MD 02MO 02MC 02RD 02RO	0	1	2.35347795486	None	None	None	None	1
2.7	2015_May_21_1746	s	s	7	3	SIC	20	ABS	0	1	02VD 02VO 02VC 02MD 02MO 02MC 02RD 10RO	0	1	2.72444009781	None	None	None	None	1
2.7	2015_May_21_1746	s	s	7	3	SIC	21	ABS	2	1	02VD 10VO 02VC 02MD 02MO 02MC 02RD 02RO	0	1	1.60019397736	None	None	None	None	1
2.7	2015_May_21_1746	s	s	7	3	SIC	22	RC	1	2	02VD 02VO 02VC 09MD 02MO 02MC 02RD 02RO	1	0	0.865435123444	-258.0	389.0	-259	379	1
2.7	2015_May_21_1746	s	s	7	3	SIC	23	ABS	2	2	10VD 02VO 02VC 02MD 02MO 02MC 02RD 02RO	0	1	1.63542199135	None	None	None	None	1
2.7	2015_May_21_1746	s	s	7	3	SIC	24	RC	1	0	02VD 02VO 02VC 02MD 02MO 09MC 02RD 02RO	1	0	2.18863606453	457.0	100.0	462	107	1
2.7	2015_May_21_1746	s	s	7	3	SIC	25	ABS	1	2	02VD 02VO 02VC 10MD 02MO 02MC 02RD 02RO	0	1	1.55915999413	None	None	None	None	1
2.7	2015_May_21_1746	s	s	7	3	SIC	26	RC	2	1	02VD 09VO 02VC 02MD 02MO 02MC 02RD 02RO	1	0	0.796586990356	-488.0	110.0	-483	104	1
2.7	2015_May_21_1746	s	s	7	3	SIC	27	RC	0	2	02VD 02VO 02VC 02MD 02MO 02MC 09RD 02RO	1	0	1.31273579597	213.0	118.0	212	121	1
2.7	2015_May_21_1746	s	s	7	3	SIC	28	ABS	1	1	02VD 02VO 02VC 02MD 10MO 02MC 02RD 02RO	0	1	2.49481701851	None	None	None	None	1
2.7	2015_May_21_1746	s	s	7	3	SIC	29	RC	1	1	02VD 02VO 02VC 02MD 09MO 02MC 02RD 02RO	1	0	1.31769108772	-448.0	-357.0	-448	-368	1
2.7	2015_May_21_1746	s	s	7	3	SIC	30	ABS	0	2	02VD 02VO 02VC 02MD 02MO 02MC 10RD 02RO	0	1	2.0305480957	None	None	None	None	1
2.7	2015_May_21_1746	s	s	7	3	SIC	31	RC	2	2	09VD 02VO 02VC 02MD 02MO 02MC 02RD 02RO	1	0	1.31272792816	-324.0	-369.0	-332	-375	1
2.7	2015_May_21_1746	s	s	7	3	SIC	32	RC	2	0	02VD 02VO 09VC 02MD 02MO 02MC 02RD 02RO	1	0	0.794912099838	-486.0	-117.0	-491	-118	1
2.7	2015_May_21_1746	s	s	7	3	SIC	33	RC	2	0	02VD 02VO 09VC 02MD 02MO 02MC 02RD 02RO	1	0	2.23066496849	348.0	126.0	349	136	1
2.7	2015_May_21_1746	s	s	7	3	SIC	34	ABS	2	1	02VD 10VO 02VC 02MD 02MO 02MC 02RD 02RO	0	1	1.71800303459	None	None	None	None	1
2.7	2015_May_21_1746	s	s	7	3	SIC	35	ABS	1	0	02VD 02VO 02VC 02MD 02MO 10MC 02RD 02RO	0	1	2.72506785393	None	None	None	None	1
2.7	2015_May_21_1746	s	s	7	3	SIC	36	RC	2	1	02VD 09VO 02VC 02MD 02MO 02MC 02RD 02RO	1	0	1.3176882267	-131.0	380.0	-140	380	1
2.7	2015_May_21_1746	s	s	7	3	SIC	37	RC	1	2	02VD 02VO 02VC 09MD 02MO 02MC 02RD 02RO	1	0	2.6428091526	415.0	-400.0	419	-397	1
2.7	2015_May_21_1746	s	s	7	3	SIC	38	RC	2	2	09VD 02VO 02VC 02MD 02MO 02MC 02RD 02RO	1	0	1.512789011	374.0	-243.0	372	-243	1
2.7	2015_May_21_1746	s	s	7	3	SIC	39	RC	0	1	02VD 02VO 02VC 02MD 02MO 02MC 02RD 09RO	1	0	2.18872880936	294.0	9.0	302	6	1
2.7	2015_May_21_1746	s	s	7	3	SIC	40	RC	1	1	02VD 02VO 02VC 02MD 09MO 02MC 02RD 02RO	1	0	0.917418003082	-119.0	329.0	-117	327	1
2.7	2015_May_21_1746	s	s	7	3	SIC	41	ABS	0	1	02VD 02VO 02VC 02MD 02MO 02MC 02RD 10RO	0	1	2.99596190453	None	None	None	None	1
2.7	2015_May_21_1746	s	s	7	3	SIC	42	ABS	2	2	10VD 02VO 02VC 02MD 02MO 02MC 02RD 02RO	0	1	1.96125102043	None	None	None	None	1
2.7	2015_May_21_1746	s	s	7	3	SIC	43	ABS	1	2	02VD 02VO 02VC 10MD 02MO 02MC 02RD 02RO	0	1	2.47122001648	None	None	None	None	1
2.7	2015_May_21_1746	s	s	7	3	SIC	44	ABS	1	1	02VD 02VO 02VC 02MD 10MO 02MC 02RD 02RO	0	1	2.78686618805	None	None	None	None	1
2.7	2015_May_21_1746	s	s	7	3	SIC	45	RC	0	2	02VD 02VO 02VC 02MD 02MO 02MC 09RD 02RO	1	0	1.45559477806	346.0	-57.0	351	-61	1
2.7	2015_May_21_1746	s	s	7	3	SIC	46	ABS	2	0	02VD 02VO 10VC 02MD 02MO 02MC 02RD 02RO	0	1	1.50601911545	None	None	None	None	1
2.7	2015_May_21_1746	s	s	7	3	SIC	47	ABS	0	2	02VD 02VO 02VC 02MD 02MO 02MC 10RD 02RO	0	1	2.30643010139	None	None	None	None	1
2.7	2015_May_21_1746	s	s	7	3	SIC	48	RC	1	0	02VD 02VO 02VC 02MD 02MO 09MC 02RD 02RO	1	0	2.32975482941	471.0	138.0	471	133	1
2.7	2015_May_21_1746	s	s	7	3	SIC	49	ABS	0	1	02VD 02VO 02VC 02MD 02MO 02MC 02RD 10RO	0	1	3.04805517197	None	None	None	None	1
2.7	2015_May_21_1746	s	s	7	3	SIC	50	RC	1	2	02VD 02VO 02VC 09MD 02MO 02MC 02RD 02RO	1	0	1.09408712387	-158.0	40.0	-167	40	1
2.7	2015_May_21_1746	s	s	7	3	SIC	51	RC	1	0	02VD 02VO 02VC 02MD 02MO 09MC 02RD 02RO	1	0	1.3179359436	-108.0	317.0	-110	321	1
2.7	2015_May_21_1746	s	s	7	3	SIC	52	RC	2	2	09VD 02VO 02VC 02MD 02MO 02MC 02RD 02RO	1	0	1.13597202301	23.0	92.0	29	86	1
2.7	2015_May_21_1746	s	s	7	3	SIC	53	ABS	2	1	02VD 10VO 02VC 02MD 02MO 02MC 02RD 02RO	0	1	1.5412709713	None	None	None	None	1
2.7	2015_May_21_1746	s	s	7	3	SIC	54	RC	2	0	02VD 02VO 09VC 02MD 02MO 02MC 02RD 02RO	1	0	1.35288190842	235.0	355.0	230	351	1
2.7	2015_May_21_1746	s	s	7	3	SIC	55	ABS	2	0	02VD 02VO 10VC 02MD 02MO 02MC 02RD 02RO	0	1	1.40989398956	None	None	None	None	1
2.7	2015_May_21_1746	s	s	7	3	SIC	56	RC	0	2	02VD 02VO 02VC 02MD 02MO 02MC 09RD 02RO	1	0	1.69203090668	-125.0	349.0	-114	349	1
2.7	2015_May_21_1746	s	s	7	3	SIC	57	ABS	1	2	02VD 02VO 02VC 10MD 02MO 02MC 02RD 02RO	0	1	1.97676610947	None	None	None	None	1
2.7	2015_May_21_1746	s	s	7	3	SIC	58	ABS	2	2	10VD 02VO 02VC 02MD 02MO 02MC 02RD 02RO	0	1	1.75003409386	None	None	None	None	1
2.7	2015_May_21_1746	s	s	7	3	SIC	59	RC	2	1	02VD 09VO 02VC 02MD 02MO 02MC 02RD 02RO	1	0	1.4593398571	-175.0	-335.0	-164	-328	1
2.7	2015_May_21_1746	s	s	7	3	SIC	60	RC	1	1	02VD 02VO 02VC 02MD 09MO 02MC 02RD 02RO	1	0	3.1724729538	516.0	-246.0	512	-248	1
2.7	2015_May_21_1746	s	s	7	3	SIC	61	RC	0	1	02VD 02VO 02VC 02MD 02MO 02MC 02RD 09RO	1	0	2.6713051796	130.0	164.0	132	172	1
2.7	2015_May_21_1746	s	s	7	3	SIC	62	ABS	1	0	02VD 02VO 02VC 02MD 02MO 10MC 02RD 02RO	0	1	2.18871212006	None	None	None	None	1
2.7	2015_May_21_1746	s	s	7	3	SIC	63	ABS	1	1	02VD 02VO 02VC 02MD 10MO 02MC 02RD 02RO	0	1	2.88052606583	None	None	None	None	1
2.7	2015_May_21_1746	s	s	7	3	SIC	64	ABS	0	2	02VD 02VO 02VC 02MD 02MO 02MC 10RD 02RO	0	1	1.83551502228	None	None	None	None	1
2.7	2015_May_21_1746	s	s	7	3	SIC	65	RC	1	0	02VD 02VO 02VC 02MD 02MO 09MC 02RD 02RO	1	0	1.34120321274	-99.0	327.0	-101	314	1
2.7	2015_May_21_1746	s	s	7	3	SIC	66	ABS	1	2	02VD 02VO 02VC 10MD 02MO 02MC 02RD 02RO	0	1	2.27108502388	None	None	None	None	1
2.7	2015_May_21_1746	s	s	7	3	SIC	67	RC	1	2	02VD 02VO 02VC 09MD 02MO 02MC 02RD 02RO	1	0	1.25878810883	-443.0	393.0	-448	394	1
2.7	2015_May_21_1746	s	s	7	3	SIC	68	ABS	1	1	02VD 02VO 02VC 02MD 10MO 02MC 02RD 02RO	0	1	2.49487400055	None	None	None	None	1
2.7	2015_May_21_1746	s	s	7	3	SIC	69	ABS	0	2	02VD 02VO 02VC 02MD 02MO 02MC 10RD 02RO	0	1	2.75901484489	None	None	None	None	1
2.7	2015_May_21_1746	s	s	7	3	SIC	70	RC	1	1	02VD 02VO 02VC 02MD 09MO 02MC 02RD 02RO	1	0	1.65336108208	-469.0	-195.0	-474	-200	1
2.7	2015_May_21_1746	s	s	7	3	SIC	71	RC	2	0	02VD 02VO 09VC 02MD 02MO 02MC 02RD 02RO	1	0	2.69861102104	345.0	253.0	350	253	1
2.7	2015_May_21_1746	s	s	7	3	SIC	72	ABS	0	1	02VD 02VO 02VC 02MD 02MO 02MC 02RD 10RO	0	1	4.40154385567	None	None	None	None	1
2.7	2015_May_21_1746	s	s	7	3	SIC	73	RC	0	2	02VD 02VO 02VC 02MD 02MO 02MC 09RD 02RO	1	0	2.19709300995	-523.0	193.0	-519	191	1
2.7	2015_May_21_1746	s	s	7	3	SIC	74	ABS	2	2	10VD 02VO 02VC 02MD 02MO 02MC 02RD 02RO	0	1	2.34760189056	None	None	None	None	1
2.7	2015_May_21_1746	s	s	7	3	SIC	75	RC	2	2	09VD 02VO 02VC 02MD 02MO 02MC 02RD 02RO	1	0	1.37171506882	-538.0	-85.0	-535	-84	1
2.7	2015_May_21_1746	s	s	7	3	SIC	76	ABS	2	0	02VD 02VO 10VC 02MD 02MO 02MC 02RD 02RO	0	1	2.10633015633	None	None	None	None	1
2.7	2015_May_21_1746	s	s	7	3	SIC	77	ABS	1	0	02VD 02VO 02VC 02MD 02MO 10MC 02RD 02RO	0	1	3.3254981041	None	None	None	None	1
2.7	2015_May_21_1746	s	s	7	3	SIC	78	ABS	2	1	02VD 10VO 02VC 02MD 02MO 02MC 02RD 02RO	0	1	1.68634605408	None	None	None	None	1
2.7	2015_May_21_1746	s	s	7	3	SIC	79	RC	2	1	02VD 09VO 02VC 02MD 02MO 02MC 02RD 02RO	1	0	1.07701611519	53.0	145.0	55	150	1
2.7	2015_May_21_1746	s	s	7	3	SIC	80	RC	0	1	02VD 02VO 02VC 02MD 02MO 02MC 02RD 09RO	1	0	1.59566783905	383.0	-86.0	372	-86	1
2.7	2015_May_21_1746	s	s	7	3	SIC	81	ABS	2	0	02VD 02VO 10VC 02MD 02MO 02MC 02RD 02RO	0	1	2.40056014061	None	None	None	None	1
2.7	2015_May_21_1746	s	s	7	3	SIC	82	RC	0	1	02VD 02VO 02VC 02MD 02MO 02MC 02RD 09RO	1	0	0.912930965424	-430.0	-121.0	-435	-131	1
2.7	2015_May_21_1746	s	s	7	3	SIC	83	RC	2	2	09VD 02VO 02VC 02MD 02MO 02MC 02RD 02RO	1	0	1.03522181511	-485.0	-343.0	-493	-349	1
2.7	2015_May_21_1746	s	s	7	3	SIC	84	RC	1	0	02VD 02VO 02VC 02MD 02MO 09MC 02RD 02RO	1	0	2.61228203773	190.0	-127.0	191	-131	1
2.7	2015_May_21_1746	s	s	7	3	SIC	85	RC	1	1	02VD 02VO 02VC 02MD 09MO 02MC 02RD 02RO	1	0	1.01162195206	-340.0	162.0	-345	171	1
2.7	2015_May_21_1746	s	s	7	3	SIC	86	ABS	2	1	02VD 10VO 02VC 02MD 02MO 02MC 02RD 02RO	0	1	2.11276292801	None	None	None	None	1
2.7	2015_May_21_1746	s	s	7	3	SIC	87	ABS	1	2	02VD 02VO 02VC 10MD 02MO 02MC 02RD 02RO	0	1	2.14156985283	None	None	None	None	1
2.7	2015_May_21_1746	s	s	7	3	SIC	88	RC	2	0	02VD 02VO 09VC 02MD 02MO 02MC 02RD 02RO	1	0	1.43539500237	217.0	222.0	224	222	1
2.7	2015_May_21_1746	s	s	7	3	SIC	89	ABS	0	2	02VD 02VO 02VC 02MD 02MO 02MC 10RD 02RO	0	1	2.27109003067	None	None	None	None	1
2.7	2015_May_21_1746	s	s	7	3	SIC	90	ABS	0	1	02VD 02VO 02VC 02MD 02MO 02MC 02RD 10RO	0	1	3.29972505569	None	None	None	None	1
2.7	2015_May_21_1746	s	s	7	3	SIC	91	RC	1	2	02VD 02VO 02VC 09MD 02MO 02MC 02RD 02RO	1	0	2.58405995369	406.0	-373.0	408	-374	1
2.7	2015_May_21_1746	s	s	7	3	SIC	92	ABS	1	1	02VD 02VO 02VC 02MD 10MO 02MC 02RD 02RO	0	1	2.22171711922	None	None	None	None	1
2.7	2015_May_21_1746	s	s	7	3	SIC	93	RC	2	1	02VD 09VO 02VC 02MD 02MO 02MC 02RD 02RO	0	1	1.81906104088	-150.0	-280.0	None	None	0
2.7	2015_May_21_1746	s	s	7	3	SIC	94	ABS	1	0	02VD 02VO 02VC 02MD 02MO 10MC 02RD 02RO	0	1	2.98419094086	None	None	None	None	1
2.7	2015_May_21_1746	s	s	7	3	SIC	95	ABS	2	2	10VD 02VO 02VC 02MD 02MO 02MC 02RD 02RO	0	1	1.8827381134	None	None	None	None	1
2.7	2015_May_21_1746	s	s	7	3	SIC	96	RC	0	2	02VD 02VO 02VC 02MD 02MO 02MC 09RD 02RO	0	1	1.65673589706	48.0	168.0	None	None	0
2.7	2015_May_21_1746	s	s	7	3	SIC	97	ABS	1	0	02VD 02VO 02VC 02MD 02MO 10MC 02RD 02RO	0	1	2.22442293167	None	None	None	None	1
2.7	2015_May_21_1746	s	s	7	3	SIC	98	RC	1	2	02VD 02VO 02VC 09MD 02MO 02MC 02RD 02RO	1	0	2.07970690727	277.0	309.0	284	309	1
2.7	2015_May_21_1746	s	s	7	3	SIC	99	RC	2	0	02VD 02VO 09VC 02MD 02MO 02MC 02RD 02RO	1	0	2.16519093513	341.0	407.0	334	406	1
2.7	2015_May_21_1746	s	s	7	3	SIC	100	RC	0	1	02VD 02VO 02VC 02MD 02MO 02MC 02RD 09RO	1	0	2.41249990463	369.0	221.0	378	228	1
2.7	2015_May_21_1746	s	s	7	3	SIC	101	ABS	0	2	02VD 02VO 02VC 02MD 02MO 02MC 10RD 02RO	0	1	1.7884619236	None	None	None	None	1
2.7	2015_May_21_1746	s	s	7	3	SIC	102	RC	2	1	02VD 09VO 02VC 02MD 02MO 02MC 02RD 02RO	1	0	1.4471809864	166.0	235.0	175	240	1
2.7	2015_May_21_1746	s	s	7	3	SIC	103	ABS	1	2	02VD 02VO 02VC 10MD 02MO 02MC 02RD 02RO	0	1	1.93659901619	None	None	None	None	1
2.7	2015_May_21_1746	s	s	7	3	SIC	104	RC	0	2	02VD 02VO 02VC 02MD 02MO 02MC 09RD 02RO	1	0	1.10073494911	-40.0	112.0	-52	117	1
2.7	2015_May_21_1746	s	s	7	3	SIC	105	RC	1	0	02VD 02VO 02VC 02MD 02MO 09MC 02RD 02RO	1	0	2.00706911087	-83.0	132.0	-86	133	1
2.7	2015_May_21_1746	s	s	7	3	SIC	106	ABS	2	1	02VD 10VO 02VC 02MD 02MO 02MC 02RD 02RO	0	1	2.52348089218	None	None	None	None	1
2.7	2015_May_21_1746	s	s	7	3	SIC	107	RC	1	1	02VD 02VO 02VC 02MD 09MO 02MC 02RD 02RO	1	0	1.65475296974	422.0	-187.0	430	-192	1
2.7	2015_May_21_1746	s	s	7	3	SIC	108	ABS	2	0	02VD 02VO 10VC 02MD 02MO 02MC 02RD 02RO	0	1	2.12472915649	None	None	None	None	1
2.7	2015_May_21_1746	s	s	7	3	SIC	109	ABS	1	1	02VD 02VO 02VC 02MD 10MO 02MC 02RD 02RO	0	1	2.74875497818	None	None	None	None	1
2.7	2015_May_21_1746	s	s	7	3	SIC	110	RC	2	2	09VD 02VO 02VC 02MD 02MO 02MC 02RD 02RO	1	0	0.830281972885	-125.0	409.0	-134	408	1
2.7	2015_May_21_1746	s	s	7	3	SIC	111	ABS	0	1	02VD 02VO 02VC 02MD 02MO 02MC 02RD 10RO	0	1	3.27843689919	None	None	None	None	1
2.7	2015_May_21_1746	s	s	7	3	SIC	112	ABS	2	2	10VD 02VO 02VC 02MD 02MO 02MC 02RD 02RO	0	1	2.17688298225	None	None	None	None	1
2.7	2015_May_21_1746	s	s	7	3	SIC	113	ABS	2	0	02VD 02VO 10VC 02MD 02MO 02MC 02RD 02RO	0	1	1.68259096146	None	None	None	None	1
2.7	2015_May_21_1746	s	s	7	3	SIC	114	ABS	2	2	10VD 02VO 02VC 02MD 02MO 02MC 02RD 02RO	0	1	1.80650091171	None	None	None	None	1
2.7	2015_May_21_1746	s	s	7	3	SIC	115	RC	2	1	02VD 09VO 02VC 02MD 02MO 02MC 02RD 02RO	1	0	1.14778494835	-409.0	115.0	-412	116	1
2.7	2015_May_21_1746	s	s	7	3	SIC	116	RC	0	2	02VD 02VO 02VC 02MD 02MO 02MC 09RD 02RO	1	0	1.82371401787	410.0	-109.0	401	-112	1
2.7	2015_May_21_1746	s	s	7	3	SIC	117	ABS	1	2	02VD 02VO 02VC 10MD 02MO 02MC 02RD 02RO	0	1	2.07106208801	None	None	None	None	1
2.7	2015_May_21_1746	s	s	7	3	SIC	118	RC	2	2	09VD 02VO 02VC 02MD 02MO 02MC 02RD 02RO	1	0	1.39513421059	-308.0	-274.0	-313	-281	1
2.7	2015_May_21_1746	s	s	7	3	SIC	119	ABS	1	0	02VD 02VO 02VC 02MD 02MO 10MC 02RD 02RO	0	1	2.02388095856	None	None	None	None	1
2.7	2015_May_21_1746	s	s	7	3	SIC	120	RC	1	0	02VD 02VO 02VC 02MD 02MO 09MC 02RD 02RO	1	0	2.55042004585	-61.0	-74.0	-51	-64	1
2.7	2015_May_21_1746	s	s	7	3	SIC	121	ABS	2	1	02VD 10VO 02VC 02MD 02MO 02MC 02RD 02RO	0	1	1.91335511208	None	None	None	None	1
2.7	2015_May_21_1746	s	s	7	3	SIC	122	RC	0	1	02VD 02VO 02VC 02MD 02MO 02MC 02RD 09RO	1	0	0.877927780151	-25.0	-4.0	-23	-8	1
2.7	2015_May_21_1746	s	s	7	3	SIC	123	RC	2	0	02VD 02VO 09VC 02MD 02MO 02MC 02RD 02RO	1	0	2.60723996162	511.0	307.0	513	301	1
2.7	2015_May_21_1746	s	s	7	3	SIC	124	ABS	1	1	02VD 02VO 02VC 02MD 10MO 02MC 02RD 02RO	0	1	2.23084688187	None	None	None	None	1
2.7	2015_May_21_1746	s	s	7	3	SIC	125	ABS	0	1	02VD 02VO 02VC 02MD 02MO 02MC 02RD 10RO	0	1	2.98534703255	None	None	None	None	1
2.7	2015_May_21_1746	s	s	7	3	SIC	126	RC	1	1	02VD 02VO 02VC 02MD 09MO 02MC 02RD 02RO	1	0	3.06675195694	486.0	344.0	487	347	1
2.7	2015_May_21_1746	s	s	7	3	SIC	127	RC	1	2	02VD 02VO 02VC 09MD 02MO 02MC 02RD 02RO	1	0	0.606880187988	-404.0	99.0	-406	98	1
2.7	2015_May_21_1746	s	s	7	3	SIC	128	ABS	0	2	02VD 02VO 02VC 02MD 02MO 02MC 10RD 02RO	0	1	1.54829001427	None	None	None	None	1
2.7	2015_May_21_1746	s	s	7	3	SIC	129	ABS	2	0	02VD 02VO 10VC 02MD 02MO 02MC 02RD 02RO	0	1	1.9885559082	None	None	None	None	1
2.7	2015_May_21_1746	s	s	7	3	SIC	130	ABS	0	1	02VD 02VO 02VC 02MD 02MO 02MC 02RD 10RO	0	1	3.7636051178	None	None	None	None	1
2.7	2015_May_21_1746	s	s	7	3	SIC	131	RC	0	1	02VD 02VO 02VC 02MD 02MO 02MC 02RD 09RO	1	0	1.37160897255	-64.0	115.0	-66	125	1
2.7	2015_May_21_1746	s	s	7	3	SIC	132	RC	2	0	02VD 02VO 09VC 02MD 02MO 02MC 02RD 02RO	1	0	1.4118771553	213.0	-266.0	212	-273	1
2.7	2015_May_21_1746	s	s	7	3	SIC	133	RC	0	2	02VD 02VO 02VC 02MD 02MO 02MC 09RD 02RO	1	0	1.51285195351	208.0	-99.0	199	-92	1
2.7	2015_May_21_1746	s	s	7	3	SIC	134	RC	1	1	02VD 02VO 02VC 02MD 09MO 02MC 02RD 02RO	1	0	2.5653898716	-62.0	-350.0	-52	-347	1
2.7	2015_May_21_1746	s	s	7	3	SIC	135	ABS	1	0	02VD 02VO 02VC 02MD 02MO 10MC 02RD 02RO	0	1	2.87816905975	None	None	None	None	1
2.7	2015_May_21_1746	s	s	7	3	SIC	136	RC	1	2	02VD 02VO 02VC 09MD 02MO 02MC 02RD 02RO	1	0	1.46576213837	77.0	-131.0	64	-127	1
2.7	2015_May_21_1746	s	s	7	3	SIC	137	ABS	1	1	02VD 02VO 02VC 02MD 10MO 02MC 02RD 02RO	0	1	2.98908090591	None	None	None	None	1
2.7	2015_May_21_1746	s	s	7	3	SIC	138	RC	1	0	02VD 02VO 02VC 02MD 02MO 09MC 02RD 02RO	1	0	1.0116341114	-206.0	-104.0	-213	-105	1
2.7	2015_May_21_1746	s	s	7	3	SIC	139	ABS	2	1	02VD 10VO 02VC 02MD 02MO 02MC 02RD 02RO	0	1	2.44515419006	None	None	None	None	1
2.7	2015_May_21_1746	s	s	7	3	SIC	140	ABS	1	2	02VD 02VO 02VC 10MD 02MO 02MC 02RD 02RO	0	1	2.30169415474	None	None	None	None	1
2.7	2015_May_21_1746	s	s	7	3	SIC	141	ABS	2	2	10VD 02VO 02VC 02MD 02MO 02MC 02RD 02RO	0	1	2.58909797668	None	None	None	None	1
2.7	2015_May_21_1746	s	s	7	3	SIC	142	RC	2	1	02VD 09VO 02VC 02MD 02MO 02MC 02RD 02RO	1	0	0.846854925156	-272.0	-185.0	-260	-183	1
2.7	2015_May_21_1746	s	s	7	3	SIC	143	RC	2	2	09VD 02VO 02VC 02MD 02MO 02MC 02RD 02RO	1	0	0.811550855637	-321.0	44.0	-319	35	1
2.7	2015_May_21_1746	s	s	7	3	SIC	144	ABS	0	2	02VD 02VO 02VC 02MD 02MO 02MC 10RD 02RO	0	1	1.86588907242	None	None	None	None	1
2.7	2015_May_21_1746	s	s	7	3	SIC	145	RC	1	1	02VD 02VO 02VC 02MD 09MO 02MC 02RD 02RO	1	0	1.74137210846	-405.0	220.0	-409	218	1
2.7	2015_May_21_1746	s	s	7	3	SIC	146	RC	1	0	02VD 02VO 02VC 02MD 02MO 09MC 02RD 02RO	1	0	1.24212789536	-190.0	-361.0	-182	-365	1
2.7	2015_May_21_1746	s	s	7	3	SIC	147	RC	2	1	02VD 09VO 02VC 02MD 02MO 02MC 02RD 02RO	1	0	1.36458706856	5.0	370.0	6	372	1
2.7	2015_May_21_1746	s	s	7	3	SIC	148	ABS	2	2	10VD 02VO 02VC 02MD 02MO 02MC 02RD 02RO	0	1	2.33704018593	None	None	None	None	1
2.7	2015_May_21_1746	s	s	7	3	SIC	149	RC	0	1	02VD 02VO 02VC 02MD 02MO 02MC 02RD 09RO	1	0	3.72561001778	-325.0	-345.0	-318	-342	1
2.7	2015_May_21_1746	s	s	7	3	SIC	150	RC	0	2	02VD 02VO 02VC 02MD 02MO 02MC 09RD 02RO	1	0	2.44765210152	433.0	-349.0	431	-350	1
2.7	2015_May_21_1746	s	s	7	3	SIC	151	RC	2	2	09VD 02VO 02VC 02MD 02MO 02MC 02RD 02RO	1	0	1.04224205017	-425.0	-209.0	-424	-208	1
2.7	2015_May_21_1746	s	s	7	3	SIC	152	ABS	0	2	02VD 02VO 02VC 02MD 02MO 02MC 10RD 02RO	0	1	2.00025391579	None	None	None	None	1
2.7	2015_May_21_1746	s	s	7	3	SIC	153	ABS	1	2	02VD 02VO 02VC 10MD 02MO 02MC 02RD 02RO	0	1	1.8784570694	None	None	None	None	1
2.7	2015_May_21_1746	s	s	7	3	SIC	154	ABS	2	0	02VD 02VO 10VC 02MD 02MO 02MC 02RD 02RO	0	1	2.1132671833	None	None	None	None	1
2.7	2015_May_21_1746	s	s	7	3	SIC	155	RC	2	0	02VD 02VO 09VC 02MD 02MO 02MC 02RD 02RO	1	0	2.03121781349	416.0	-192.0	414	-190	1
2.7	2015_May_21_1746	s	s	7	3	SIC	156	ABS	2	1	02VD 10VO 02VC 02MD 02MO 02MC 02RD 02RO	0	1	2.1063349247	None	None	None	None	1
2.7	2015_May_21_1746	s	s	7	3	SIC	157	ABS	0	1	02VD 02VO 02VC 02MD 02MO 02MC 02RD 10RO	0	1	3.36083889008	None	None	None	None	1
2.7	2015_May_21_1746	s	s	7	3	SIC	158	ABS	1	0	02VD 02VO 02VC 02MD 02MO 10MC 02RD 02RO	0	1	3.08704590797	None	None	None	None	1
2.7	2015_May_21_1746	s	s	7	3	SIC	159	RC	1	2	02VD 02VO 02VC 09MD 02MO 02MC 02RD 02RO	1	0	2.00664114952	213.0	-314.0	222	-315	1
2.7	2015_May_21_1746	s	s	7	3	SIC	160	ABS	1	1	02VD 02VO 02VC 02MD 10MO 02MC 02RD 02RO	0	1	2.72520589828	None	None	None	None	1
2.7	2015_May_21_1746	s	s	7	3	SIC	161	ABS	2	0	02VD 02VO 10VC 02MD 02MO 02MC 02RD 02RO	0	1	1.61879301071	None	None	None	None	1
2.7	2015_May_21_1746	s	s	7	3	SIC	162	RC	1	2	02VD 02VO 02VC 09MD 02MO 02MC 02RD 02RO	1	0	2.01941514015	453.0	79.0	454	76	1
2.7	2015_May_21_1746	s	s	7	3	SIC	163	ABS	2	2	10VD 02VO 02VC 02MD 02MO 02MC 02RD 02RO	0	1	2.26674604416	None	None	None	None	1
2.7	2015_May_21_1746	s	s	7	3	SIC	164	RC	0	2	02VD 02VO 02VC 02MD 02MO 02MC 09RD 02RO	1	0	0.782703876495	-422.0	-364.0	-417	-364	1
2.7	2015_May_21_1746	s	s	7	3	SIC	165	RC	2	1	02VD 09VO 02VC 02MD 02MO 02MC 02RD 02RO	1	0	1.86619210243	347.0	-222.0	343	-226	1
2.7	2015_May_21_1746	s	s	7	3	SIC	166	RC	1	1	02VD 02VO 02VC 02MD 09MO 02MC 02RD 02RO	1	0	1.82382082939	-126.0	-364.0	-132	-360	1
2.7	2015_May_21_1746	s	s	7	3	SIC	167	ABS	1	2	02VD 02VO 02VC 10MD 02MO 02MC 02RD 02RO	0	1	2.0308778286	None	None	None	None	1
2.7	2015_May_21_1746	s	s	7	3	SIC	168	RC	0	1	02VD 02VO 02VC 02MD 02MO 02MC 02RD 09RO	1	0	3.42462491989	180.0	67.0	176	67	1
2.7	2015_May_21_1746	s	s	7	3	SIC	169	ABS	1	0	02VD 02VO 02VC 02MD 02MO 10MC 02RD 02RO	0	1	3.83176803589	None	None	None	None	1
2.7	2015_May_21_1746	s	s	7	3	SIC	170	ABS	1	1	02VD 02VO 02VC 02MD 10MO 02MC 02RD 02RO	0	1	2.45948982239	None	None	None	None	1
2.7	2015_May_21_1746	s	s	7	3	SIC	171	ABS	0	1	02VD 02VO 02VC 02MD 02MO 02MC 02RD 10RO	0	1	3.11859297752	None	None	None	None	1
2.7	2015_May_21_1746	s	s	7	3	SIC	172	RC	2	2	09VD 02VO 02VC 02MD 02MO 02MC 02RD 02RO	1	0	1.74958205223	-310.0	248.0	-307	241	1
2.7	2015_May_21_1746	s	s	7	3	SIC	173	RC	1	0	02VD 02VO 02VC 02MD 02MO 09MC 02RD 02RO	1	0	0.882102966309	-376.0	-211.0	-384	-209	1
2.7	2015_May_21_1746	s	s	7	3	SIC	174	ABS	0	2	02VD 02VO 02VC 02MD 02MO 02MC 10RD 02RO	0	1	2.64553189278	None	None	None	None	1
2.7	2015_May_21_1746	s	s	7	3	SIC	175	RC	2	0	02VD 02VO 09VC 02MD 02MO 02MC 02RD 02RO	1	0	0.84193110466	8.0	-25.0	5	-24	1
2.7	2015_May_21_1746	s	s	7	3	SIC	176	ABS	2	1	02VD 10VO 02VC 02MD 02MO 02MC 02RD 02RO	0	1	2.33697795868	None	None	None	None	1
2.7	2015_May_21_1746	s	s	7	3	SIC	177	RC	0	2	02VD 02VO 02VC 02MD 02MO 02MC 09RD 02RO	1	0	0.823313951492	-65.0	-170.0	-66	-175	1
2.7	2015_May_21_1746	s	s	7	3	SIC	178	ABS	2	1	02VD 10VO 02VC 02MD 02MO 02MC 02RD 02RO	0	1	2.33024096489	None	None	None	None	1
2.7	2015_May_21_1746	s	s	7	3	SIC	179	RC	1	0	02VD 02VO 02VC 02MD 02MO 09MC 02RD 02RO	1	0	0.891571044922	-324.0	-252.0	-324	-253	1
2.7	2015_May_21_1746	s	s	7	3	SIC	180	RC	2	2	09VD 02VO 02VC 02MD 02MO 02MC 02RD 02RO	1	0	2.50650596619	304.0	-275.0	314	-267	1
2.7	2015_May_21_1746	s	s	7	3	SIC	181	RC	1	1	02VD 02VO 02VC 02MD 09MO 02MC 02RD 02RO	1	0	0.983116865158	66.0	149.0	68	144	1
2.7	2015_May_21_1746	s	s	7	3	SIC	182	ABS	0	2	02VD 02VO 02VC 02MD 02MO 02MC 10RD 02RO	0	1	1.93655085564	None	None	None	None	1
2.7	2015_May_21_1746	s	s	7	3	SIC	183	RC	0	1	02VD 02VO 02VC 02MD 02MO 02MC 02RD 09RO	0	1	3.63166093826	-257.0	-144.0	None	None	0
2.7	2015_May_21_1746	s	s	7	3	SIC	184	RC	2	0	02VD 02VO 09VC 02MD 02MO 02MC 02RD 02RO	0	1	2.56296896935	138.0	-74.0	None	None	0
2.7	2015_May_21_1746	s	s	7	3	SIC	185	ABS	2	2	10VD 02VO 02VC 02MD 02MO 02MC 02RD 02RO	0	1	2.04425096512	None	None	None	None	1
2.7	2015_May_21_1746	s	s	7	3	SIC	186	ABS	1	0	02VD 02VO 02VC 02MD 02MO 10MC 02RD 02RO	0	1	2.5839509964	None	None	None	None	1
2.7	2015_May_21_1746	s	s	7	3	SIC	187	RC	2	1	02VD 09VO 02VC 02MD 02MO 02MC 02RD 02RO	1	0	1.64225292206	-243.0	249.0	-233	250	1
2.7	2015_May_21_1746	s	s	7	3	SIC	188	ABS	1	2	02VD 02VO 02VC 10MD 02MO 02MC 02RD 02RO	0	1	1.20675992966	None	None	None	None	1
2.7	2015_May_21_1746	s	s	7	3	SIC	189	RC	1	2	02VD 02VO 02VC 09MD 02MO 02MC 02RD 02RO	1	0	1.72964000702	335.0	253.0	335	256	1
2.7	2015_May_21_1746	s	s	7	3	SIC	190	ABS	2	0	02VD 02VO 10VC 02MD 02MO 02MC 02RD 02RO	0	1	1.14800286293	None	None	None	None	1
2.7	2015_May_21_1746	s	s	7	3	SIC	191	ABS	0	1	02VD 02VO 02VC 02MD 02MO 02MC 02RD 10RO	0	1	3.29284405708	None	None	None	None	1
2.7	2015_May_21_1746	s	s	7	3	SIC	192	ABS	1	1	02VD 02VO 02VC 02MD 10MO 02MC 02RD 02RO	0	1	2.81937503815	None	None	None	None	1
2.7	2015_May_21_1746	s	s	7	3	SIC	193	ABS	2	1	02VD 10VO 02VC 02MD 02MO 02MC 02RD 02RO	0	1	1.70118403435	None	None	None	None	1
2.7	2015_May_21_1746	s	s	7	3	SIC	194	RC	1	0	02VD 02VO 02VC 02MD 02MO 09MC 02RD 02RO	1	0	1.5855410099	285.0	124.0	288	125	1
2.7	2015_May_21_1746	s	s	7	3	SIC	195	ABS	2	2	10VD 02VO 02VC 02MD 02MO 02MC 02RD 02RO	0	1	1.56002998352	None	None	None	None	1
2.7	2015_May_21_1746	s	s	7	3	SIC	196	RC	1	2	02VD 02VO 02VC 09MD 02MO 02MC 02RD 02RO	1	0	1.50373792648	-53.0	207.0	-48	196	1
2.7	2015_May_21_1746	s	s	7	3	SIC	197	RC	1	1	02VD 02VO 02VC 02MD 09MO 02MC 02RD 02RO	1	0	1.89442896843	-258.0	-405.0	-250	-410	1
2.7	2015_May_21_1746	s	s	7	3	SIC	198	ABS	2	0	02VD 02VO 10VC 02MD 02MO 02MC 02RD 02RO	0	1	2.0189511776	None	None	None	None	1
2.7	2015_May_21_1746	s	s	7	3	SIC	199	ABS	1	1	02VD 02VO 02VC 02MD 10MO 02MC 02RD 02RO	0	1	2.07629704475	None	None	None	None	1
2.7	2015_May_21_1746	s	s	7	3	SIC	200	ABS	0	2	02VD 02VO 02VC 02MD 02MO 02MC 10RD 02RO	0	1	2.05917692184	None	None	None	None	1
2.7	2015_May_21_1746	s	s	7	3	SIC	201	ABS	0	1	02VD 02VO 02VC 02MD 02MO 02MC 02RD 10RO	0	1	3.54233384132	None	None	None	None	1
2.7	2015_May_21_1746	s	s	7	3	SIC	202	RC	0	2	02VD 02VO 02VC 02MD 02MO 02MC 09RD 02RO	1	0	1.44221901894	116.0	-380.0	114	-377	1
2.7	2015_May_21_1746	s	s	7	3	SIC	203	RC	2	0	02VD 02VO 09VC 02MD 02MO 02MC 02RD 02RO	1	0	1.65407991409	473.0	363.0	463	364	1
2.7	2015_May_21_1746	s	s	7	3	SIC	204	RC	0	1	02VD 02VO 02VC 02MD 02MO 02MC 02RD 09RO	1	0	0.681948184967	-167.0	40.0	-162	34	1
2.7	2015_May_21_1746	s	s	7	3	SIC	205	RC	2	2	09VD 02VO 02VC 02MD 02MO 02MC 02RD 02RO	1	0	1.19199800491	-518.0	336.0	-515	337	1
2.7	2015_May_21_1746	s	s	7	3	SIC	206	RC	2	1	02VD 09VO 02VC 02MD 02MO 02MC 02RD 02RO	1	0	0.66536283493	-179.0	-113.0	-185	-116	1
2.7	2015_May_21_1746	s	s	7	3	SIC	207	ABS	1	0	02VD 02VO 02VC 02MD 02MO 10MC 02RD 02RO	0	1	2.7016980648	None	None	None	None	1
2.7	2015_May_21_1746	s	s	7	3	SIC	208	ABS	1	2	02VD 02VO 02VC 10MD 02MO 02MC 02RD 02RO	0	1	2.72215986252	None	None	None	None	1
2.7	2015_May_21_1746	s	s	7	3	SIC	209	RC	1	0	02VD 02VO 02VC 02MD 02MO 09MC 02RD 02RO	1	0	1.11753296852	-30.0	-43.0	-22	-48	1
2.7	2015_May_21_1746	s	s	7	3	SIC	210	ABS	2	1	02VD 10VO 02VC 02MD 02MO 02MC 02RD 02RO	0	1	1.75977802277	None	None	None	None	1
2.7	2015_May_21_1746	s	s	7	3	SIC	211	ABS	0	2	02VD 02VO 02VC 02MD 02MO 02MC 10RD 02RO	0	1	1.5505130291	None	None	None	None	1
2.7	2015_May_21_1746	s	s	7	3	SIC	212	RC	2	1	02VD 09VO 02VC 02MD 02MO 02MC 02RD 02RO	1	0	2.21226787567	294.0	299.0	297	299	1
2.7	2015_May_21_1746	s	s	7	3	SIC	213	RC	2	2	09VD 02VO 02VC 02MD 02MO 02MC 02RD 02RO	1	0	1.9688410759	-132.0	-341.0	-129	-337	1
2.7	2015_May_21_1746	s	s	7	3	SIC	214	ABS	1	2	02VD 02VO 02VC 10MD 02MO 02MC 02RD 02RO	0	1	2.65944314003	None	None	None	None	1
2.7	2015_May_21_1746	s	s	7	3	SIC	215	RC	0	2	02VD 02VO 02VC 02MD 02MO 02MC 09RD 02RO	1	0	1.45887184143	352.0	-63.0	353	-66	1
2.7	2015_May_21_1746	s	s	7	3	SIC	216	RC	2	0	02VD 02VO 09VC 02MD 02MO 02MC 02RD 02RO	1	0	0.799733161926	-211.0	76.0	-213	86	1
2.7	2015_May_21_1746	s	s	7	3	SIC	217	ABS	1	0	02VD 02VO 02VC 02MD 02MO 10MC 02RD 02RO	0	1	3.06384086609	None	None	None	None	1
2.7	2015_May_21_1746	s	s	7	3	SIC	218	RC	0	1	02VD 02VO 02VC 02MD 02MO 02MC 02RD 09RO	1	0	1.65100598335	121.0	-371.0	121	-372	1
2.7	2015_May_21_1746	s	s	7	3	SIC	219	ABS	2	2	10VD 02VO 02VC 02MD 02MO 02MC 02RD 02RO	0	1	1.87084913254	None	None	None	None	1
2.7	2015_May_21_1746	s	s	7	3	SIC	220	RC	1	1	02VD 02VO 02VC 02MD 09MO 02MC 02RD 02RO	1	0	1.28231906891	-215.0	-153.0	-215	-150	1
2.7	2015_May_21_1746	s	s	7	3	SIC	221	ABS	1	1	02VD 02VO 02VC 02MD 10MO 02MC 02RD 02RO	0	1	2.23076105118	None	None	None	None	1
2.7	2015_May_21_1746	s	s	7	3	SIC	222	ABS	0	1	02VD 02VO 02VC 02MD 02MO 02MC 02RD 10RO	0	1	3.54214000702	None	None	None	None	1
2.7	2015_May_21_1746	s	s	7	3	SIC	223	RC	1	2	02VD 02VO 02VC 09MD 02MO 02MC 02RD 02RO	1	0	1.12404704094	-87.0	-108.0	-85	-108	1
2.7	2015_May_21_1746	s	s	7	3	SIC	224	ABS	2	0	02VD 02VO 10VC 02MD 02MO 02MC 02RD 02RO	0	1	2.10312318802	None	None	None	None	1
2.7	2015_May_21_1746	s	s	7	3	SIC	225	RC	1	2	02VD 02VO 02VC 09MD 02MO 02MC 02RD 02RO	0	1	1.79793190956	265.0	-404.0	None	None	0
2.7	2015_May_21_1746	s	s	7	3	SIC	226	ABS	1	0	02VD 02VO 02VC 02MD 02MO 10MC 02RD 02RO	0	1	3.63153815269	None	None	None	None	1
2.7	2015_May_21_1746	s	s	7	3	SIC	227	ABS	1	2	02VD 02VO 02VC 10MD 02MO 02MC 02RD 02RO	0	1	2.00658178329	None	None	None	None	1
2.7	2015_May_21_1746	s	s	7	3	SIC	228	ABS	1	1	02VD 02VO 02VC 02MD 10MO 02MC 02RD 02RO	0	1	3.06655311584	None	None	None	None	1
2.7	2015_May_21_1746	s	s	7	3	SIC	229	ABS	0	2	02VD 02VO 02VC 02MD 02MO 02MC 10RD 02RO	0	1	2.00690698624	None	None	None	None	1
2.7	2015_May_21_1746	s	s	7	3	SIC	230	RC	2	1	02VD 09VO 02VC 02MD 02MO 02MC 02RD 02RO	0	1	1.84722614288	-247.0	-16.0	None	None	0
2.7	2015_May_21_1746	s	s	7	3	SIC	231	RC	2	2	09VD 02VO 02VC 02MD 02MO 02MC 02RD 02RO	1	0	0.940901041031	-410.0	-393.0	-408	-401	1
2.7	2015_May_21_1746	s	s	7	3	SIC	232	ABS	2	2	10VD 02VO 02VC 02MD 02MO 02MC 02RD 02RO	0	1	2.68305492401	None	None	None	None	1
2.7	2015_May_21_1746	s	s	7	3	SIC	233	RC	1	0	02VD 02VO 02VC 02MD 02MO 09MC 02RD 02RO	1	0	1.90350794792	-116.0	-148.0	-109	-150	1
2.7	2015_May_21_1746	s	s	7	3	SIC	234	RC	2	0	02VD 02VO 09VC 02MD 02MO 02MC 02RD 02RO	1	0	1.25397205353	33.0	-218.0	24	-221	1
2.7	2015_May_21_1746	s	s	7	3	SIC	235	ABS	2	0	02VD 02VO 10VC 02MD 02MO 02MC 02RD 02RO	0	1	1.61210489273	None	None	None	None	1
2.7	2015_May_21_1746	s	s	7	3	SIC	236	ABS	0	1	02VD 02VO 02VC 02MD 02MO 02MC 02RD 10RO	0	1	3.66005396843	None	None	None	None	1
2.7	2015_May_21_1746	s	s	7	3	SIC	237	RC	0	1	02VD 02VO 02VC 02MD 02MO 02MC 02RD 09RO	1	0	1.34761500359	-196.0	293.0	-202	285	1
2.7	2015_May_21_1746	s	s	7	3	SIC	238	RC	0	2	02VD 02VO 02VC 02MD 02MO 02MC 09RD 02RO	1	0	1.82378602028	-108.0	-355.0	-110	-358	1
2.7	2015_May_21_1746	s	s	7	3	SIC	239	ABS	2	1	02VD 10VO 02VC 02MD 02MO 02MC 02RD 02RO	0	1	2.37189602852	None	None	None	None	1
2.7	2015_May_21_1746	s	s	7	3	SIC	240	RC	1	1	02VD 02VO 02VC 02MD 09MO 02MC 02RD 02RO	1	0	1.04698514938	-479.0	-16.0	-479	-23	1
2.7	2015_May_21_1746	s	s	7	3	SIC	241	ABS	2	1	02VD 10VO 02VC 02MD 02MO 02MC 02RD 02RO	0	1	2.49474692345	None	None	None	None	1
2.7	2015_May_21_1746	s	s	7	3	SIC	242	RC	2	1	02VD 09VO 02VC 02MD 02MO 02MC 02RD 02RO	1	0	1.40692186356	-334.0	191.0	-328	193	1
2.7	2015_May_21_1746	s	s	7	3	SIC	243	ABS	2	0	02VD 02VO 10VC 02MD 02MO 02MC 02RD 02RO	0	1	2.64280700684	None	None	None	None	1
2.7	2015_May_21_1746	s	s	7	3	SIC	244	RC	1	2	02VD 02VO 02VC 09MD 02MO 02MC 02RD 02RO	1	0	1.54813313484	-402.0	-255.0	-390	-252	1
2.7	2015_May_21_1746	s	s	7	3	SIC	245	ABS	1	2	02VD 02VO 02VC 10MD 02MO 02MC 02RD 02RO	0	1	1.88258910179	None	None	None	None	1
2.7	2015_May_21_1746	s	s	7	3	SIC	246	ABS	0	2	02VD 02VO 02VC 02MD 02MO 02MC 10RD 02RO	0	1	2.63595700264	None	None	None	None	1
2.7	2015_May_21_1746	s	s	7	3	SIC	247	RC	0	2	02VD 02VO 02VC 02MD 02MO 02MC 09RD 02RO	0	1	2.65990519524	123.0	31.0	None	None	0
2.7	2015_May_21_1746	s	s	7	3	SIC	248	ABS	1	0	02VD 02VO 02VC 02MD 02MO 10MC 02RD 02RO	0	1	3.106757164	None	None	None	None	1
2.7	2015_May_21_1746	s	s	7	3	SIC	249	ABS	1	1	02VD 02VO 02VC 02MD 10MO 02MC 02RD 02RO	0	1	2.80755996704	None	None	None	None	1
2.7	2015_May_21_1746	s	s	7	3	SIC	250	RC	2	2	09VD 02VO 02VC 02MD 02MO 02MC 02RD 02RO	1	0	2.48294997215	211.0	-20.0	208	-21	1
2.7	2015_May_21_1746	s	s	7	3	SIC	251	RC	2	0	02VD 02VO 09VC 02MD 02MO 02MC 02RD 02RO	1	0	1.43327093124	189.0	223.0	189	224	1
2.7	2015_May_21_1746	s	s	7	3	SIC	252	RC	0	1	02VD 02VO 02VC 02MD 02MO 02MC 02RD 09RO	0	1	2.93028211594	77.0	135.0	None	None	0
2.7	2015_May_21_1746	s	s	7	3	SIC	253	ABS	2	2	10VD 02VO 02VC 02MD 02MO 02MC 02RD 02RO	0	1	2.25976705551	None	None	None	None	1
2.7	2015_May_21_1746	s	s	7	3	SIC	254	RC	1	1	02VD 02VO 02VC 02MD 09MO 02MC 02RD 02RO	1	0	0.646731138229	-331.0	74.0	-339	69	1
2.7	2015_May_21_1746	s	s	7	3	SIC	255	RC	1	0	02VD 02VO 02VC 02MD 02MO 09MC 02RD 02RO	1	0	0.823361873627	-435.0	62.0	-440	57	1
2.7	2015_May_21_1746	s	s	7	3	SIC	256	ABS	0	1	02VD 02VO 02VC 02MD 02MO 02MC 02RD 10RO	0	1	2.68307614326	None	None	None	None	1
2.7	2015_May_21_1746	s	s	7	3	SIC	257	ABS	0	1	02VD 02VO 02VC 02MD 02MO 02MC 02RD 10RO	0	1	3.91476392746	None	None	None	None	1
2.7	2015_May_21_1746	s	s	7	3	SIC	258	RC	2	1	02VD 09VO 02VC 02MD 02MO 02MC 02RD 02RO	1	0	1.00930404663	-11.0	-70.0	-12	-65	1
2.7	2015_May_21_1746	s	s	7	3	SIC	259	ABS	1	0	02VD 02VO 02VC 02MD 02MO 10MC 02RD 02RO	0	1	4.01316690445	None	None	None	None	1
2.7	2015_May_21_1746	s	s	7	3	SIC	260	ABS	1	1	02VD 02VO 02VC 02MD 10MO 02MC 02RD 02RO	0	1	3.10671901703	None	None	None	None	1
2.7	2015_May_21_1746	s	s	7	3	SIC	261	ABS	0	2	02VD 02VO 02VC 02MD 02MO 02MC 10RD 02RO	0	1	2.30158495903	None	None	None	None	1
2.7	2015_May_21_1746	s	s	7	3	SIC	262	RC	0	1	02VD 02VO 02VC 02MD 02MO 02MC 02RD 09RO	1	0	1.34967899323	-376.0	-350.0	-371	-359	1
2.7	2015_May_21_1746	s	s	7	3	SIC	263	ABS	1	2	02VD 02VO 02VC 10MD 02MO 02MC 02RD 02RO	0	1	1.9979531765	None	None	None	None	1
2.7	2015_May_21_1746	s	s	7	3	SIC	264	ABS	2	0	02VD 02VO 10VC 02MD 02MO 02MC 02RD 02RO	0	1	1.67076301575	None	None	None	None	1
2.7	2015_May_21_1746	s	s	7	3	SIC	265	RC	2	2	09VD 02VO 02VC 02MD 02MO 02MC 02RD 02RO	1	0	1.94533896446	12.0	-394.0	11	-402	1
2.7	2015_May_21_1746	s	s	7	3	SIC	266	RC	1	2	02VD 02VO 02VC 09MD 02MO 02MC 02RD 02RO	1	0	1.25404787064	221.0	122.0	225	121	1
2.7	2015_May_21_1746	s	s	7	3	SIC	267	RC	0	2	02VD 02VO 02VC 02MD 02MO 02MC 09RD 02RO	1	0	0.924865007401	-421.0	306.0	-430	309	1
2.7	2015_May_21_1746	s	s	7	3	SIC	268	RC	2	0	02VD 02VO 09VC 02MD 02MO 02MC 02RD 02RO	1	0	0.652779102325	-285.0	322.0	-291	319	1
2.7	2015_May_21_1746	s	s	7	3	SIC	269	ABS	2	2	10VD 02VO 02VC 02MD 02MO 02MC 02RD 02RO	0	1	1.83193302155	None	None	None	None	1
2.7	2015_May_21_1746	s	s	7	3	SIC	270	ABS	2	1	02VD 10VO 02VC 02MD 02MO 02MC 02RD 02RO	0	1	2.16509604454	None	None	None	None	1
2.7	2015_May_21_1746	s	s	7	3	SIC	271	RC	1	0	02VD 02VO 02VC 02MD 02MO 09MC 02RD 02RO	1	0	1.04131889343	-517.0	126.0	-516	128	1
2.7	2015_May_21_1746	s	s	7	3	SIC	272	RC	1	1	02VD 02VO 02VC 02MD 09MO 02MC 02RD 02RO	1	0	1.60398101807	328.0	286.0	319	283	1
2.7	2015_May_21_1746	s	s	7	3	SIC	273	RC	1	0	02VD 02VO 02VC 02MD 02MO 09MC 02RD 02RO	1	0	1.31274795532	-514.0	-192.0	-515	-197	1
2.7	2015_May_21_1746	s	s	7	3	SIC	274	RC	1	1	02VD 02VO 02VC 02MD 09MO 02MC 02RD 02RO	1	0	1.60013890266	323.0	-401.0	329	-401	1
2.7	2015_May_21_1746	s	s	7	3	SIC	275	RC	1	2	02VD 02VO 02VC 09MD 02MO 02MC 02RD 02RO	1	0	0.858593940735	131.0	-100.0	132	-98	1
2.7	2015_May_21_1746	s	s	7	3	SIC	276	ABS	2	2	10VD 02VO 02VC 02MD 02MO 02MC 02RD 02RO	0	1	2.05926609039	None	None	None	None	1
2.7	2015_May_21_1746	s	s	7	3	SIC	277	ABS	0	1	02VD 02VO 02VC 02MD 02MO 02MC 02RD 10RO	0	1	2.65617895126	None	None	None	None	1
2.7	2015_May_21_1746	s	s	7	3	SIC	278	ABS	1	1	02VD 02VO 02VC 02MD 10MO 02MC 02RD 02RO	0	1	2.11792087555	None	None	None	None	1
2.7	2015_May_21_1746	s	s	7	3	SIC	279	RC	0	1	02VD 02VO 02VC 02MD 02MO 02MC 02RD 09RO	1	0	2.43595814705	219.0	-283.0	212	-283	1
2.7	2015_May_21_1746	s	s	7	3	SIC	280	ABS	1	0	02VD 02VO 02VC 02MD 02MO 10MC 02RD 02RO	0	1	2.31330800056	None	None	None	None	1
2.7	2015_May_21_1746	s	s	7	3	SIC	281	ABS	2	1	02VD 10VO 02VC 02MD 02MO 02MC 02RD 02RO	0	1	1.89443182945	None	None	None	None	1
2.7	2015_May_21_1746	s	s	7	3	SIC	282	RC	2	0	02VD 02VO 09VC 02MD 02MO 02MC 02RD 02RO	1	0	0.759527921677	-441.0	319.0	-439	306	1
2.7	2015_May_21_1746	s	s	7	3	SIC	283	ABS	1	2	02VD 02VO 02VC 10MD 02MO 02MC 02RD 02RO	0	1	1.89434504509	None	None	None	None	1
2.7	2015_May_21_1746	s	s	7	3	SIC	284	RC	2	1	02VD 09VO 02VC 02MD 02MO 02MC 02RD 02RO	1	0	1.14113593102	225.0	-32.0	240	-24	1
2.7	2015_May_21_1746	s	s	7	3	SIC	285	RC	0	2	02VD 02VO 02VC 02MD 02MO 02MC 09RD 02RO	1	0	1.15000796318	491.0	397.0	488	398	1
2.7	2015_May_21_1746	s	s	7	3	SIC	286	ABS	0	2	02VD 02VO 02VC 02MD 02MO 02MC 10RD 02RO	0	1	2.08972382545	None	None	None	None	1
2.7	2015_May_21_1746	s	s	7	3	SIC	287	ABS	2	0	02VD 02VO 10VC 02MD 02MO 02MC 02RD 02RO	0	1	1.85315108299	None	None	None	None	1
2.7	2015_May_21_1746	s	s	7	3	SIC	288	RC	2	2	09VD 02VO 02VC 02MD 02MO 02MC 02RD 02RO	0	1	1.57196497917	-38.0	-16.0	None	None	0
2.7	2015_May_21_1746	s	s	7	3	SIC	289	RC	1	0	02VD 02VO 02VC 02MD 02MO 09MC 02RD 02RO	1	0	2.03081989288	312.0	-335.0	322	-336	1
2.7	2015_May_21_1746	s	s	7	3	SIC	290	ABS	1	2	02VD 02VO 02VC 10MD 02MO 02MC 02RD 02RO	0	1	1.84238696098	None	None	None	None	1
2.7	2015_May_21_1746	s	s	7	3	SIC	291	RC	0	1	02VD 02VO 02VC 02MD 02MO 02MC 02RD 09RO	1	0	1.2353208065	271.0	345.0	271	346	1
2.7	2015_May_21_1746	s	s	7	3	SIC	292	ABS	1	1	02VD 02VO 02VC 02MD 10MO 02MC 02RD 02RO	0	1	2.03053689003	None	None	None	None	1
2.7	2015_May_21_1746	s	s	7	3	SIC	293	ABS	2	2	10VD 02VO 02VC 02MD 02MO 02MC 02RD 02RO	0	1	1.56017494202	None	None	None	None	1
2.7	2015_May_21_1746	s	s	7	3	SIC	294	RC	2	0	02VD 02VO 09VC 02MD 02MO 02MC 02RD 02RO	1	0	1.37653493881	-211.0	-151.0	-213	-162	1
2.7	2015_May_21_1746	s	s	7	3	SIC	295	ABS	0	1	02VD 02VO 02VC 02MD 02MO 02MC 02RD 10RO	0	1	3.57761979103	None	None	None	None	1
2.7	2015_May_21_1746	s	s	7	3	SIC	296	ABS	2	0	02VD 02VO 10VC 02MD 02MO 02MC 02RD 02RO	0	1	1.67783689499	None	None	None	None	1
2.7	2015_May_21_1746	s	s	7	3	SIC	297	ABS	0	2	02VD 02VO 02VC 02MD 02MO 02MC 10RD 02RO	0	1	1.91567420959	None	None	None	None	1
2.7	2015_May_21_1746	s	s	7	3	SIC	298	ABS	2	1	02VD 10VO 02VC 02MD 02MO 02MC 02RD 02RO	0	1	1.79546904564	None	None	None	None	1
2.7	2015_May_21_1746	s	s	7	3	SIC	299	RC	2	2	09VD 02VO 02VC 02MD 02MO 02MC 02RD 02RO	1	0	0.823306083679	-491.0	170.0	-497	171	1
2.7	2015_May_21_1746	s	s	7	3	SIC	300	ABS	1	0	02VD 02VO 02VC 02MD 02MO 10MC 02RD 02RO	0	1	3.0924808979	None	None	None	None	1
2.7	2015_May_21_1746	s	s	7	3	SIC	301	RC	2	1	02VD 09VO 02VC 02MD 02MO 02MC 02RD 02RO	1	0	2.23578000069	435.0	-322.0	427	-326	1
2.7	2015_May_21_1746	s	s	7	3	SIC	302	RC	0	2	02VD 02VO 02VC 02MD 02MO 02MC 09RD 02RO	1	0	1.17644000053	-77.0	232.0	-70	227	1
2.7	2015_May_21_1746	s	s	7	3	SIC	303	RC	1	2	02VD 02VO 02VC 09MD 02MO 02MC 02RD 02RO	1	0	0.846856117249	-506.0	254.0	-516	252	1
2.7	2015_May_21_1746	s	s	7	3	SIC	304	RC	1	1	02VD 02VO 02VC 02MD 09MO 02MC 02RD 02RO	1	0	2.25447297096	-48.0	215.0	-51	220	1
2.7	2015_May_21_1746	s	s	7	3	SIC	305	RC	1	1	02VD 02VO 02VC 02MD 09MO 02MC 02RD 02RO	1	0	1.48943281174	-455.0	-130.0	-458	-128	1
2.7	2015_May_21_1746	s	s	7	3	SIC	306	ABS	1	2	02VD 02VO 02VC 10MD 02MO 02MC 02RD 02RO	0	1	2.30632591248	None	None	None	None	1
2.7	2015_May_21_1746	s	s	7	3	SIC	307	ABS	1	1	02VD 02VO 02VC 02MD 10MO 02MC 02RD 02RO	0	1	2.97717189789	None	None	None	None	1
2.7	2015_May_21_1746	s	s	7	3	SIC	308	ABS	2	1	02VD 10VO 02VC 02MD 02MO 02MC 02RD 02RO	0	1	1.5717189312	None	None	None	None	1
2.7	2015_May_21_1746	s	s	7	3	SIC	309	RC	0	2	02VD 02VO 02VC 02MD 02MO 02MC 09RD 02RO	1	0	1.02343392372	-407.0	-180.0	-404	-192	1
2.7	2015_May_21_1746	s	s	7	3	SIC	310	RC	1	0	02VD 02VO 02VC 02MD 02MO 09MC 02RD 02RO	1	0	1.14110803604	276.0	-154.0	282	-160	1
2.7	2015_May_21_1746	s	s	7	3	SIC	311	RC	2	1	02VD 09VO 02VC 02MD 02MO 02MC 02RD 02RO	1	0	0.929474115372	-71.0	159.0	-73	156	1
2.7	2015_May_21_1746	s	s	7	3	SIC	312	ABS	2	2	10VD 02VO 02VC 02MD 02MO 02MC 02RD 02RO	0	1	1.6475892067	None	None	None	None	1
2.7	2015_May_21_1746	s	s	7	3	SIC	313	ABS	1	0	02VD 02VO 02VC 02MD 02MO 10MC 02RD 02RO	0	1	2.38878703117	None	None	None	None	1
2.7	2015_May_21_1746	s	s	7	3	SIC	314	RC	0	1	02VD 02VO 02VC 02MD 02MO 02MC 02RD 09RO	1	0	1.0704870224	-30.0	-84.0	-28	-84	1
2.7	2015_May_21_1746	s	s	7	3	SIC	315	RC	2	0	02VD 02VO 09VC 02MD 02MO 02MC 02RD 02RO	1	0	2.51848006248	529.0	-279.0	538	-282	1
2.7	2015_May_21_1746	s	s	7	3	SIC	316	ABS	2	0	02VD 02VO 10VC 02MD 02MO 02MC 02RD 02RO	0	1	2.41236901283	None	None	None	None	1
2.7	2015_May_21_1746	s	s	7	3	SIC	317	RC	1	2	02VD 02VO 02VC 09MD 02MO 02MC 02RD 02RO	1	0	0.941374063492	-265.0	-306.0	-260	-308	1
2.7	2015_May_21_1746	s	s	7	3	SIC	318	ABS	0	2	02VD 02VO 02VC 02MD 02MO 02MC 10RD 02RO	0	1	2.02397799492	None	None	None	None	1
2.7	2015_May_21_1746	s	s	7	3	SIC	319	RC	2	2	09VD 02VO 02VC 02MD 02MO 02MC 02RD 02RO	1	0	0.629994153976	69.0	17.0	77	22	1
2.7	2015_May_21_1746	s	s	7	3	SIC	320	ABS	0	1	02VD 02VO 02VC 02MD 02MO 02MC 02RD 10RO	0	1	4.30471396446	None	None	None	None	1
2.7	2015_May_21_1746	s	s	7	3	SIC	321	RC	2	2	09VD 02VO 02VC 02MD 02MO 02MC 02RD 02RO	1	0	1.6095020771	-48.0	240.0	-52	243	1
2.7	2015_May_21_1746	s	s	7	3	SIC	322	ABS	0	1	02VD 02VO 02VC 02MD 02MO 02MC 02RD 10RO	0	1	3.29071784019	None	None	None	None	1
2.7	2015_May_21_1746	s	s	7	3	SIC	323	ABS	2	2	10VD 02VO 02VC 02MD 02MO 02MC 02RD 02RO	0	1	1.90124607086	None	None	None	None	1
2.7	2015_May_21_1746	s	s	7	3	SIC	324	ABS	2	1	02VD 10VO 02VC 02MD 02MO 02MC 02RD 02RO	0	1	2.50154399872	None	None	None	None	1
2.7	2015_May_21_1746	s	s	7	3	SIC	325	RC	0	1	02VD 02VO 02VC 02MD 02MO 02MC 02RD 09RO	1	0	1.30590391159	-43.0	162.0	-159	-85	0
2.7	2015_May_21_1746	s	s	7	3	SIC	326	RC	2	1	02VD 09VO 02VC 02MD 02MO 02MC 02RD 02RO	1	0	2.31585597992	166.0	-157.0	154	-148	1
2.7	2015_May_21_1746	s	s	7	3	SIC	327	RC	1	0	02VD 02VO 02VC 02MD 02MO 09MC 02RD 02RO	1	0	2.03005003929	322.0	-98.0	326	-108	1
2.7	2015_May_21_1746	s	s	7	3	SIC	328	RC	0	2	02VD 02VO 02VC 02MD 02MO 02MC 09RD 02RO	1	0	1.00682806969	50.0	-216.0	-462	270	0
2.7	2015_May_21_1746	s	s	7	3	SIC	329	ABS	2	0	02VD 02VO 10VC 02MD 02MO 02MC 02RD 02RO	0	1	1.686398983	None	None	None	None	1
2.7	2015_May_21_1746	s	s	7	3	SIC	330	RC	1	1	02VD 02VO 02VC 02MD 09MO 02MC 02RD 02RO	1	0	0.80585694313	-445.0	99.0	-443	107	1
2.7	2015_May_21_1746	s	s	7	3	SIC	331	RC	1	2	02VD 02VO 02VC 09MD 02MO 02MC 02RD 02RO	1	0	1.80023097992	190.0	267.0	195	259	1
2.7	2015_May_21_1746	s	s	7	3	SIC	332	ABS	1	1	02VD 02VO 02VC 02MD 10MO 02MC 02RD 02RO	0	1	3.12428498268	None	None	None	None	1
2.7	2015_May_21_1746	s	s	7	3	SIC	333	ABS	0	2	02VD 02VO 02VC 02MD 02MO 02MC 10RD 02RO	0	1	1.57162904739	None	None	None	None	1
2.7	2015_May_21_1746	s	s	7	3	SIC	334	ABS	1	2	02VD 02VO 02VC 10MD 02MO 02MC 02RD 02RO	0	1	1.33652114868	None	None	None	None	1
2.7	2015_May_21_1746	s	s	7	3	SIC	335	ABS	1	0	02VD 02VO 02VC 02MD 02MO 10MC 02RD 02RO	0	1	3.30249905586	None	None	None	None	1
2.7	2015_May_21_1746	s	s	7	3	SIC	336	RC	2	0	02VD 02VO 09VC 02MD 02MO 02MC 02RD 02RO	1	0	1.36472988129	-510.0	-32.0	-504	-32	1
2.7	2015_May_21_1746	s	s	7	3	SIC	337	ABS	2	0	02VD 02VO 10VC 02MD 02MO 02MC 02RD 02RO	0	1	1.76503515244	None	None	None	None	1
2.7	2015_May_21_1746	s	s	7	3	SIC	338	RC	1	2	02VD 02VO 02VC 09MD 02MO 02MC 02RD 02RO	1	0	0.783709049225	-229.0	318.0	-225	315	1
2.7	2015_May_21_1746	s	s	7	3	SIC	339	RC	1	1	02VD 02VO 02VC 02MD 09MO 02MC 02RD 02RO	1	0	1.74852800369	204.0	-335.0	197	-336	1
2.7	2015_May_21_1746	s	s	7	3	SIC	340	RC	2	1	02VD 09VO 02VC 02MD 02MO 02MC 02RD 02RO	1	0	1.00669503212	-257.0	-155.0	-248	-151	1
2.7	2015_May_21_1746	s	s	7	3	SIC	341	RC	0	2	02VD 02VO 02VC 02MD 02MO 02MC 09RD 02RO	1	0	0.740869998932	-150.0	379.0	-146	381	1
2.7	2015_May_21_1746	s	s	7	3	SIC	342	ABS	1	2	02VD 02VO 02VC 10MD 02MO 02MC 02RD 02RO	0	1	1.98372602463	None	None	None	None	1
2.7	2015_May_21_1746	s	s	7	3	SIC	343	RC	0	1	02VD 02VO 02VC 02MD 02MO 02MC 02RD 09RO	1	0	2.18371891975	532.0	280.0	541	285	1
2.7	2015_May_21_1746	s	s	7	3	SIC	344	ABS	1	1	02VD 02VO 02VC 02MD 10MO 02MC 02RD 02RO	0	1	2.41896986961	None	None	None	None	1
2.7	2015_May_21_1746	s	s	7	3	SIC	345	ABS	2	2	10VD 02VO 02VC 02MD 02MO 02MC 02RD 02RO	0	1	1.64726209641	None	None	None	None	1
2.7	2015_May_21_1746	s	s	7	3	SIC	346	RC	1	0	02VD 02VO 02VC 02MD 02MO 09MC 02RD 02RO	1	0	1.97716212273	79.0	-330.0	74	-332	1
2.7	2015_May_21_1746	s	s	7	3	SIC	347	RC	2	0	02VD 02VO 09VC 02MD 02MO 02MC 02RD 02RO	1	0	1.20651507378	136.0	-132.0	133	-128	1
2.7	2015_May_21_1746	s	s	7	3	SIC	348	ABS	0	2	02VD 02VO 02VC 02MD 02MO 02MC 10RD 02RO	0	1	2.12476396561	None	None	None	None	1
2.7	2015_May_21_1746	s	s	7	3	SIC	349	ABS	0	1	02VD 02VO 02VC 02MD 02MO 02MC 02RD 10RO	0	1	2.48898601532	None	None	None	None	1
2.7	2015_May_21_1746	s	s	7	3	SIC	350	RC	2	2	09VD 02VO 02VC 02MD 02MO 02MC 02RD 02RO	1	0	1.11257815361	-105.0	-226.0	-100	-233	1
2.7	2015_May_21_1746	s	s	7	3	SIC	351	ABS	2	1	02VD 10VO 02VC 02MD 02MO 02MC 02RD 02RO	0	1	1.44715499878	None	None	None	None	1
2.7	2015_May_21_1746	s	s	7	3	SIC	352	ABS	1	0	02VD 02VO 02VC 02MD 02MO 10MC 02RD 02RO	0	1	3.12815904617	None	None	None	None	1
2.7	2015_May_21_1746	s	s	7	3	SIC	353	ABS	0	1	02VD 02VO 02VC 02MD 02MO 02MC 02RD 10RO	0	1	2.72541594505	None	None	None	None	1
2.7	2015_May_21_1746	s	s	7	3	SIC	354	ABS	2	1	02VD 10VO 02VC 02MD 02MO 02MC 02RD 02RO	0	1	2.7419230938	None	None	None	None	1
2.7	2015_May_21_1746	s	s	7	3	SIC	355	RC	2	2	09VD 02VO 02VC 02MD 02MO 02MC 02RD 02RO	1	0	1.32948088646	58.0	-371.0	63	-371	1
2.7	2015_May_21_1746	s	s	7	3	SIC	356	RC	2	1	02VD 09VO 02VC 02MD 02MO 02MC 02RD 02RO	1	0	1.35306882858	341.0	392.0	353	393	1
2.7	2015_May_21_1746	s	s	7	3	SIC	357	RC	1	2	02VD 02VO 02VC 09MD 02MO 02MC 02RD 02RO	1	0	0.983667135239	-69.0	4.0	-77	6	1
2.7	2015_May_21_1746	s	s	7	3	SIC	358	RC	0	1	02VD 02VO 02VC 02MD 02MO 02MC 02RD 09RO	1	0	1.29413318634	-193.0	-275.0	-188	-284	1
2.7	2015_May_21_1746	s	s	7	3	SIC	359	RC	1	1	02VD 02VO 02VC 02MD 09MO 02MC 02RD 02RO	1	0	1.19502687454	-83.0	-309.0	-87	-306	1
2.7	2015_May_21_1746	s	s	7	3	SIC	360	RC	1	0	02VD 02VO 02VC 02MD 02MO 09MC 02RD 02RO	1	0	0.799754858017	-78.0	-142.0	-76	-142	1
2.7	2015_May_21_1746	s	s	7	3	SIC	361	RC	2	0	02VD 02VO 09VC 02MD 02MO 02MC 02RD 02RO	1	0	2.13512611389	373.0	-285.0	372	-291	1
2.7	2015_May_21_1746	s	s	7	3	SIC	362	RC	0	2	02VD 02VO 02VC 02MD 02MO 02MC 09RD 02RO	1	0	1.33628082275	392.0	92.0	391	92	1
2.7	2015_May_21_1746	s	s	7	3	SIC	363	ABS	1	1	02VD 02VO 02VC 02MD 10MO 02MC 02RD 02RO	0	1	2.70659804344	None	None	None	None	1
2.7	2015_May_21_1746	s	s	7	3	SIC	364	ABS	2	0	02VD 02VO 10VC 02MD 02MO 02MC 02RD 02RO	0	1	1.73786902428	None	None	None	None	1
2.7	2015_May_21_1746	s	s	7	3	SIC	365	ABS	1	0	02VD 02VO 02VC 02MD 02MO 10MC 02RD 02RO	0	1	2.00681209564	None	None	None	None	1
2.7	2015_May_21_1746	s	s	7	3	SIC	366	ABS	1	2	02VD 02VO 02VC 10MD 02MO 02MC 02RD 02RO	0	1	2.37700605392	None	None	None	None	1
2.7	2015_May_21_1746	s	s	7	3	SIC	367	ABS	2	2	10VD 02VO 02VC 02MD 02MO 02MC 02RD 02RO	0	1	1.57108807564	None	None	None	None	1
2.7	2015_May_21_1746	s	s	7	3	SIC	368	ABS	0	2	02VD 02VO 02VC 02MD 02MO 02MC 10RD 02RO	0	1	2.0077111721	None	None	None	None	1
2.7	2015_May_21_1746	s	s	7	3	SIC	369	RC	2	1	02VD 09VO 02VC 02MD 02MO 02MC 02RD 02RO	1	0	2.11252307892	-281.0	-284.0	-281	-283	1
2.7	2015_May_21_1746	s	s	7	3	SIC	370	RC	0	2	02VD 02VO 02VC 02MD 02MO 02MC 09RD 02RO	1	0	1.93592596054	492.0	-391.0	495	-391	1
2.7	2015_May_21_1746	s	s	7	3	SIC	371	RC	2	2	09VD 02VO 02VC 02MD 02MO 02MC 02RD 02RO	1	0	1.31169199944	-7.0	-204.0	-4	-209	1
2.7	2015_May_21_1746	s	s	7	3	SIC	372	ABS	1	2	02VD 02VO 02VC 10MD 02MO 02MC 02RD 02RO	0	1	1.97681188583	None	None	None	None	1
2.7	2015_May_21_1746	s	s	7	3	SIC	373	RC	1	1	02VD 02VO 02VC 02MD 09MO 02MC 02RD 02RO	1	0	2.04736495018	276.0	387.0	282	387	1
2.7	2015_May_21_1746	s	s	7	3	SIC	374	ABS	1	0	02VD 02VO 02VC 02MD 02MO 10MC 02RD 02RO	0	1	2.79557013512	None	None	None	None	1
2.7	2015_May_21_1746	s	s	7	3	SIC	375	RC	2	0	02VD 02VO 09VC 02MD 02MO 02MC 02RD 02RO	1	0	0.852673053741	-395.0	-232.0	-535	-326	0
2.7	2015_May_21_1746	s	s	7	3	SIC	376	RC	1	2	02VD 02VO 02VC 09MD 02MO 02MC 02RD 02RO	1	0	1.74164009094	513.0	-104.0	513	-103	1
2.7	2015_May_21_1746	s	s	7	3	SIC	377	ABS	2	1	02VD 10VO 02VC 02MD 02MO 02MC 02RD 02RO	0	1	2.34168195724	None	None	None	None	1
2.7	2015_May_21_1746	s	s	7	3	SIC	378	RC	1	0	02VD 02VO 02VC 02MD 02MO 09MC 02RD 02RO	1	0	1.16468286514	-430.0	68.0	-433	66	1
2.7	2015_May_21_1746	s	s	7	3	SIC	379	ABS	0	2	02VD 02VO 02VC 02MD 02MO 02MC 10RD 02RO	0	1	1.83553910255	None	None	None	None	1
2.7	2015_May_21_1746	s	s	7	3	SIC	380	ABS	2	0	02VD 02VO 10VC 02MD 02MO 02MC 02RD 02RO	0	1	2.12964701653	None	None	None	None	1
2.7	2015_May_21_1746	s	s	7	3	SIC	381	ABS	0	1	02VD 02VO 02VC 02MD 02MO 02MC 02RD 10RO	0	1	3.09184885025	None	None	None	None	1
2.7	2015_May_21_1746	s	s	7	3	SIC	382	ABS	1	1	02VD 02VO 02VC 02MD 10MO 02MC 02RD 02RO	0	1	2.48298788071	None	None	None	None	1
2.7	2015_May_21_1746	s	s	7	3	SIC	383	RC	0	1	02VD 02VO 02VC 02MD 02MO 02MC 02RD 09RO	1	0	1.34113001823	-176.0	-44.0	-171	-54	1
2.7	2015_May_21_1746	s	s	7	3	SIC	384	ABS	2	2	10VD 02VO 02VC 02MD 02MO 02MC 02RD 02RO	0	1	1.7837240696	None	None	None	None	1
2.7	2015_May_21_1746	s	s	7	3	SIC	385	RC	2	0	02VD 02VO 09VC 02MD 02MO 02MC 02RD 02RO	1	0	1.44708681107	193.0	-360.0	192	-358	1
2.7	2015_May_21_1746	s	s	7	3	SIC	386	ABS	2	1	02VD 10VO 02VC 02MD 02MO 02MC 02RD 02RO	0	1	1.84240198135	None	None	None	None	1
2.7	2015_May_21_1746	s	s	7	3	SIC	387	RC	2	1	02VD 09VO 02VC 02MD 02MO 02MC 02RD 02RO	1	0	0.988106012344	-483.0	-162.0	-493	-153	1
2.7	2015_May_21_1746	s	s	7	3	SIC	388	ABS	1	2	02VD 02VO 02VC 10MD 02MO 02MC 02RD 02RO	0	1	2.16032290459	None	None	None	None	1
2.7	2015_May_21_1746	s	s	7	3	SIC	389	ABS	0	2	02VD 02VO 02VC 02MD 02MO 02MC 10RD 02RO	0	1	1.40748310089	None	None	None	None	1
2.7	2015_May_21_1746	s	s	7	3	SIC	390	RC	1	0	02VD 02VO 02VC 02MD 02MO 09MC 02RD 02RO	1	0	2.50157999992	174.0	-168.0	167	-163	1
2.7	2015_May_21_1746	s	s	7	3	SIC	391	RC	2	2	09VD 02VO 02VC 02MD 02MO 02MC 02RD 02RO	1	0	1.05550599098	-110.0	-3.0	-100	7	1
2.7	2015_May_21_1746	s	s	7	3	SIC	392	RC	1	2	02VD 02VO 02VC 09MD 02MO 02MC 02RD 02RO	1	0	2.28970503807	-464.0	-90.0	-458	-85	1
2.7	2015_May_21_1746	s	s	7	3	SIC	393	RC	0	1	02VD 02VO 02VC 02MD 02MO 02MC 02RD 09RO	1	0	3.20103311539	176.0	-258.0	167	-259	1
2.7	2015_May_21_1746	s	s	7	3	SIC	394	ABS	2	0	02VD 02VO 10VC 02MD 02MO 02MC 02RD 02RO	0	1	1.59742999077	None	None	None	None	1
2.7	2015_May_21_1746	s	s	7	3	SIC	395	ABS	2	2	10VD 02VO 02VC 02MD 02MO 02MC 02RD 02RO	0	1	2.07913899422	None	None	None	None	1
2.7	2015_May_21_1746	s	s	7	3	SIC	396	ABS	0	1	02VD 02VO 02VC 02MD 02MO 02MC 02RD 10RO	0	1	3.35401105881	None	None	None	None	1
2.7	2015_May_21_1746	s	s	7	3	SIC	397	RC	0	2	02VD 02VO 02VC 02MD 02MO 02MC 09RD 02RO	1	0	1.91556501389	38.0	184.0	46	178	1
2.7	2015_May_21_1746	s	s	7	3	SIC	398	ABS	1	1	02VD 02VO 02VC 02MD 10MO 02MC 02RD 02RO	0	1	2.58884501457	None	None	None	None	1
2.7	2015_May_21_1746	s	s	7	3	SIC	399	RC	1	1	02VD 02VO 02VC 02MD 09MO 02MC 02RD 02RO	1	0	1.46579289436	-510.0	230.0	-516	230	1
2.7	2015_May_21_1746	s	s	7	3	SIC	400	ABS	1	0	02VD 02VO 02VC 02MD 02MO 10MC 02RD 02RO	0	1	3.14209103584	None	None	None	None	1
2.7	2015_May_21_1746	s	s	7	3	SIC	401	ABS	0	1	02VD 02VO 02VC 02MD 02MO 02MC 02RD 10RO	0	1	3.48335981369	None	None	None	None	1
2.7	2015_May_21_1746	s	s	7	3	SIC	402	ABS	2	2	10VD 02VO 02VC 02MD 02MO 02MC 02RD 02RO	0	1	2.14822101593	None	None	None	None	1
2.7	2015_May_21_1746	s	s	7	3	SIC	403	RC	1	2	02VD 02VO 02VC 09MD 02MO 02MC 02RD 02RO	1	0	1.17644500732	9.0	386.0	2	384	1
2.7	2015_May_21_1746	s	s	7	3	SIC	404	ABS	1	2	02VD 02VO 02VC 10MD 02MO 02MC 02RD 02RO	0	1	1.68971395493	None	None	None	None	1
2.7	2015_May_21_1746	s	s	7	3	SIC	405	RC	1	0	02VD 02VO 02VC 02MD 02MO 09MC 02RD 02RO	1	0	0.741325855255	-288.0	92.0	-288	91	1
2.7	2015_May_21_1746	s	s	7	3	SIC	406	ABS	1	0	02VD 02VO 02VC 02MD 02MO 10MC 02RD 02RO	0	1	3.12557911873	None	None	None	None	1
2.7	2015_May_21_1746	s	s	7	3	SIC	407	RC	2	1	02VD 09VO 02VC 02MD 02MO 02MC 02RD 02RO	1	0	1.65404605865	282.0	-185.0	279	-181	1
2.7	2015_May_21_1746	s	s	7	3	SIC	408	RC	2	2	09VD 02VO 02VC 02MD 02MO 02MC 02RD 02RO	1	0	1.49425911903	-28.0	-380.0	-32	-380	1
2.7	2015_May_21_1746	s	s	7	3	SIC	409	ABS	2	0	02VD 02VO 10VC 02MD 02MO 02MC 02RD 02RO	0	1	1.37651705742	None	None	None	None	1
2.7	2015_May_21_1746	s	s	7	3	SIC	410	ABS	1	1	02VD 02VO 02VC 02MD 10MO 02MC 02RD 02RO	0	1	1.94146609306	None	None	None	None	1
2.7	2015_May_21_1746	s	s	7	3	SIC	411	ABS	0	2	02VD 02VO 02VC 02MD 02MO 02MC 10RD 02RO	0	1	1.61892104149	None	None	None	None	1
2.7	2015_May_21_1746	s	s	7	3	SIC	412	RC	2	0	02VD 02VO 09VC 02MD 02MO 02MC 02RD 02RO	1	0	1.45889401436	440.0	-114.0	443	-122	1
2.7	2015_May_21_1746	s	s	7	3	SIC	413	RC	0	1	02VD 02VO 02VC 02MD 02MO 02MC 02RD 09RO	1	0	1.46270799637	-258.0	-167.0	-259	-167	1
2.7	2015_May_21_1746	s	s	7	3	SIC	414	RC	1	1	02VD 02VO 02VC 02MD 09MO 02MC 02RD 02RO	1	0	0.714079141617	-517.0	-267.0	-507	-265	1
2.7	2015_May_21_1746	s	s	7	3	SIC	415	ABS	2	1	02VD 10VO 02VC 02MD 02MO 02MC 02RD 02RO	0	1	2.28280901909	None	None	None	None	1
2.7	2015_May_21_1746	s	s	7	3	SIC	416	RC	0	2	02VD 02VO 02VC 02MD 02MO 02MC 09RD 02RO	1	0	2.13666820526	519.0	384.0	513	383	1
2.7	2015_May_21_1746	s	s	7	3	SIC	417	ABS	0	1	02VD 02VO 02VC 02MD 02MO 02MC 02RD 10RO	0	1	2.41915416718	None	None	None	None	1
2.7	2015_May_21_1746	s	s	7	3	SIC	418	RC	0	1	02VD 02VO 02VC 02MD 02MO 02MC 02RD 09RO	1	0	2.13727712631	101.0	396.0	94	397	1
2.7	2015_May_21_1746	s	s	7	3	SIC	419	RC	1	0	02VD 02VO 02VC 02MD 02MO 09MC 02RD 02RO	1	0	1.44220614433	314.0	402.0	319	402	1
2.7	2015_May_21_1746	s	s	7	3	SIC	420	RC	2	2	09VD 02VO 02VC 02MD 02MO 02MC 02RD 02RO	1	0	2.22402095795	508.0	208.0	517	209	1
2.7	2015_May_21_1746	s	s	7	3	SIC	421	ABS	2	0	02VD 02VO 10VC 02MD 02MO 02MC 02RD 02RO	0	1	1.65902996063	None	None	None	None	1
2.7	2015_May_21_1746	s	s	7	3	SIC	422	RC	2	1	02VD 09VO 02VC 02MD 02MO 02MC 02RD 02RO	1	0	1.17639803886	10.0	332.0	14	335	1
2.7	2015_May_21_1746	s	s	7	3	SIC	423	ABS	1	1	02VD 02VO 02VC 02MD 10MO 02MC 02RD 02RO	0	1	2.72789716721	None	None	None	None	1
2.7	2015_May_21_1746	s	s	7	3	SIC	424	RC	0	2	02VD 02VO 02VC 02MD 02MO 02MC 09RD 02RO	1	0	2.15023708344	413.0	-52.0	410	-49	1
2.7	2015_May_21_1746	s	s	7	3	SIC	425	ABS	1	0	02VD 02VO 02VC 02MD 02MO 10MC 02RD 02RO	0	1	2.01850008965	None	None	None	None	1
2.7	2015_May_21_1746	s	s	7	3	SIC	426	RC	1	1	02VD 02VO 02VC 02MD 09MO 02MC 02RD 02RO	1	0	0.709289073944	-401.0	-71.0	-404	-66	1
2.7	2015_May_21_1746	s	s	7	3	SIC	427	RC	1	2	02VD 02VO 02VC 09MD 02MO 02MC 02RD 02RO	1	0	2.55357384682	292.0	22.0	295	18	1
2.7	2015_May_21_1746	s	s	7	3	SIC	428	ABS	2	2	10VD 02VO 02VC 02MD 02MO 02MC 02RD 02RO	0	1	1.70289587975	None	None	None	None	1
2.7	2015_May_21_1746	s	s	7	3	SIC	429	RC	2	0	02VD 02VO 09VC 02MD 02MO 02MC 02RD 02RO	1	0	1.2054002285	-360.0	-328.0	-370	-328	1
2.7	2015_May_21_1746	s	s	7	3	SIC	430	ABS	2	1	02VD 10VO 02VC 02MD 02MO 02MC 02RD 02RO	0	1	1.49008202553	None	None	None	None	1
2.7	2015_May_21_1746	s	s	7	3	SIC	431	ABS	0	2	02VD 02VO 02VC 02MD 02MO 02MC 10RD 02RO	0	1	2.3851621151	None	None	None	None	1
2.7	2015_May_21_1746	s	s	7	3	SIC	432	ABS	1	2	02VD 02VO 02VC 10MD 02MO 02MC 02RD 02RO	0	1	1.70117998123	None	None	None	None	1
2.7	2015_May_21_1746	s	s	7	3	SIC	433	ABS	2	0	02VD 02VO 10VC 02MD 02MO 02MC 02RD 02RO	0	1	2.04147410393	None	None	None	None	1
2.7	2015_May_21_1746	s	s	7	3	SIC	434	RC	0	2	02VD 02VO 02VC 02MD 02MO 02MC 09RD 02RO	1	0	1.67070102692	378.0	-73.0	384	-68	1
2.7	2015_May_21_1746	s	s	7	3	SIC	435	RC	2	1	02VD 09VO 02VC 02MD 02MO 02MC 02RD 02RO	1	0	2.24746894836	4.0	-113.0	11	-115	1
2.7	2015_May_21_1746	s	s	7	3	SIC	436	ABS	2	2	10VD 02VO 02VC 02MD 02MO 02MC 02RD 02RO	0	1	2.23577713966	None	None	None	None	1
2.7	2015_May_21_1746	s	s	7	3	SIC	437	RC	1	0	02VD 02VO 02VC 02MD 02MO 09MC 02RD 02RO	1	0	2.05926203728	393.0	-7.0	395	-11	1
2.7	2015_May_21_1746	s	s	7	3	SIC	438	RC	2	0	02VD 02VO 09VC 02MD 02MO 02MC 02RD 02RO	1	0	0.999816894531	22.0	168.0	28	168	1
2.7	2015_May_21_1746	s	s	7	3	SIC	439	ABS	1	1	02VD 02VO 02VC 02MD 10MO 02MC 02RD 02RO	0	1	2.78902101517	None	None	None	None	1
2.7	2015_May_21_1746	s	s	7	3	SIC	440	ABS	0	1	02VD 02VO 02VC 02MD 02MO 02MC 02RD 10RO	0	1	3.57755303383	None	None	None	None	1
2.7	2015_May_21_1746	s	s	7	3	SIC	441	ABS	1	0	02VD 02VO 02VC 02MD 02MO 10MC 02RD 02RO	0	1	4.04353094101	None	None	None	None	1
2.7	2015_May_21_1746	s	s	7	3	SIC	442	RC	0	1	02VD 02VO 02VC 02MD 02MO 02MC 02RD 09RO	1	0	1.72377109528	141.0	128.0	142	124	1
2.7	2015_May_21_1746	s	s	7	3	SIC	443	ABS	0	2	02VD 02VO 02VC 02MD 02MO 02MC 10RD 02RO	0	1	2.51336097717	None	None	None	None	1
2.7	2015_May_21_1746	s	s	7	3	SIC	444	ABS	1	2	02VD 02VO 02VC 10MD 02MO 02MC 02RD 02RO	0	1	2.41255998611	None	None	None	None	1
2.7	2015_May_21_1746	s	s	7	3	SIC	445	RC	2	2	09VD 02VO 02VC 02MD 02MO 02MC 02RD 02RO	1	0	0.948282003403	-521.0	340.0	-535	345	1
2.7	2015_May_21_1746	s	s	7	3	SIC	446	RC	1	1	02VD 02VO 02VC 02MD 09MO 02MC 02RD 02RO	1	0	0.634977817535	-438.0	166.0	-432	166	1
2.7	2015_May_21_1746	s	s	7	3	SIC	447	ABS	2	1	02VD 10VO 02VC 02MD 02MO 02MC 02RD 02RO	0	1	1.8708782196	None	None	None	None	1
2.7	2015_May_21_1746	s	s	7	3	SIC	448	RC	1	2	02VD 02VO 02VC 09MD 02MO 02MC 02RD 02RO	1	0	2.5185739994	410.0	219.0	411	223	1
2.7	2015_May_21_1746	s	s	7	3	SIC	449	RC	2	1	02VD 09VO 02VC 02MD 02MO 02MC 02RD 02RO	1	0	1.24706411362	110.0	47.0	120	56	1
2.7	2015_May_21_1746	s	s	7	3	SIC	450	ABS	1	2	02VD 02VO 02VC 10MD 02MO 02MC 02RD 02RO	0	1	1.70044589043	None	None	None	None	1
2.7	2015_May_21_1746	s	s	7	3	SIC	451	ABS	0	1	02VD 02VO 02VC 02MD 02MO 02MC 02RD 10RO	0	1	2.59589910507	None	None	None	None	1
2.7	2015_May_21_1746	s	s	7	3	SIC	452	ABS	2	1	02VD 10VO 02VC 02MD 02MO 02MC 02RD 02RO	0	1	2.18913006783	None	None	None	None	1
2.7	2015_May_21_1746	s	s	7	3	SIC	453	ABS	1	0	02VD 02VO 02VC 02MD 02MO 10MC 02RD 02RO	0	1	3.07877802849	None	None	None	None	1
2.7	2015_May_21_1746	s	s	7	3	SIC	454	RC	1	1	02VD 02VO 02VC 02MD 09MO 02MC 02RD 02RO	1	0	1.54903697968	84.0	143.0	74	141	1
2.7	2015_May_21_1746	s	s	7	3	SIC	455	RC	1	0	02VD 02VO 02VC 02MD 02MO 09MC 02RD 02RO	1	0	4.3309481144	-423.0	-280.0	-428	-286	1
2.7	2015_May_21_1746	s	s	7	3	SIC	456	RC	1	2	02VD 02VO 02VC 09MD 02MO 02MC 02RD 02RO	1	0	0.925596952438	-214.0	-120.0	-209	-120	1
2.7	2015_May_21_1746	s	s	7	3	SIC	457	ABS	2	0	02VD 02VO 10VC 02MD 02MO 02MC 02RD 02RO	0	1	1.50204014778	None	None	None	None	1
2.7	2015_May_21_1746	s	s	7	3	SIC	458	RC	0	1	02VD 02VO 02VC 02MD 02MO 02MC 02RD 09RO	0	1	4.12587404251	213.0	-131.0	None	None	0
2.7	2015_May_21_1746	s	s	7	3	SIC	459	ABS	1	1	02VD 02VO 02VC 02MD 10MO 02MC 02RD 02RO	0	1	2.88354420662	None	None	None	None	1
2.7	2015_May_21_1746	s	s	7	3	SIC	460	RC	2	0	02VD 02VO 09VC 02MD 02MO 02MC 02RD 02RO	1	0	1.364757061	-514.0	408.0	-510	409	1
2.7	2015_May_21_1746	s	s	7	3	SIC	461	ABS	2	2	10VD 02VO 02VC 02MD 02MO 02MC 02RD 02RO	0	1	2.13919496536	None	None	None	None	1
2.7	2015_May_21_1746	s	s	7	3	SIC	462	RC	0	2	02VD 02VO 02VC 02MD 02MO 02MC 09RD 02RO	1	0	1.28941392899	-420.0	-112.0	-417	-117	1
2.7	2015_May_21_1746	s	s	7	3	SIC	463	ABS	0	2	02VD 02VO 02VC 02MD 02MO 02MC 10RD 02RO	0	1	2.13684511185	None	None	None	None	1
2.7	2015_May_21_1746	s	s	7	3	SIC	464	RC	2	2	09VD 02VO 02VC 02MD 02MO 02MC 02RD 02RO	1	0	1.93775701523	235.0	345.0	226	345	1
2.7	2015_May_21_1746	s	s	7	3	SIC	465	ABS	1	2	02VD 02VO 02VC 10MD 02MO 02MC 02RD 02RO	0	1	1.66582298279	None	None	None	None	1
2.7	2015_May_21_1746	s	s	7	3	SIC	466	ABS	2	1	02VD 10VO 02VC 02MD 02MO 02MC 02RD 02RO	0	1	2.25929903984	None	None	None	None	1
2.7	2015_May_21_1746	s	s	7	3	SIC	467	RC	0	1	02VD 02VO 02VC 02MD 02MO 02MC 02RD 09RO	1	0	2.69483804703	167.0	-347.0	162	-344	1
2.7	2015_May_21_1746	s	s	7	3	SIC	468	ABS	2	0	02VD 02VO 10VC 02MD 02MO 02MC 02RD 02RO	0	1	1.73913621902	None	None	None	None	1
2.7	2015_May_21_1746	s	s	7	3	SIC	469	RC	0	2	02VD 02VO 02VC 02MD 02MO 02MC 09RD 02RO	1	0	1.7061419487	151.0	-61.0	148	-51	1
2.7	2015_May_21_1746	s	s	7	3	SIC	470	RC	2	1	02VD 09VO 02VC 02MD 02MO 02MC 02RD 02RO	1	0	1.5836288929	418.0	-145.0	422	-140	1
2.7	2015_May_21_1746	s	s	7	3	SIC	471	RC	2	2	09VD 02VO 02VC 02MD 02MO 02MC 02RD 02RO	1	0	1.72960996628	528.0	297.0	528	304	1
2.7	2015_May_21_1746	s	s	7	3	SIC	472	ABS	1	0	02VD 02VO 02VC 02MD 02MO 10MC 02RD 02RO	0	1	3.34224891663	None	None	None	None	1
2.7	2015_May_21_1746	s	s	7	3	SIC	473	ABS	0	2	02VD 02VO 02VC 02MD 02MO 02MC 10RD 02RO	0	1	2.30637383461	None	None	None	None	1
2.7	2015_May_21_1746	s	s	7	3	SIC	474	ABS	2	2	10VD 02VO 02VC 02MD 02MO 02MC 02RD 02RO	0	1	2.76547312737	None	None	None	None	1
2.7	2015_May_21_1746	s	s	7	3	SIC	475	ABS	1	1	02VD 02VO 02VC 02MD 10MO 02MC 02RD 02RO	0	1	2.84786891937	None	None	None	None	1
2.7	2015_May_21_1746	s	s	7	3	SIC	476	RC	2	0	02VD 02VO 09VC 02MD 02MO 02MC 02RD 02RO	1	0	0.98806810379	-300.0	66.0	-297	62	1
2.7	2015_May_21_1746	s	s	7	3	SIC	477	RC	1	0	02VD 02VO 02VC 02MD 02MO 09MC 02RD 02RO	1	0	1.9453189373	299.0	-378.0	-456	403	0
2.7	2015_May_21_1746	s	s	7	3	SIC	478	ABS	0	1	02VD 02VO 02VC 02MD 02MO 02MC 02RD 10RO	0	1	3.41281509399	None	None	None	None	1
2.7	2015_May_21_1746	s	s	7	3	SIC	479	RC	1	2	02VD 02VO 02VC 09MD 02MO 02MC 02RD 02RO	1	0	1.40708184242	285.0	235.0	290	236	1
2.7	2015_May_21_1746	s	s	7	3	SIC	480	RC	1	1	02VD 02VO 02VC 02MD 09MO 02MC 02RD 02RO	1	0	0.865461826324	-372.0	104.0	-369	99	1
