Version	Date	Stimuli	Method	Subject	Session	Condition	Trial	Target	Channel1	Channel2	Distractors	LMouseButton	RMouseButton	RT	TargetX	TargetY	ResponseX	ResponseY	Correct
2.7	2015_May_17_1408	s	s	7	1	Capacity	1	ABS	1	0	08VC 16MC	1	0	8.90968203545	None	None	252	-387	0
2.7	2015_May_17_1408	s	s	7	1	Capacity	2	RC	1	0	08VC 15MC	1	0	2.89494299889	13.0	114.0	11	105	1
2.7	2015_May_17_1408	s	s	7	1	Capacity	3	RC	2	0	15VC 08MC	1	0	2.7842130661	41.0	-292.0	52	-292	1
2.7	2015_May_17_1408	s	s	7	1	Capacity	4	ABS	2	0	16VC 08MC	1	0	6.19061422348	None	None	-91	111	0
2.7	2015_May_17_1408	s	s	7	1	Capacity	5	RC	2	0	15VC 08MC	1	0	11.0470070839	-117.0	255.0	-106	261	1
2.7	2015_May_17_1408	s	s	7	1	Capacity	6	RC	1	0	08VC 15MC	1	0	13.7827339172	59.0	-332.0	63	-336	1
2.7	2015_May_17_1408	s	s	7	1	Capacity	7	ABS	1	0	08VC 16MC	0	0	-1	None	None	None	None	-1
2.7	2015_May_17_1408	s	s	7	1	Capacity	8	ABS	2	0	16VC 08MC	1	0	9.32178592682	None	None	-135	-367	0
2.7	2015_May_17_1408	s	s	7	1	Capacity	9	RC	1	0	08VC 15MC	1	0	10.7774040699	135.0	-110.0	129	-110	1
2.7	2015_May_17_1408	s	s	7	1	Capacity	10	ABS	1	0	08VC 16MC	0	1	17.7702951431	None	None	None	None	1
2.7	2015_May_17_1408	s	s	7	1	Capacity	11	ABS	2	0	16VC 08MC	1	0	9.41581392288	None	None	470	-42	0
2.7	2015_May_17_1408	s	s	7	1	Capacity	12	RC	2	0	15VC 08MC	1	0	8.44607686996	320.0	118.0	318	112	1
2.7	2015_May_17_1408	s	s	7	1	Capacity	13	RC	1	0	08VC 15MC	0	1	9.55205988884	248.0	-126.0	None	None	0
2.7	2015_May_17_1408	s	s	7	1	Capacity	14	ABS	2	0	16VC 08MC	0	1	6.92722511292	None	None	None	None	1
2.7	2015_May_17_1408	s	s	7	1	Capacity	15	ABS	1	0	08VC 16MC	1	0	6.41436505318	None	None	-180	-383	0
2.7	2015_May_17_1408	s	s	7	1	Capacity	16	RC	2	0	15VC 08MC	0	1	9.3098180294	-39.0	-402.0	None	None	0
2.7	2015_May_17_1408	s	s	7	1	Capacity	17	ABS	1	0	08VC 16MC	1	0	8.25050902367	None	None	-135	109	0
2.7	2015_May_17_1408	s	s	7	1	Capacity	18	RC	2	0	15VC 08MC	0	1	5.12790894508	-174.0	-310.0	None	None	0
2.7	2015_May_17_1408	s	s	7	1	Capacity	19	ABS	2	0	16VC 08MC	1	0	7.54421305656	None	None	33	103	0
2.7	2015_May_17_1408	s	s	7	1	Capacity	20	RC	1	0	08VC 15MC	1	0	13.9314730167	-509.0	-384.0	-151	-2	0
2.7	2015_May_17_1408	s	s	7	1	Capacity	21	ABS	2	0	16VC 08MC	1	0	11.7817749977	None	None	-245	-104	0
2.7	2015_May_17_1408	s	s	7	1	Capacity	22	RC	2	0	15VC 08MC	1	0	5.02541089058	-330.0	122.0	-322	116	1
2.7	2015_May_17_1408	s	s	7	1	Capacity	23	ABS	1	0	08VC 16MC	1	0	18.7814788818	None	None	394	257	0
2.7	2015_May_17_1408	s	s	7	1	Capacity	24	RC	1	0	08VC 15MC	0	1	11.2003839016	-533.0	-210.0	None	None	0
2.7	2015_May_17_1408	s	s	7	1	Capacity	25	RC	1	0	08VC 15MC	1	0	10.905477047	-173.0	-364.0	-170	-366	1
2.7	2015_May_17_1408	s	s	7	1	Capacity	26	RC	2	0	15VC 08MC	1	0	5.98380804062	-78.0	320.0	-83	325	1
2.7	2015_May_17_1408	s	s	7	1	Capacity	27	ABS	1	0	08VC 16MC	1	0	14.6134431362	None	None	285	5	0
2.7	2015_May_17_1408	s	s	7	1	Capacity	28	ABS	2	0	16VC 08MC	1	0	14.071803093	None	None	-53	144	0
2.7	2015_May_17_1408	s	s	7	1	Capacity	29	RC	2	0	15VC 08MC	1	0	17.4285337925	343.0	242.0	-95	-320	0
2.7	2015_May_17_1408	s	s	7	1	Capacity	30	RC	1	0	08VC 15MC	1	0	9.36377716064	74.0	-299.0	-4	115	0
2.7	2015_May_17_1408	s	s	7	1	Capacity	31	ABS	2	0	16VC 08MC	1	0	10.6230938435	None	None	527	246	0
2.7	2015_May_17_1408	s	s	7	1	Capacity	32	ABS	1	0	08VC 16MC	1	0	9.34510016441	None	None	-141	-32	0
2.7	2015_May_17_1408	s	s	7	1	Capacity	33	ABS	2	0	16VC 08MC	1	0	10.1044828892	None	None	-164	367	0
2.7	2015_May_17_1408	s	s	7	1	Capacity	34	RC	2	0	15VC 08MC	1	0	14.4889709949	-232.0	-360.0	85	43	0
2.7	2015_May_17_1408	s	s	7	1	Capacity	35	ABS	1	0	08VC 16MC	0	1	19.0626249313	None	None	None	None	1
2.7	2015_May_17_1408	s	s	7	1	Capacity	36	RC	1	0	08VC 15MC	1	0	12.0407040119	-443.0	-30.0	70	-327	0
2.7	2015_May_17_1408	s	s	7	1	Capacity	37	RC	2	0	15VC 08MC	0	1	18.0027179718	503.0	73.0	None	None	0
2.7	2015_May_17_1408	s	s	7	1	Capacity	38	ABS	2	0	16VC 08MC	1	0	17.3609519005	None	None	38	-170	0
2.7	2015_May_17_1408	s	s	7	1	Capacity	39	RC	1	0	08VC 15MC	1	0	15.5903830528	-433.0	254.0	490	63	0
2.7	2015_May_17_1408	s	s	7	1	Capacity	40	ABS	1	0	08VC 16MC	1	0	14.4942140579	None	None	-325	374	0
2.7	2015_May_17_1408	s	s	7	1	Capacity	41	ABS	2	0	16VC 08MC	1	0	19.3922400475	None	None	61	-217	0
2.7	2015_May_17_1408	s	s	7	1	Capacity	42	RC	1	0	08VC 15MC	1	0	12.0760350227	420.0	-147.0	306	-195	0
2.7	2015_May_17_1408	s	s	7	1	Capacity	43	RC	2	0	15VC 08MC	0	0	-1	513.0	-56.0	None	None	-1
2.7	2015_May_17_1408	s	s	7	1	Capacity	44	ABS	1	0	08VC 16MC	0	1	2.82440400124	None	None	None	None	1
2.7	2015_May_17_1408	s	s	7	1	Capacity	45	RC	2	0	15VC 08MC	1	0	17.7494111061	21.0	396.0	15	389	1
2.7	2015_May_17_1408	s	s	7	1	Capacity	46	RC	1	0	08VC 15MC	1	0	15.9248981476	361.0	272.0	381	-410	0
2.7	2015_May_17_1408	s	s	7	1	Capacity	47	ABS	2	0	16VC 08MC	1	0	7.59180998802	None	None	512	-405	0
2.7	2015_May_17_1408	s	s	7	1	Capacity	48	ABS	1	0	08VC 16MC	1	0	11.0487699509	None	None	145	-294	0
2.7	2015_May_17_1408	s	s	7	1	Capacity	49	RC	1	0	08VC 15MC	1	0	10.6046152115	447.0	94.0	54	-193	0
2.7	2015_May_17_1408	s	s	7	1	Capacity	50	ABS	1	0	08VC 16MC	1	0	12.3299670219	None	None	355	-4	0
2.7	2015_May_17_1408	s	s	7	1	Capacity	51	ABS	2	0	16VC 08MC	1	0	7.52744984627	None	None	39	-29	0
2.7	2015_May_17_1408	s	s	7	1	Capacity	52	RC	2	0	15VC 08MC	1	0	5.55526995659	134.0	195.0	-417	-23	0
2.7	2015_May_17_1408	s	s	7	1	Capacity	53	RC	1	0	08VC 15MC	1	0	5.70167279243	-367.0	215.0	-367	212	1
2.7	2015_May_17_1408	s	s	7	1	Capacity	54	ABS	1	0	08VC 16MC	1	0	5.32877898216	None	None	190	-63	0
2.7	2015_May_17_1408	s	s	7	1	Capacity	55	RC	2	0	15VC 08MC	1	0	6.5791349411	-301.0	-73.0	-308	-72	1
2.7	2015_May_17_1408	s	s	7	1	Capacity	56	ABS	2	0	16VC 08MC	0	1	6.72037482262	None	None	None	None	1
2.7	2015_May_17_1408	s	s	7	1	Capacity	57	RC	1	0	08VC 15MC	1	0	1.50602889061	530.0	263.0	110	16	0
2.7	2015_May_17_1408	s	s	7	1	Capacity	58	RC	2	0	15VC 08MC	1	0	3.61298298836	-439.0	-313.0	21	54	0
2.7	2015_May_17_1408	s	s	7	1	Capacity	59	ABS	1	0	08VC 16MC	1	0	10.2701401711	None	None	-507	178	0
2.7	2015_May_17_1408	s	s	7	1	Capacity	60	ABS	2	0	16VC 08MC	0	1	1.78853797913	None	None	None	None	1
2.7	2015_May_17_1408	s	s	7	1	Capacity	61	RC	2	0	15VC 08MC	0	1	4.72747993469	498.0	-95.0	None	None	0
2.7	2015_May_17_1408	s	s	7	1	Capacity	62	RC	1	0	08VC 15MC	1	0	5.15158820152	225.0	234.0	-338	37	0
2.7	2015_May_17_1408	s	s	7	1	Capacity	63	ABS	1	0	08VC 16MC	0	1	3.21311306953	None	None	None	None	1
2.7	2015_May_17_1408	s	s	7	1	Capacity	64	ABS	2	0	16VC 08MC	1	0	1.67715501785	None	None	-208	-141	0
2.7	2015_May_17_1408	s	s	7	1	Capacity	1	RC	0	2	15RD 08RO	1	0	4.01758503914	537.0	149.0	540	149	1
2.7	2015_May_17_1408	s	s	7	1	Capacity	2	ABS	0	1	08RD 16RO	0	1	6.20894289017	None	None	None	None	1
2.7	2015_May_17_1408	s	s	7	1	Capacity	3	ABS	0	2	16RD 08RO	0	1	3.80827403069	None	None	None	None	1
2.7	2015_May_17_1408	s	s	7	1	Capacity	4	RC	0	1	08RD 15RO	1	0	4.50256681442	402.0	-138.0	406	-136	1
2.7	2015_May_17_1408	s	s	7	1	Capacity	5	ABS	0	1	08RD 16RO	0	1	6.6261780262	None	None	None	None	1
2.7	2015_May_17_1408	s	s	7	1	Capacity	6	ABS	0	2	16RD 08RO	0	1	3.59542798996	None	None	None	None	1
2.7	2015_May_17_1408	s	s	7	1	Capacity	7	RC	0	1	08RD 15RO	1	0	4.41338801384	-115.0	-301.0	-113	-300	1
2.7	2015_May_17_1408	s	s	7	1	Capacity	8	RC	0	2	15RD 08RO	1	0	3.7659239769	-491.0	45.0	-499	40	1
2.7	2015_May_17_1408	s	s	7	1	Capacity	9	ABS	0	1	08RD 16RO	0	1	5.67925190926	None	None	None	None	1
2.7	2015_May_17_1408	s	s	7	1	Capacity	10	RC	0	2	15RD 08RO	1	0	2.32483816147	161.0	188.0	153	190	1
2.7	2015_May_17_1408	s	s	7	1	Capacity	11	RC	0	1	08RD 15RO	1	0	2.63589191437	-195.0	268.0	-202	276	1
2.7	2015_May_17_1408	s	s	7	1	Capacity	12	ABS	0	2	16RD 08RO	0	1	3.89958405495	None	None	None	None	1
2.7	2015_May_17_1408	s	s	7	1	Capacity	13	RC	0	1	08RD 15RO	1	0	3.5961060524	-360.0	-301.0	-353	-306	1
2.7	2015_May_17_1408	s	s	7	1	Capacity	14	ABS	0	2	16RD 08RO	0	1	3.57762694359	None	None	None	None	1
2.7	2015_May_17_1408	s	s	7	1	Capacity	15	ABS	0	1	08RD 16RO	0	1	6.47321486473	None	None	None	None	1
2.7	2015_May_17_1408	s	s	7	1	Capacity	16	RC	0	2	15RD 08RO	1	0	2.74844002724	-53.0	-327.0	-56	-327	1
2.7	2015_May_17_1408	s	s	7	1	Capacity	17	RC	0	1	08RD 15RO	1	0	1.9010989666	-191.0	179.0	-192	167	1
2.7	2015_May_17_1408	s	s	7	1	Capacity	18	ABS	0	1	08RD 16RO	0	1	5.00873589516	None	None	None	None	1
2.7	2015_May_17_1408	s	s	7	1	Capacity	19	RC	0	2	15RD 08RO	1	0	3.36064815521	470.0	301.0	462	309	1
2.7	2015_May_17_1408	s	s	7	1	Capacity	20	ABS	0	2	16RD 08RO	0	1	3.78450202942	None	None	None	None	1
2.7	2015_May_17_1408	s	s	7	1	Capacity	21	RC	0	1	08RD 15RO	1	0	3.63152098656	-477.0	-379.0	-471	-375	1
2.7	2015_May_17_1408	s	s	7	1	Capacity	22	RC	0	2	15RD 08RO	1	0	2.4122710228	528.0	-245.0	526	-246	1
2.7	2015_May_17_1408	s	s	7	1	Capacity	23	ABS	0	1	08RD 16RO	0	1	5.67012119293	None	None	None	None	1
2.7	2015_May_17_1408	s	s	7	1	Capacity	24	ABS	0	2	16RD 08RO	0	1	3.28080606461	None	None	None	None	1
2.7	2015_May_17_1408	s	s	7	1	Capacity	25	RC	0	2	15RD 08RO	1	0	2.3887989521	516.0	64.0	513	69	1
2.7	2015_May_17_1408	s	s	7	1	Capacity	26	ABS	0	2	16RD 08RO	0	1	2.83610510826	None	None	None	None	1
2.7	2015_May_17_1408	s	s	7	1	Capacity	27	RC	0	1	08RD 15RO	1	0	1.10582709312	-333.0	348.0	-337	345	1
2.7	2015_May_17_1408	s	s	7	1	Capacity	28	ABS	0	1	08RD 16RO	0	1	5.92661309242	None	None	None	None	1
2.7	2015_May_17_1408	s	s	7	1	Capacity	29	ABS	0	2	16RD 08RO	0	1	3.24346494675	None	None	None	None	1
2.7	2015_May_17_1408	s	s	7	1	Capacity	30	RC	0	1	08RD 15RO	1	0	3.78379297256	-386.0	-251.0	-384	-250	1
2.7	2015_May_17_1408	s	s	7	1	Capacity	31	RC	0	2	15RD 08RO	1	0	2.31334209442	256.0	188.0	254	186	1
2.7	2015_May_17_1408	s	s	7	1	Capacity	32	ABS	0	1	08RD 16RO	0	1	5.97885012627	None	None	None	None	1
2.7	2015_May_17_1408	s	s	7	1	Capacity	33	RC	0	1	08RD 15RO	1	0	2.85443305969	-204.0	-336.0	-196	-339	1
2.7	2015_May_17_1408	s	s	7	1	Capacity	34	RC	0	2	15RD 08RO	1	0	1.57668685913	159.0	-385.0	158	-382	1
2.7	2015_May_17_1408	s	s	7	1	Capacity	35	ABS	0	1	08RD 16RO	0	1	5.6321721077	None	None	None	None	1
2.7	2015_May_17_1408	s	s	7	1	Capacity	36	ABS	0	2	16RD 08RO	0	1	3.05977797508	None	None	None	None	1
2.7	2015_May_17_1408	s	s	7	1	Capacity	37	RC	0	1	08RD 15RO	1	0	1.08229184151	-395.0	75.0	-387	77	1
2.7	2015_May_17_1408	s	s	7	1	Capacity	38	RC	0	2	15RD 08RO	1	0	3.29132509232	85.0	359.0	92	359	1
2.7	2015_May_17_1408	s	s	7	1	Capacity	39	ABS	0	1	08RD 16RO	0	1	6.19735312462	None	None	None	None	1
2.7	2015_May_17_1408	s	s	7	1	Capacity	40	ABS	0	2	16RD 08RO	0	1	2.78899383545	None	None	None	None	1
2.7	2015_May_17_1408	s	s	7	1	Capacity	41	RC	0	2	15RD 08RO	1	0	2.68988490105	-90.0	74.0	-92	65	1
2.7	2015_May_17_1408	s	s	7	1	Capacity	42	ABS	0	1	08RD 16RO	0	1	5.11962985992	None	None	None	None	1
2.7	2015_May_17_1408	s	s	7	1	Capacity	43	ABS	0	2	16RD 08RO	0	1	3.91390991211	None	None	None	None	1
2.7	2015_May_17_1408	s	s	7	1	Capacity	44	RC	0	1	08RD 15RO	1	0	2.60067605972	-369.0	101.0	-375	103	1
2.7	2015_May_17_1408	s	s	7	1	Capacity	45	RC	0	2	15RD 08RO	1	0	1.11261510849	-71.0	156.0	-78	152	1
2.7	2015_May_17_1408	s	s	7	1	Capacity	46	ABS	0	2	16RD 08RO	0	1	3.84433603287	None	None	None	None	1
2.7	2015_May_17_1408	s	s	7	1	Capacity	47	ABS	0	1	08RD 16RO	0	1	5.86111998558	None	None	None	None	1
2.7	2015_May_17_1408	s	s	7	1	Capacity	48	RC	0	1	08RD 15RO	0	1	3.93525600433	-323.0	-408.0	None	None	0
2.7	2015_May_17_1408	s	s	7	1	Capacity	49	ABS	0	2	16RD 08RO	0	1	3.21952986717	None	None	None	None	1
2.7	2015_May_17_1408	s	s	7	1	Capacity	50	RC	0	2	15RD 08RO	1	0	3.49009299278	454.0	214.0	463	217	1
2.7	2015_May_17_1408	s	s	7	1	Capacity	51	RC	0	1	08RD 15RO	1	0	1.35936689377	-35.0	189.0	-43	184	1
2.7	2015_May_17_1408	s	s	7	1	Capacity	52	ABS	0	1	08RD 16RO	0	1	5.213752985	None	None	None	None	1
2.7	2015_May_17_1408	s	s	7	1	Capacity	53	ABS	0	2	16RD 08RO	0	1	2.74823713303	None	None	None	None	1
2.7	2015_May_17_1408	s	s	7	1	Capacity	54	RC	0	2	15RD 08RO	1	0	1.47754597664	-214.0	-101.0	-202	-97	1
2.7	2015_May_17_1408	s	s	7	1	Capacity	55	ABS	0	1	08RD 16RO	0	1	5.91997694969	None	None	None	None	1
2.7	2015_May_17_1408	s	s	7	1	Capacity	56	RC	0	1	08RD 15RO	1	0	3.19606804848	273.0	-113.0	280	-113	1
2.7	2015_May_17_1408	s	s	7	1	Capacity	57	RC	0	2	15RD 08RO	1	0	2.09187412262	516.0	258.0	515	256	1
2.7	2015_May_17_1408	s	s	7	1	Capacity	58	ABS	0	1	08RD 16RO	0	1	5.16661190987	None	None	None	None	1
2.7	2015_May_17_1408	s	s	7	1	Capacity	59	ABS	0	2	16RD 08RO	0	1	3.21275210381	None	None	None	None	1
2.7	2015_May_17_1408	s	s	7	1	Capacity	60	RC	0	1	08RD 15RO	0	1	7.22078800201	77.0	186.0	None	None	0
2.7	2015_May_17_1408	s	s	7	1	Capacity	61	ABS	0	2	16RD 08RO	0	1	2.90166306496	None	None	None	None	1
2.7	2015_May_17_1408	s	s	7	1	Capacity	62	RC	0	1	08RD 15RO	1	0	2.76215696335	440.0	-390.0	449	-393	1
2.7	2015_May_17_1408	s	s	7	1	Capacity	63	RC	0	2	15RD 08RO	1	0	3.78947091103	267.0	-287.0	275	-281	1
2.7	2015_May_17_1408	s	s	7	1	Capacity	64	ABS	0	1	08RD 16RO	0	1	5.48044991493	None	None	None	None	1
2.7	2015_May_17_1408	s	s	7	1	SIC	1	RC	0	1	02VD 02VO 02VC 02MD 02MO 02MC 02RD 09RO	1	0	3.3021478653	-164.0	-238.0	-162	-246	1
2.7	2015_May_17_1408	s	s	7	1	SIC	2	ABS	0	2	02VD 02VO 02VC 02MD 02MO 02MC 10RD 02RO	0	1	5.29619789124	None	None	None	None	1
2.7	2015_May_17_1408	s	s	7	1	SIC	3	ABS	2	0	02VD 02VO 10VC 02MD 02MO 02MC 02RD 02RO	1	0	7.40353488922	None	None	511	-309	0
2.7	2015_May_17_1408	s	s	7	1	SIC	4	ABS	2	2	10VD 02VO 02VC 02MD 02MO 02MC 02RD 02RO	0	1	4.87910795212	None	None	None	None	1
2.7	2015_May_17_1408	s	s	7	1	SIC	5	ABS	1	1	02VD 02VO 02VC 02MD 10MO 02MC 02RD 02RO	1	0	8.53290319443	None	None	2	73	0
2.7	2015_May_17_1408	s	s	7	1	SIC	6	ABS	0	1	02VD 02VO 02VC 02MD 02MO 02MC 02RD 10RO	0	1	5.65599298477	None	None	None	None	1
2.7	2015_May_17_1408	s	s	7	1	SIC	7	RC	2	0	02VD 02VO 09VC 02MD 02MO 02MC 02RD 02RO	1	0	3.74244999886	-9.0	215.0	-8	211	1
2.7	2015_May_17_1408	s	s	7	1	SIC	8	RC	1	1	02VD 02VO 02VC 02MD 09MO 02MC 02RD 02RO	1	0	8.39177203178	-243.0	-170.0	-138	142	0
2.7	2015_May_17_1408	s	s	7	1	SIC	9	RC	2	1	02VD 09VO 02VC 02MD 02MO 02MC 02RD 02RO	1	0	7.43192911148	-357.0	-225.0	-15	326	0
2.7	2015_May_17_1408	s	s	7	1	SIC	10	ABS	1	2	02VD 02VO 02VC 10MD 02MO 02MC 02RD 02RO	1	0	4.41935920715	None	None	-489	111	0
2.7	2015_May_17_1408	s	s	7	1	SIC	11	RC	1	0	02VD 02VO 02VC 02MD 02MO 09MC 02RD 02RO	1	0	7.00944280624	511.0	389.0	-390	-67	0
2.7	2015_May_17_1408	s	s	7	1	SIC	12	ABS	1	0	02VD 02VO 02VC 02MD 02MO 10MC 02RD 02RO	1	0	8.86923384666	None	None	80	32	0
2.7	2015_May_17_1408	s	s	7	1	SIC	13	RC	0	2	02VD 02VO 02VC 02MD 02MO 02MC 09RD 02RO	1	0	4.82572793961	16.0	-68.0	20	-60	1
2.7	2015_May_17_1408	s	s	7	1	SIC	14	RC	2	2	09VD 02VO 02VC 02MD 02MO 02MC 02RD 02RO	1	0	4.55457210541	-260.0	143.0	107	169	0
2.7	2015_May_17_1408	s	s	7	1	SIC	15	ABS	2	1	02VD 10VO 02VC 02MD 02MO 02MC 02RD 02RO	1	0	9.73085308075	None	None	-235	-334	0
2.7	2015_May_17_1408	s	s	7	1	SIC	16	RC	1	2	02VD 02VO 02VC 09MD 02MO 02MC 02RD 02RO	1	0	5.49617910385	-41.0	-203.0	-33	-198	1
2.7	2015_May_17_1408	s	s	7	1	SIC	17	ABS	1	1	02VD 02VO 02VC 02MD 10MO 02MC 02RD 02RO	1	0	6.11552500725	None	None	-103	278	0
2.7	2015_May_17_1408	s	s	7	1	SIC	18	RC	1	1	02VD 02VO 02VC 02MD 09MO 02MC 02RD 02RO	1	0	8.90973186493	-32.0	-354.0	-24	-346	1
2.7	2015_May_17_1408	s	s	7	1	SIC	19	ABS	1	0	02VD 02VO 02VC 02MD 02MO 10MC 02RD 02RO	1	0	8.02190494537	None	None	12	-124	0
2.7	2015_May_17_1408	s	s	7	1	SIC	20	RC	2	1	02VD 09VO 02VC 02MD 02MO 02MC 02RD 02RO	1	0	5.0692551136	-234.0	187.0	-241	185	1
2.7	2015_May_17_1408	s	s	7	1	SIC	21	ABS	2	1	02VD 10VO 02VC 02MD 02MO 02MC 02RD 02RO	0	1	7.52774214745	None	None	None	None	1
2.7	2015_May_17_1408	s	s	7	1	SIC	22	RC	1	0	02VD 02VO 02VC 02MD 02MO 09MC 02RD 02RO	1	0	7.95147299767	-96.0	-339.0	216	-318	0
2.7	2015_May_17_1408	s	s	7	1	SIC	23	RC	2	2	09VD 02VO 02VC 02MD 02MO 02MC 02RD 02RO	1	0	6.43780899048	-437.0	350.0	-429	348	1
2.7	2015_May_17_1408	s	s	7	1	SIC	24	RC	1	2	02VD 02VO 02VC 09MD 02MO 02MC 02RD 02RO	0	1	4.93120002747	-71.0	371.0	None	None	0
2.7	2015_May_17_1408	s	s	7	1	SIC	25	RC	0	1	02VD 02VO 02VC 02MD 02MO 02MC 02RD 09RO	1	0	5.06882309914	52.0	-118.0	59	-124	1
2.7	2015_May_17_1408	s	s	7	1	SIC	26	ABS	2	2	10VD 02VO 02VC 02MD 02MO 02MC 02RD 02RO	1	0	2.93019986153	None	None	-131	144	0
2.7	2015_May_17_1408	s	s	7	1	SIC	27	ABS	0	2	02VD 02VO 02VC 02MD 02MO 02MC 10RD 02RO	1	0	10.9817471504	None	None	66	-140	0
2.7	2015_May_17_1408	s	s	7	1	SIC	28	RC	0	2	02VD 02VO 02VC 02MD 02MO 02MC 09RD 02RO	1	0	4.23676395416	-21.0	13.0	-17	13	1
2.7	2015_May_17_1408	s	s	7	1	SIC	29	RC	2	0	02VD 02VO 09VC 02MD 02MO 02MC 02RD 02RO	1	0	5.85534691811	-270.0	-350.0	-121	-178	0
2.7	2015_May_17_1408	s	s	7	1	SIC	30	ABS	0	1	02VD 02VO 02VC 02MD 02MO 02MC 02RD 10RO	0	1	10.0868170261	None	None	None	None	1
2.7	2015_May_17_1408	s	s	7	1	SIC	31	ABS	2	0	02VD 02VO 10VC 02MD 02MO 02MC 02RD 02RO	1	0	7.26176905632	None	None	-429	-331	0
2.7	2015_May_17_1408	s	s	7	1	SIC	32	ABS	1	2	02VD 02VO 02VC 10MD 02MO 02MC 02RD 02RO	1	0	8.51632809639	None	None	-436	360	0
2.7	2015_May_17_1408	s	s	7	1	SIC	33	ABS	2	0	02VD 02VO 10VC 02MD 02MO 02MC 02RD 02RO	1	0	6.16712188721	None	None	68	129	0
2.7	2015_May_17_1408	s	s	7	1	SIC	34	RC	0	2	02VD 02VO 02VC 02MD 02MO 02MC 09RD 02RO	1	0	5.74398303032	107.0	-202.0	97	-203	1
2.7	2015_May_17_1408	s	s	7	1	SIC	35	ABS	1	1	02VD 02VO 02VC 02MD 10MO 02MC 02RD 02RO	1	0	7.32068395615	None	None	231	-274	0
2.7	2015_May_17_1408	s	s	7	1	SIC	36	RC	2	1	02VD 09VO 02VC 02MD 02MO 02MC 02RD 02RO	1	0	3.95154094696	-158.0	-324.0	212	15	0
2.7	2015_May_17_1408	s	s	7	1	SIC	37	ABS	1	2	02VD 02VO 02VC 10MD 02MO 02MC 02RD 02RO	1	0	7.53936600685	None	None	494	344	0
2.7	2015_May_17_1408	s	s	7	1	SIC	38	RC	2	2	09VD 02VO 02VC 02MD 02MO 02MC 02RD 02RO	1	0	4.14244413376	-14.0	149.0	-18	155	1
2.7	2015_May_17_1408	s	s	7	1	SIC	39	RC	2	0	02VD 02VO 09VC 02MD 02MO 02MC 02RD 02RO	1	0	4.45532298088	-58.0	-57.0	-55	-59	1
2.7	2015_May_17_1408	s	s	7	1	SIC	40	ABS	0	2	02VD 02VO 02VC 02MD 02MO 02MC 10RD 02RO	0	1	6.17394900322	None	None	None	None	1
2.7	2015_May_17_1408	s	s	7	1	SIC	41	RC	1	2	02VD 02VO 02VC 09MD 02MO 02MC 02RD 02RO	1	0	4.31907987595	-45.0	-2.0	-49	-3	1
2.7	2015_May_17_1408	s	s	7	1	SIC	42	RC	1	0	02VD 02VO 02VC 02MD 02MO 09MC 02RD 02RO	1	0	9.11524105072	-254.0	400.0	548	-345	0
2.7	2015_May_17_1408	s	s	7	1	SIC	43	ABS	1	0	02VD 02VO 02VC 02MD 02MO 10MC 02RD 02RO	1	0	9.21573781967	None	None	-413	-98	0
2.7	2015_May_17_1408	s	s	7	1	SIC	44	ABS	2	2	10VD 02VO 02VC 02MD 02MO 02MC 02RD 02RO	1	0	6.01412987709	None	None	-46	168	0
2.7	2015_May_17_1408	s	s	7	1	SIC	45	RC	0	1	02VD 02VO 02VC 02MD 02MO 02MC 02RD 09RO	1	0	8.29495692253	467.0	-160.0	468	-165	1
2.7	2015_May_17_1408	s	s	7	1	SIC	46	ABS	2	1	02VD 10VO 02VC 02MD 02MO 02MC 02RD 02RO	1	0	4.7900261879	None	None	397	-377	0
2.7	2015_May_17_1408	s	s	7	1	SIC	47	RC	1	1	02VD 02VO 02VC 02MD 09MO 02MC 02RD 02RO	1	0	4.88045191765	-506.0	104.0	-516	105	1
2.7	2015_May_17_1408	s	s	7	1	SIC	48	ABS	0	1	02VD 02VO 02VC 02MD 02MO 02MC 02RD 10RO	0	1	7.04992794991	None	None	None	None	1
2.7	2015_May_17_1408	s	s	7	1	SIC	49	RC	1	2	02VD 02VO 02VC 09MD 02MO 02MC 02RD 02RO	1	0	10.2280249596	43.0	352.0	43	357	1
2.7	2015_May_17_1408	s	s	7	1	SIC	50	ABS	2	0	02VD 02VO 10VC 02MD 02MO 02MC 02RD 02RO	1	0	3.69258093834	None	None	473	-397	0
2.7	2015_May_17_1408	s	s	7	1	SIC	51	RC	0	1	02VD 02VO 02VC 02MD 02MO 02MC 02RD 09RO	1	0	5.27938389778	438.0	-97.0	430	-97	1
2.7	2015_May_17_1408	s	s	7	1	SIC	52	ABS	0	2	02VD 02VO 02VC 02MD 02MO 02MC 10RD 02RO	1	0	3.45468497276	None	None	-16	304	0
2.7	2015_May_17_1408	s	s	7	1	SIC	53	RC	1	0	02VD 02VO 02VC 02MD 02MO 09MC 02RD 02RO	1	0	3.26675200462	-478.0	281.0	-488	285	1
2.7	2015_May_17_1408	s	s	7	1	SIC	54	RC	2	1	02VD 09VO 02VC 02MD 02MO 02MC 02RD 02RO	1	0	5.55512690544	-383.0	-406.0	88	-90	0
2.7	2015_May_17_1408	s	s	7	1	SIC	55	ABS	0	1	02VD 02VO 02VC 02MD 02MO 02MC 02RD 10RO	0	1	7.82681798935	None	None	None	None	1
2.7	2015_May_17_1408	s	s	7	1	SIC	56	RC	2	2	09VD 02VO 02VC 02MD 02MO 02MC 02RD 02RO	1	0	9.47465586662	-6.0	327.0	-12	318	1
2.7	2015_May_17_1408	s	s	7	1	SIC	57	ABS	1	2	02VD 02VO 02VC 10MD 02MO 02MC 02RD 02RO	0	1	4.64876389503	None	None	None	None	1
2.7	2015_May_17_1408	s	s	7	1	SIC	58	RC	2	0	02VD 02VO 09VC 02MD 02MO 02MC 02RD 02RO	1	0	3.34217905998	-112.0	-164.0	-110	-162	1
2.7	2015_May_17_1408	s	s	7	1	SIC	59	ABS	2	2	10VD 02VO 02VC 02MD 02MO 02MC 02RD 02RO	1	0	7.09441494942	None	None	506	-180	0
2.7	2015_May_17_1408	s	s	7	1	SIC	60	RC	1	1	02VD 02VO 02VC 02MD 09MO 02MC 02RD 02RO	0	1	5.7613902092	-52.0	187.0	None	None	0
2.7	2015_May_17_1408	s	s	7	1	SIC	61	ABS	2	1	02VD 10VO 02VC 02MD 02MO 02MC 02RD 02RO	1	0	9.67478704453	None	None	-222	24	0
2.7	2015_May_17_1408	s	s	7	1	SIC	62	RC	0	2	02VD 02VO 02VC 02MD 02MO 02MC 09RD 02RO	1	0	2.32737398148	181.0	-33.0	177	-40	1
2.7	2015_May_17_1408	s	s	7	1	SIC	63	ABS	1	1	02VD 02VO 02VC 02MD 10MO 02MC 02RD 02RO	1	0	4.64868402481	None	None	-94	274	0
2.7	2015_May_17_1408	s	s	7	1	SIC	64	ABS	1	0	02VD 02VO 02VC 02MD 02MO 10MC 02RD 02RO	1	0	7.21469306946	None	None	7	145	0
2.7	2015_May_17_1408	s	s	7	1	SIC	65	RC	1	0	02VD 02VO 02VC 02MD 02MO 09MC 02RD 02RO	1	0	8.33982205391	-380.0	249.0	-218	-323	0
2.7	2015_May_17_1408	s	s	7	1	SIC	66	ABS	1	2	02VD 02VO 02VC 10MD 02MO 02MC 02RD 02RO	1	0	5.90859913826	None	None	-405	-62	0
2.7	2015_May_17_1408	s	s	7	1	SIC	67	RC	0	1	02VD 02VO 02VC 02MD 02MO 02MC 02RD 09RO	1	0	7.94455313683	172.0	-134.0	178	-135	1
2.7	2015_May_17_1408	s	s	7	1	SIC	68	RC	1	2	02VD 02VO 02VC 09MD 02MO 02MC 02RD 02RO	1	0	6.07305884361	385.0	116.0	378	117	1
2.7	2015_May_17_1408	s	s	7	1	SIC	69	ABS	1	0	02VD 02VO 02VC 02MD 02MO 10MC 02RD 02RO	1	0	5.89640593529	None	None	-208	-282	0
2.7	2015_May_17_1408	s	s	7	1	SIC	70	RC	2	0	02VD 02VO 09VC 02MD 02MO 02MC 02RD 02RO	1	0	3.30197405815	514.0	131.0	508	126	1
2.7	2015_May_17_1408	s	s	7	1	SIC	71	ABS	0	2	02VD 02VO 02VC 02MD 02MO 02MC 10RD 02RO	1	0	3.63648486137	None	None	-400	266	0
2.7	2015_May_17_1408	s	s	7	1	SIC	72	ABS	2	1	02VD 10VO 02VC 02MD 02MO 02MC 02RD 02RO	1	0	4.62888479233	None	None	-372	165	0
2.7	2015_May_17_1408	s	s	7	1	SIC	73	ABS	0	1	02VD 02VO 02VC 02MD 02MO 02MC 02RD 10RO	1	0	6.85632300377	None	None	339	-345	0
2.7	2015_May_17_1408	s	s	7	1	SIC	74	RC	0	2	02VD 02VO 02VC 02MD 02MO 02MC 09RD 02RO	1	0	8.52903199196	-265.0	329.0	-252	-166	0
2.7	2015_May_17_1408	s	s	7	1	SIC	75	RC	2	1	02VD 09VO 02VC 02MD 02MO 02MC 02RD 02RO	1	0	3.97273302078	-333.0	-255.0	-198	55	0
2.7	2015_May_17_1408	s	s	7	1	SIC	76	ABS	2	2	10VD 02VO 02VC 02MD 02MO 02MC 02RD 02RO	1	0	3.29508090019	None	None	-337	123	0
2.7	2015_May_17_1408	s	s	7	1	SIC	77	ABS	2	0	02VD 02VO 10VC 02MD 02MO 02MC 02RD 02RO	1	0	2.70654702187	None	None	-34	-109	0
2.7	2015_May_17_1408	s	s	7	1	SIC	78	ABS	1	1	02VD 02VO 02VC 02MD 10MO 02MC 02RD 02RO	1	0	4.24584412575	None	None	276	105	0
2.7	2015_May_17_1408	s	s	7	1	SIC	79	RC	2	2	09VD 02VO 02VC 02MD 02MO 02MC 02RD 02RO	1	0	0.952801942825	-34.0	-168.0	-213	-63	0
2.7	2015_May_17_1408	s	s	7	1	SIC	80	RC	1	1	02VD 02VO 02VC 02MD 09MO 02MC 02RD 02RO	1	0	2.38306283951	52.0	270.0	-510	100	0
2.7	2015_May_17_1408	s	s	7	1	SIC	81	RC	2	0	02VD 02VO 09VC 02MD 02MO 02MC 02RD 02RO	1	0	1.37395095825	281.0	-167.0	-204	108	0
2.7	2015_May_17_1408	s	s	7	1	SIC	82	ABS	0	1	02VD 02VO 02VC 02MD 02MO 02MC 02RD 10RO	1	0	1.57153701782	None	None	-439	187	0
2.7	2015_May_17_1408	s	s	7	1	SIC	83	RC	0	1	02VD 02VO 02VC 02MD 02MO 02MC 02RD 09RO	1	0	0.726392030716	-249.0	129.0	244	204	0
2.7	2015_May_17_1408	s	s	7	1	SIC	84	ABS	1	2	02VD 02VO 02VC 10MD 02MO 02MC 02RD 02RO	1	0	2.30087304115	None	None	-426	-239	0
2.7	2015_May_17_1408	s	s	7	1	SIC	85	RC	1	2	02VD 02VO 02VC 09MD 02MO 02MC 02RD 02RO	1	0	2.11808109283	-373.0	92.0	-375	92	1
2.7	2015_May_17_1408	s	s	7	1	SIC	86	ABS	1	0	02VD 02VO 02VC 02MD 02MO 10MC 02RD 02RO	1	0	2.5485458374	None	None	9	-405	0
2.7	2015_May_17_1408	s	s	7	1	SIC	87	ABS	2	2	10VD 02VO 02VC 02MD 02MO 02MC 02RD 02RO	1	0	1.67760586739	None	None	-96	-282	0
2.7	2015_May_17_1408	s	s	7	1	SIC	88	RC	1	0	02VD 02VO 02VC 02MD 02MO 09MC 02RD 02RO	1	0	5.30790686607	422.0	39.0	432	42	1
2.7	2015_May_17_1408	s	s	7	1	SIC	89	ABS	1	1	02VD 02VO 02VC 02MD 10MO 02MC 02RD 02RO	1	0	4.83207988739	None	None	117	-184	0
2.7	2015_May_17_1408	s	s	7	1	SIC	90	RC	2	2	09VD 02VO 02VC 02MD 02MO 02MC 02RD 02RO	1	0	3.35405182838	-258.0	-89.0	-263	-90	1
2.7	2015_May_17_1408	s	s	7	1	SIC	91	RC	2	1	02VD 09VO 02VC 02MD 02MO 02MC 02RD 02RO	1	0	3.1266181469	-177.0	256.0	-183	253	1
2.7	2015_May_17_1408	s	s	7	1	SIC	92	ABS	2	1	02VD 10VO 02VC 02MD 02MO 02MC 02RD 02RO	1	0	2.17691898346	None	None	-131	-388	0
2.7	2015_May_17_1408	s	s	7	1	SIC	93	ABS	2	0	02VD 02VO 10VC 02MD 02MO 02MC 02RD 02RO	1	0	2.60069799423	None	None	442	-7	0
2.7	2015_May_17_1408	s	s	7	1	SIC	94	RC	0	2	02VD 02VO 02VC 02MD 02MO 02MC 09RD 02RO	1	0	1.62372398376	497.0	14.0	-408	-2	0
2.7	2015_May_17_1408	s	s	7	1	SIC	95	RC	1	1	02VD 02VO 02VC 02MD 09MO 02MC 02RD 02RO	1	0	1.70094609261	147.0	-309.0	341	-364	0
2.7	2015_May_17_1408	s	s	7	1	SIC	96	ABS	0	2	02VD 02VO 02VC 02MD 02MO 02MC 10RD 02RO	1	0	5.22053194046	None	None	-201	115	0
2.7	2015_May_17_1408	s	s	7	1	SIC	97	RC	2	2	09VD 02VO 02VC 02MD 02MO 02MC 02RD 02RO	1	0	1.94808602333	217.0	-22.0	219	-21	1
2.7	2015_May_17_1408	s	s	7	1	SIC	98	RC	1	2	02VD 02VO 02VC 09MD 02MO 02MC 02RD 02RO	1	0	1.7060880661	-439.0	-312.0	-431	-316	1
2.7	2015_May_17_1408	s	s	7	1	SIC	99	ABS	1	1	02VD 02VO 02VC 02MD 10MO 02MC 02RD 02RO	1	0	4.66866493225	None	None	-138	33	0
2.7	2015_May_17_1408	s	s	7	1	SIC	100	RC	2	0	02VD 02VO 09VC 02MD 02MO 02MC 02RD 02RO	1	0	2.7599029541	478.0	271.0	481	273	1
2.7	2015_May_17_1408	s	s	7	1	SIC	101	RC	0	1	02VD 02VO 02VC 02MD 02MO 02MC 02RD 09RO	1	0	0.96063709259	28.0	58.0	32	56	1
2.7	2015_May_17_1408	s	s	7	1	SIC	102	ABS	2	1	02VD 10VO 02VC 02MD 02MO 02MC 02RD 02RO	1	0	2.81969380379	None	None	-529	387	0
2.7	2015_May_17_1408	s	s	7	1	SIC	103	RC	0	2	02VD 02VO 02VC 02MD 02MO 02MC 09RD 02RO	1	0	1.19505286217	153.0	76.0	162	76	1
2.7	2015_May_17_1408	s	s	7	1	SIC	104	ABS	1	2	02VD 02VO 02VC 10MD 02MO 02MC 02RD 02RO	1	0	0.90571808815	None	None	153	93	0
2.7	2015_May_17_1408	s	s	7	1	SIC	105	ABS	1	0	02VD 02VO 02VC 02MD 02MO 10MC 02RD 02RO	1	0	1.34114098549	None	None	417	-55	0
2.7	2015_May_17_1408	s	s	7	1	SIC	106	RC	2	1	02VD 09VO 02VC 02MD 02MO 02MC 02RD 02RO	1	0	1.04347109795	-23.0	350.0	-109	96	0
2.7	2015_May_17_1408	s	s	7	1	SIC	107	ABS	0	1	02VD 02VO 02VC 02MD 02MO 02MC 02RD 10RO	0	1	7.39792084694	None	None	None	None	1
2.7	2015_May_17_1408	s	s	7	1	SIC	108	RC	1	1	02VD 02VO 02VC 02MD 09MO 02MC 02RD 02RO	1	0	4.24855804443	-244.0	286.0	-246	270	1
2.7	2015_May_17_1408	s	s	7	1	SIC	109	ABS	2	2	10VD 02VO 02VC 02MD 02MO 02MC 02RD 02RO	0	1	3.76586389542	None	None	None	None	1
2.7	2015_May_17_1408	s	s	7	1	SIC	110	ABS	2	0	02VD 02VO 10VC 02MD 02MO 02MC 02RD 02RO	1	0	6.38581705093	None	None	-292	-325	0
2.7	2015_May_17_1408	s	s	7	1	SIC	111	RC	1	0	02VD 02VO 02VC 02MD 02MO 09MC 02RD 02RO	1	0	10.34100914	210.0	-193.0	465	-399	0
2.7	2015_May_17_1408	s	s	7	1	SIC	112	ABS	0	2	02VD 02VO 02VC 02MD 02MO 02MC 10RD 02RO	0	1	4.23414897919	None	None	None	None	1
2.7	2015_May_17_1408	s	s	7	1	SIC	113	ABS	2	2	10VD 02VO 02VC 02MD 02MO 02MC 02RD 02RO	1	0	3.55412507057	None	None	412	5	0
2.7	2015_May_17_1408	s	s	7	1	SIC	114	RC	2	2	09VD 02VO 02VC 02MD 02MO 02MC 02RD 02RO	1	0	2.15337514877	-32.0	-328.0	-40	-327	1
2.7	2015_May_17_1408	s	s	7	1	SIC	115	RC	0	1	02VD 02VO 02VC 02MD 02MO 02MC 02RD 09RO	1	0	5.31969404221	-517.0	-364.0	-525	-363	1
2.7	2015_May_17_1408	s	s	7	1	SIC	116	ABS	1	2	02VD 02VO 02VC 10MD 02MO 02MC 02RD 02RO	1	0	9.07198905945	None	None	339	-410	0
2.7	2015_May_17_1408	s	s	7	1	SIC	117	RC	0	2	02VD 02VO 02VC 02MD 02MO 02MC 09RD 02RO	1	0	3.8248000145	-145.0	373.0	-152	366	1
2.7	2015_May_17_1408	s	s	7	1	SIC	118	RC	1	1	02VD 02VO 02VC 02MD 09MO 02MC 02RD 02RO	1	0	2.51179099083	-276.0	-346.0	-278	-361	1
2.7	2015_May_17_1408	s	s	7	1	SIC	119	ABS	0	2	02VD 02VO 02VC 02MD 02MO 02MC 10RD 02RO	0	1	3.51295089722	None	None	None	None	1
2.7	2015_May_17_1408	s	s	7	1	SIC	120	ABS	1	0	02VD 02VO 02VC 02MD 02MO 10MC 02RD 02RO	1	0	2.63105082512	None	None	494	-384	0
2.7	2015_May_17_1408	s	s	7	1	SIC	121	ABS	0	1	02VD 02VO 02VC 02MD 02MO 02MC 02RD 10RO	1	0	2.71553993225	None	None	119	-326	0
2.7	2015_May_17_1408	s	s	7	1	SIC	122	RC	1	2	02VD 02VO 02VC 09MD 02MO 02MC 02RD 02RO	1	0	2.04755806923	-266.0	173.0	-272	171	1
2.7	2015_May_17_1408	s	s	7	1	SIC	123	ABS	1	1	02VD 02VO 02VC 02MD 10MO 02MC 02RD 02RO	1	0	1.19489002228	None	None	-455	153	0
2.7	2015_May_17_1408	s	s	7	1	SIC	124	ABS	2	1	02VD 10VO 02VC 02MD 02MO 02MC 02RD 02RO	1	0	0.61149597168	None	None	-36	178	0
2.7	2015_May_17_1408	s	s	7	1	SIC	125	RC	1	0	02VD 02VO 02VC 02MD 02MO 09MC 02RD 02RO	1	0	1.90107607841	-170.0	340.0	330	-94	0
2.7	2015_May_17_1408	s	s	7	1	SIC	126	ABS	2	0	02VD 02VO 10VC 02MD 02MO 02MC 02RD 02RO	1	0	1.39662313461	None	None	32	206	0
2.7	2015_May_17_1408	s	s	7	1	SIC	127	RC	2	0	02VD 02VO 09VC 02MD 02MO 02MC 02RD 02RO	1	0	3.36587119102	373.0	10.0	195	-213	0
2.7	2015_May_17_1408	s	s	7	1	SIC	128	RC	2	1	02VD 09VO 02VC 02MD 02MO 02MC 02RD 02RO	1	0	2.51833510399	331.0	55.0	334	59	1
2.7	2015_May_17_1408	s	s	7	1	SIC	129	ABS	0	1	02VD 02VO 02VC 02MD 02MO 02MC 02RD 10RO	1	0	1.42357897758	None	None	4	-24	0
2.7	2015_May_17_1408	s	s	7	1	SIC	130	ABS	1	1	02VD 02VO 02VC 02MD 10MO 02MC 02RD 02RO	1	0	3.34212803841	None	None	337	-111	0
2.7	2015_May_17_1408	s	s	7	1	SIC	131	RC	0	2	02VD 02VO 02VC 02MD 02MO 02MC 09RD 02RO	1	0	0.96452498436	-254.0	205.0	-259	195	1
2.7	2015_May_17_1408	s	s	7	1	SIC	132	ABS	0	2	02VD 02VO 02VC 02MD 02MO 02MC 10RD 02RO	1	0	1.72967100143	None	None	-255	-345	0
2.7	2015_May_17_1408	s	s	7	1	SIC	133	RC	2	0	02VD 02VO 09VC 02MD 02MO 02MC 02RD 02RO	1	0	1.21536207199	-93.0	-148.0	-99	-154	1
2.7	2015_May_17_1408	s	s	7	1	SIC	134	RC	2	2	09VD 02VO 02VC 02MD 02MO 02MC 02RD 02RO	1	0	2.41665816307	-504.0	-87.0	381	-107	0
2.7	2015_May_17_1408	s	s	7	1	SIC	135	ABS	2	2	10VD 02VO 02VC 02MD 02MO 02MC 02RD 02RO	1	0	3.03141903877	None	None	-89	63	0
2.7	2015_May_17_1408	s	s	7	1	SIC	136	RC	2	1	02VD 09VO 02VC 02MD 02MO 02MC 02RD 02RO	1	0	3.28992295265	328.0	-200.0	-505	302	0
2.7	2015_May_17_1408	s	s	7	1	SIC	137	ABS	1	0	02VD 02VO 02VC 02MD 02MO 10MC 02RD 02RO	1	0	2.22409582138	None	None	77	-97	0
2.7	2015_May_17_1408	s	s	7	1	SIC	138	RC	0	1	02VD 02VO 02VC 02MD 02MO 02MC 02RD 09RO	1	0	2.11439204216	-95.0	-278.0	-59	-398	0
2.7	2015_May_17_1408	s	s	7	1	SIC	139	RC	1	1	02VD 02VO 02VC 02MD 09MO 02MC 02RD 02RO	1	0	2.8208220005	135.0	-396.0	135	-401	1
2.7	2015_May_17_1408	s	s	7	1	SIC	140	ABS	2	1	02VD 10VO 02VC 02MD 02MO 02MC 02RD 02RO	1	0	2.02116799355	None	None	289	-404	0
2.7	2015_May_17_1408	s	s	7	1	SIC	141	ABS	2	0	02VD 02VO 10VC 02MD 02MO 02MC 02RD 02RO	1	0	0.846808195114	None	None	-239	-28	0
2.7	2015_May_17_1408	s	s	7	1	SIC	142	ABS	1	2	02VD 02VO 02VC 10MD 02MO 02MC 02RD 02RO	1	0	1.48241615295	None	None	-16	-79	0
2.7	2015_May_17_1408	s	s	7	1	SIC	143	RC	1	2	02VD 02VO 02VC 09MD 02MO 02MC 02RD 02RO	1	0	1.1241350174	-224.0	261.0	179	-145	0
2.7	2015_May_17_1408	s	s	7	1	SIC	144	RC	1	0	02VD 02VO 02VC 02MD 02MO 09MC 02RD 02RO	1	0	1.23532986641	104.0	59.0	84	-108	0
2.7	2015_May_17_1408	s	s	7	1	SIC	145	ABS	0	2	02VD 02VO 02VC 02MD 02MO 02MC 10RD 02RO	1	0	1.65378594398	None	None	60	292	0
2.7	2015_May_17_1408	s	s	7	1	SIC	146	RC	2	0	02VD 02VO 09VC 02MD 02MO 02MC 02RD 02RO	1	0	1.23515295982	538.0	-94.0	-17	137	0
2.7	2015_May_17_1408	s	s	7	1	SIC	147	RC	1	1	02VD 02VO 02VC 02MD 09MO 02MC 02RD 02RO	1	0	1.24706888199	-199.0	148.0	-190	154	1
2.7	2015_May_17_1408	s	s	7	1	SIC	148	RC	1	0	02VD 02VO 02VC 02MD 02MO 09MC 02RD 02RO	1	0	0.95967912674	164.0	-67.0	-371	-10	0
2.7	2015_May_17_1408	s	s	7	1	SIC	149	ABS	2	0	02VD 02VO 10VC 02MD 02MO 02MC 02RD 02RO	1	0	2.01605606079	None	None	489	-335	0
2.7	2015_May_17_1408	s	s	7	1	SIC	150	ABS	2	2	10VD 02VO 02VC 02MD 02MO 02MC 02RD 02RO	1	0	3.56579780579	None	None	-435	373	0
2.7	2015_May_17_1408	s	s	7	1	SIC	151	RC	0	2	02VD 02VO 02VC 02MD 02MO 02MC 09RD 02RO	0	1	5.31951403618	-290.0	-139.0	None	None	0
2.7	2015_May_17_1408	s	s	7	1	SIC	152	RC	0	1	02VD 02VO 02VC 02MD 02MO 02MC 02RD 09RO	1	0	1.80025887489	200.0	220.0	272	-118	0
2.7	2015_May_17_1408	s	s	7	1	SIC	153	ABS	1	1	02VD 02VO 02VC 02MD 10MO 02MC 02RD 02RO	1	0	2.30642700195	None	None	-522	-379	0
2.7	2015_May_17_1408	s	s	7	1	SIC	154	RC	2	2	09VD 02VO 02VC 02MD 02MO 02MC 02RD 02RO	1	0	1.9033498764	4.0	-179.0	-119	241	0
2.7	2015_May_17_1408	s	s	7	1	SIC	155	ABS	2	1	02VD 10VO 02VC 02MD 02MO 02MC 02RD 02RO	1	0	1.8591799736	None	None	-294	-8	0
2.7	2015_May_17_1408	s	s	7	1	SIC	156	RC	1	2	02VD 02VO 02VC 09MD 02MO 02MC 02RD 02RO	1	0	1.10073399544	-18.0	90.0	-19	83	1
2.7	2015_May_17_1408	s	s	7	1	SIC	157	RC	2	1	02VD 09VO 02VC 02MD 02MO 02MC 02RD 02RO	1	0	0.976320028305	-12.0	-340.0	-81	-49	0
2.7	2015_May_17_1408	s	s	7	1	SIC	158	ABS	1	2	02VD 02VO 02VC 10MD 02MO 02MC 02RD 02RO	1	0	1.51779484749	None	None	238	-231	0
2.7	2015_May_17_1408	s	s	7	1	SIC	159	ABS	0	1	02VD 02VO 02VC 02MD 02MO 02MC 02RD 10RO	1	0	5.02012014389	None	None	-302	-268	0
2.7	2015_May_17_1408	s	s	7	1	SIC	160	ABS	1	0	02VD 02VO 02VC 02MD 02MO 10MC 02RD 02RO	1	0	1.14118003845	None	None	-75	-76	0
2.7	2015_May_17_1408	s	s	7	1	SIC	161	ABS	2	1	02VD 10VO 02VC 02MD 02MO 02MC 02RD 02RO	1	0	1.27865481377	None	None	526	-203	0
2.7	2015_May_17_1408	s	s	7	1	SIC	162	RC	0	2	02VD 02VO 02VC 02MD 02MO 02MC 09RD 02RO	1	0	0.693809986115	269.0	204.0	-84	24	0
2.7	2015_May_17_1408	s	s	7	1	SIC	163	ABS	1	0	02VD 02VO 02VC 02MD 02MO 10MC 02RD 02RO	1	0	0.611469984055	None	None	321	39	0
2.7	2015_May_17_1408	s	s	7	1	SIC	164	RC	2	1	02VD 09VO 02VC 02MD 02MO 02MC 02RD 02RO	0	1	0.630033969879	387.0	88.0	None	None	0
2.7	2015_May_17_1408	s	s	7	1	SIC	165	ABS	0	2	02VD 02VO 02VC 02MD 02MO 02MC 10RD 02RO	1	0	1.00727987289	None	None	361	342	0
2.7	2015_May_17_1408	s	s	7	1	SIC	166	ABS	2	2	10VD 02VO 02VC 02MD 02MO 02MC 02RD 02RO	1	0	1.69166302681	None	None	-237	140	0
2.7	2015_May_17_1408	s	s	7	1	SIC	167	RC	0	1	02VD 02VO 02VC 02MD 02MO 02MC 02RD 09RO	1	0	4.29604315758	-426.0	-194.0	80	-205	0
2.7	2015_May_17_1408	s	s	7	1	SIC	168	RC	2	0	02VD 02VO 09VC 02MD 02MO 02MC 02RD 02RO	1	0	1.00839996338	306.0	-38.0	92	110	0
2.7	2015_May_17_1408	s	s	7	1	SIC	169	ABS	0	1	02VD 02VO 02VC 02MD 02MO 02MC 02RD 10RO	1	0	4.53108310699	None	None	-289	350	0
2.7	2015_May_17_1408	s	s	7	1	SIC	170	RC	2	2	09VD 02VO 02VC 02MD 02MO 02MC 02RD 02RO	1	0	1.70090389252	171.0	-266.0	170	-270	1
2.7	2015_May_17_1408	s	s	7	1	SIC	171	RC	1	1	02VD 02VO 02VC 02MD 09MO 02MC 02RD 02RO	0	1	1.0587220192	-278.0	131.0	None	None	0
2.7	2015_May_17_1408	s	s	7	1	SIC	172	ABS	2	0	02VD 02VO 10VC 02MD 02MO 02MC 02RD 02RO	0	1	2.13841295242	None	None	None	None	1
2.7	2015_May_17_1408	s	s	7	1	SIC	173	ABS	1	1	02VD 02VO 02VC 02MD 10MO 02MC 02RD 02RO	1	0	2.95996308327	None	None	-323	34	0
2.7	2015_May_17_1408	s	s	7	1	SIC	174	RC	1	2	02VD 02VO 02VC 09MD 02MO 02MC 02RD 02RO	1	0	0.764394044876	376.0	-187.0	163	154	0
2.7	2015_May_17_1408	s	s	7	1	SIC	175	ABS	1	2	02VD 02VO 02VC 10MD 02MO 02MC 02RD 02RO	1	0	1.84723305702	None	None	-287	-88	0
2.7	2015_May_17_1408	s	s	7	1	SIC	176	RC	1	0	02VD 02VO 02VC 02MD 02MO 09MC 02RD 02RO	1	0	1.08227205276	-364.0	58.0	-358	52	1
2.7	2015_May_17_1408	s	s	7	1	SIC	177	RC	2	1	02VD 09VO 02VC 02MD 02MO 02MC 02RD 02RO	1	0	1.29407000542	-243.0	-74.0	-235	-70	1
2.7	2015_May_17_1408	s	s	7	1	SIC	178	ABS	0	2	02VD 02VO 02VC 02MD 02MO 02MC 10RD 02RO	1	0	0.703097820282	None	None	-288	98	0
2.7	2015_May_17_1408	s	s	7	1	SIC	179	ABS	2	1	02VD 10VO 02VC 02MD 02MO 02MC 02RD 02RO	1	0	1.28916811943	None	None	-130	-141	0
2.7	2015_May_17_1408	s	s	7	1	SIC	180	ABS	2	0	02VD 02VO 10VC 02MD 02MO 02MC 02RD 02RO	1	0	1.88270902634	None	None	332	81	0
2.7	2015_May_17_1408	s	s	7	1	SIC	181	ABS	1	1	02VD 02VO 02VC 02MD 10MO 02MC 02RD 02RO	1	0	1.20051193237	None	None	256	-228	0
2.7	2015_May_17_1408	s	s	7	1	SIC	182	RC	1	1	02VD 02VO 02VC 02MD 09MO 02MC 02RD 02RO	1	0	0.729207038879	344.0	-188.0	-112	-110	0
2.7	2015_May_17_1408	s	s	7	1	SIC	183	ABS	1	0	02VD 02VO 02VC 02MD 02MO 10MC 02RD 02RO	1	0	0.693989992142	None	None	-127	156	0
2.7	2015_May_17_1408	s	s	7	1	SIC	184	RC	2	0	02VD 02VO 09VC 02MD 02MO 02MC 02RD 02RO	1	0	0.678188085556	-322.0	-187.0	-317	-189	1
2.7	2015_May_17_1408	s	s	7	1	SIC	185	RC	0	1	02VD 02VO 02VC 02MD 02MO 02MC 02RD 09RO	1	0	1.46254396439	380.0	-381.0	-121	-161	0
2.7	2015_May_17_1408	s	s	7	1	SIC	186	RC	1	2	02VD 02VO 02VC 09MD 02MO 02MC 02RD 02RO	1	0	1.7709710598	493.0	232.0	-141	84	0
2.7	2015_May_17_1408	s	s	7	1	SIC	187	RC	2	2	09VD 02VO 02VC 02MD 02MO 02MC 02RD 02RO	1	0	0.564283132553	346.0	31.0	-65	51	0
2.7	2015_May_17_1408	s	s	7	1	SIC	188	ABS	0	1	02VD 02VO 02VC 02MD 02MO 02MC 02RD 10RO	1	0	0.724004030228	None	None	72	267	0
2.7	2015_May_17_1408	s	s	7	1	SIC	189	ABS	2	2	10VD 02VO 02VC 02MD 02MO 02MC 02RD 02RO	1	0	0.67028093338	None	None	-130	-63	0
2.7	2015_May_17_1408	s	s	7	1	SIC	190	ABS	1	2	02VD 02VO 02VC 10MD 02MO 02MC 02RD 02RO	1	0	1.41808509827	None	None	75	-281	0
2.7	2015_May_17_1408	s	s	7	1	SIC	191	RC	1	0	02VD 02VO 02VC 02MD 02MO 09MC 02RD 02RO	0	1	2.62408995628	359.0	-305.0	None	None	0
2.7	2015_May_17_1408	s	s	7	1	SIC	192	RC	0	2	02VD 02VO 02VC 02MD 02MO 02MC 09RD 02RO	1	0	0.877022027969	157.0	-135.0	-8	-94	0
2.7	2015_May_17_1408	s	s	7	1	SIC	193	ABS	2	2	10VD 02VO 02VC 02MD 02MO 02MC 02RD 02RO	1	0	0.606263160706	None	None	-177	44	0
2.7	2015_May_17_1408	s	s	7	1	SIC	194	ABS	2	1	02VD 10VO 02VC 02MD 02MO 02MC 02RD 02RO	1	0	2.97750115395	None	None	123	223	0
2.7	2015_May_17_1408	s	s	7	1	SIC	195	ABS	0	2	02VD 02VO 02VC 02MD 02MO 02MC 10RD 02RO	0	1	2.19461107254	None	None	None	None	1
2.7	2015_May_17_1408	s	s	7	1	SIC	196	RC	2	0	02VD 02VO 09VC 02MD 02MO 02MC 02RD 02RO	1	0	2.53702902794	-5.0	-319.0	6	-318	1
2.7	2015_May_17_1408	s	s	7	1	SIC	197	RC	1	2	02VD 02VO 02VC 09MD 02MO 02MC 02RD 02RO	1	0	4.3377559185	-446.0	131.0	-461	-21	0
2.7	2015_May_17_1408	s	s	7	1	SIC	198	RC	0	2	02VD 02VO 02VC 02MD 02MO 02MC 09RD 02RO	1	0	2.37174892426	435.0	333.0	75	-283	0
2.7	2015_May_17_1408	s	s	7	1	SIC	199	ABS	2	0	02VD 02VO 10VC 02MD 02MO 02MC 02RD 02RO	1	0	1.32449293137	None	None	-231	-107	0
2.7	2015_May_17_1408	s	s	7	1	SIC	200	ABS	1	2	02VD 02VO 02VC 10MD 02MO 02MC 02RD 02RO	1	0	1.07064294815	None	None	-115	126	0
2.7	2015_May_17_1408	s	s	7	1	SIC	201	RC	2	1	02VD 09VO 02VC 02MD 02MO 02MC 02RD 02RO	1	0	1.25878787041	-470.0	-36.0	37	-290	0
2.7	2015_May_17_1408	s	s	7	1	SIC	202	RC	0	1	02VD 02VO 02VC 02MD 02MO 02MC 02RD 09RO	1	0	1.30591011047	456.0	15.0	513	-106	0
2.7	2015_May_17_1408	s	s	7	1	SIC	203	RC	1	1	02VD 02VO 02VC 02MD 09MO 02MC 02RD 02RO	1	0	0.98814201355	407.0	-343.0	-88	174	0
2.7	2015_May_17_1408	s	s	7	1	SIC	204	ABS	0	1	02VD 02VO 02VC 02MD 02MO 02MC 02RD 10RO	1	0	0.949424028397	None	None	-77	288	0
2.7	2015_May_17_1408	s	s	7	1	SIC	205	ABS	1	1	02VD 02VO 02VC 02MD 10MO 02MC 02RD 02RO	1	0	3.65452098846	None	None	537	179	0
2.7	2015_May_17_1408	s	s	7	1	SIC	206	ABS	1	0	02VD 02VO 02VC 02MD 02MO 10MC 02RD 02RO	1	0	1.94151210785	None	None	13	-147	0
2.7	2015_May_17_1408	s	s	7	1	SIC	207	RC	1	0	02VD 02VO 02VC 02MD 02MO 09MC 02RD 02RO	1	0	1.64194917679	-465.0	-307.0	76	-374	0
2.7	2015_May_17_1408	s	s	7	1	SIC	208	RC	2	2	09VD 02VO 02VC 02MD 02MO 02MC 02RD 02RO	1	0	1.75315093994	153.0	-55.0	153	-52	1
2.7	2015_May_17_1408	s	s	7	1	SIC	209	RC	0	2	02VD 02VO 02VC 02MD 02MO 02MC 09RD 02RO	1	0	1.2471010685	-250.0	-207.0	276	-33	0
2.7	2015_May_17_1408	s	s	7	1	SIC	210	RC	0	1	02VD 02VO 02VC 02MD 02MO 02MC 02RD 09RO	1	0	2.89197921753	207.0	-72.0	-539	-132	0
2.7	2015_May_17_1408	s	s	7	1	SIC	211	ABS	2	0	02VD 02VO 10VC 02MD 02MO 02MC 02RD 02RO	1	0	0.784613132477	None	None	-523	-171	0
2.7	2015_May_17_1408	s	s	7	1	SIC	212	RC	1	1	02VD 02VO 02VC 02MD 09MO 02MC 02RD 02RO	1	0	0.729083061218	-294.0	-273.0	-285	-274	1
2.7	2015_May_17_1408	s	s	7	1	SIC	213	RC	1	2	02VD 02VO 02VC 09MD 02MO 02MC 02RD 02RO	1	0	0.6677069664	-189.0	239.0	-462	-72	0
2.7	2015_May_17_1408	s	s	7	1	SIC	214	ABS	2	1	02VD 10VO 02VC 02MD 02MO 02MC 02RD 02RO	1	0	0.68204498291	None	None	-460	-71	0
2.7	2015_May_17_1408	s	s	7	1	SIC	215	RC	1	0	02VD 02VO 02VC 02MD 02MO 09MC 02RD 02RO	1	0	0.370251178741	-104.0	-384.0	-21	40	0
2.7	2015_May_17_1408	s	s	7	1	SIC	216	RC	2	2	09VD 02VO 02VC 02MD 02MO 02MC 02RD 02RO	1	0	2.53806185722	-286.0	-83.0	484	-214	0
2.7	2015_May_17_1408	s	s	7	1	SIC	217	ABS	1	1	02VD 02VO 02VC 02MD 10MO 02MC 02RD 02RO	1	0	1.6594979763	None	None	-196	-369	0
2.7	2015_May_17_1408	s	s	7	1	SIC	218	ABS	1	0	02VD 02VO 02VC 02MD 02MO 10MC 02RD 02RO	1	0	0.799716949463	None	None	-220	8	0
2.7	2015_May_17_1408	s	s	7	1	SIC	219	RC	2	1	02VD 09VO 02VC 02MD 02MO 02MC 02RD 02RO	1	0	1.05877804756	177.0	-391.0	108	-49	0
2.7	2015_May_17_1408	s	s	7	1	SIC	220	ABS	0	1	02VD 02VO 02VC 02MD 02MO 02MC 02RD 10RO	1	0	3.42462611198	None	None	0	0	0
2.7	2015_May_17_1408	s	s	7	1	SIC	221	ABS	1	2	02VD 02VO 02VC 10MD 02MO 02MC 02RD 02RO	0	1	2.27111005783	None	None	None	None	1
2.7	2015_May_17_1408	s	s	7	1	SIC	222	ABS	2	2	10VD 02VO 02VC 02MD 02MO 02MC 02RD 02RO	1	0	1.03000807762	None	None	-384	-119	0
2.7	2015_May_17_1408	s	s	7	1	SIC	223	ABS	0	2	02VD 02VO 02VC 02MD 02MO 02MC 10RD 02RO	1	0	2.39229989052	None	None	510	-12	0
2.7	2015_May_17_1408	s	s	7	1	SIC	224	RC	2	0	02VD 02VO 09VC 02MD 02MO 02MC 02RD 02RO	1	0	1.64234900475	192.0	376.0	-148	-368	0
2.7	2015_May_17_1408	s	s	7	1	SIC	225	ABS	2	0	02VD 02VO 10VC 02MD 02MO 02MC 02RD 02RO	1	0	2.15359711647	None	None	-413	-89	0
2.7	2015_May_17_1408	s	s	7	1	SIC	226	ABS	0	2	02VD 02VO 02VC 02MD 02MO 02MC 10RD 02RO	1	0	4.07196497917	None	None	-64	-251	0
2.7	2015_May_17_1408	s	s	7	1	SIC	227	RC	0	2	02VD 02VO 02VC 02MD 02MO 02MC 09RD 02RO	1	0	0.646822214127	-184.0	18.0	-181	25	1
2.7	2015_May_17_1408	s	s	7	1	SIC	228	RC	2	2	09VD 02VO 02VC 02MD 02MO 02MC 02RD 02RO	1	0	2.11843204498	264.0	111.0	425	-388	0
2.7	2015_May_17_1408	s	s	7	1	SIC	229	ABS	2	1	02VD 10VO 02VC 02MD 02MO 02MC 02RD 02RO	1	0	1.48248100281	None	None	-304	-168	0
2.7	2015_May_17_1408	s	s	7	1	SIC	230	RC	2	1	02VD 09VO 02VC 02MD 02MO 02MC 02RD 02RO	1	0	0.724281072617	-386.0	-185.0	-282	111	0
2.7	2015_May_17_1408	s	s	7	1	SIC	231	ABS	1	2	02VD 02VO 02VC 10MD 02MO 02MC 02RD 02RO	1	0	0.688519001007	None	None	34	164	0
2.7	2015_May_17_1408	s	s	7	1	SIC	232	RC	1	0	02VD 02VO 02VC 02MD 02MO 09MC 02RD 02RO	1	0	1.7129240036	-216.0	-91.0	-118	-188	0
2.7	2015_May_17_1408	s	s	7	1	SIC	233	RC	0	1	02VD 02VO 02VC 02MD 02MO 02MC 02RD 09RO	1	0	3.2784910202	-153.0	189.0	-149	188	1
2.7	2015_May_17_1408	s	s	7	1	SIC	234	RC	2	0	02VD 02VO 09VC 02MD 02MO 02MC 02RD 02RO	1	0	1.09401893616	116.0	20.0	114	11	1
2.7	2015_May_17_1408	s	s	7	1	SIC	235	ABS	0	1	02VD 02VO 02VC 02MD 02MO 02MC 02RD 10RO	1	0	1.21838593483	None	None	25	-173	0
2.7	2015_May_17_1408	s	s	7	1	SIC	236	ABS	1	0	02VD 02VO 02VC 02MD 02MO 10MC 02RD 02RO	1	0	0.556445121765	None	None	-136	111	0
2.7	2015_May_17_1408	s	s	7	1	SIC	237	RC	1	1	02VD 02VO 02VC 02MD 09MO 02MC 02RD 02RO	1	0	0.77050113678	-106.0	130.0	-110	129	1
2.7	2015_May_17_1408	s	s	7	1	SIC	238	ABS	1	1	02VD 02VO 02VC 02MD 10MO 02MC 02RD 02RO	1	0	2.34203410149	None	None	-301	-142	0
2.7	2015_May_17_1408	s	s	7	1	SIC	239	ABS	2	2	10VD 02VO 02VC 02MD 02MO 02MC 02RD 02RO	1	0	1.84774279594	None	None	227	-400	0
2.7	2015_May_17_1408	s	s	7	1	SIC	240	RC	1	2	02VD 02VO 02VC 09MD 02MO 02MC 02RD 02RO	1	0	2.72195100784	74.0	70.0	66	73	1
2.7	2015_May_17_1408	s	s	7	1	SIC	241	RC	2	1	02VD 09VO 02VC 02MD 02MO 02MC 02RD 02RO	1	0	4.04274916649	34.0	364.0	34	358	1
2.7	2015_May_17_1408	s	s	7	1	SIC	242	RC	1	1	02VD 02VO 02VC 02MD 09MO 02MC 02RD 02RO	1	0	2.0175280571	-61.0	-364.0	-77	395	0
2.7	2015_May_17_1408	s	s	7	1	SIC	243	ABS	2	2	10VD 02VO 02VC 02MD 02MO 02MC 02RD 02RO	0	1	3.01859712601	None	None	None	None	1
2.7	2015_May_17_1408	s	s	7	1	SIC	244	ABS	1	1	02VD 02VO 02VC 02MD 10MO 02MC 02RD 02RO	0	1	3.84338092804	None	None	None	None	1
2.7	2015_May_17_1408	s	s	7	1	SIC	245	ABS	0	2	02VD 02VO 02VC 02MD 02MO 02MC 10RD 02RO	1	0	1.5714161396	None	None	114	-266	0
2.7	2015_May_17_1408	s	s	7	1	SIC	246	ABS	0	1	02VD 02VO 02VC 02MD 02MO 02MC 02RD 10RO	1	0	1.82394003868	None	None	485	-319	0
2.7	2015_May_17_1408	s	s	7	1	SIC	247	ABS	2	1	02VD 10VO 02VC 02MD 02MO 02MC 02RD 02RO	1	0	1.31755399704	None	None	-353	126	0
2.7	2015_May_17_1408	s	s	7	1	SIC	248	RC	1	2	02VD 02VO 02VC 09MD 02MO 02MC 02RD 02RO	1	0	1.56500411034	-241.0	-380.0	-245	-381	1
2.7	2015_May_17_1408	s	s	7	1	SIC	249	ABS	2	0	02VD 02VO 10VC 02MD 02MO 02MC 02RD 02RO	1	0	1.98855900764	None	None	455	18	0
2.7	2015_May_17_1408	s	s	7	1	SIC	250	RC	2	0	02VD 02VO 09VC 02MD 02MO 02MC 02RD 02RO	1	0	0.901775836945	478.0	111.0	-124	198	0
2.7	2015_May_17_1408	s	s	7	1	SIC	251	RC	1	0	02VD 02VO 02VC 02MD 02MO 09MC 02RD 02RO	1	0	2.09450888634	217.0	-57.0	-93	-190	0
2.7	2015_May_17_1408	s	s	7	1	SIC	252	ABS	1	0	02VD 02VO 02VC 02MD 02MO 10MC 02RD 02RO	1	0	0.968143939972	None	None	-102	-26	0
2.7	2015_May_17_1408	s	s	7	1	SIC	253	ABS	1	2	02VD 02VO 02VC 10MD 02MO 02MC 02RD 02RO	1	0	1.89052891731	None	None	-185	-205	0
2.7	2015_May_17_1408	s	s	7	1	SIC	254	RC	2	2	09VD 02VO 02VC 02MD 02MO 02MC 02RD 02RO	1	0	1.75306987762	424.0	333.0	255	250	0
2.7	2015_May_17_1408	s	s	7	1	SIC	255	RC	0	2	02VD 02VO 02VC 02MD 02MO 02MC 09RD 02RO	1	0	3.55406308174	512.0	46.0	517	45	1
2.7	2015_May_17_1408	s	s	7	1	SIC	256	RC	0	1	02VD 02VO 02VC 02MD 02MO 02MC 02RD 09RO	1	0	0.893956899643	223.0	160.0	-167	-84	0
2.7	2015_May_17_1408	s	s	7	1	SIC	257	RC	0	2	02VD 02VO 02VC 02MD 02MO 02MC 09RD 02RO	1	0	1.25372219086	-302.0	-307.0	304	-293	0
2.7	2015_May_17_1408	s	s	7	1	SIC	258	RC	1	0	02VD 02VO 02VC 02MD 02MO 09MC 02RD 02RO	1	0	1.36494612694	-526.0	-62.0	-385	-106	0
2.7	2015_May_17_1408	s	s	7	1	SIC	259	ABS	0	1	02VD 02VO 02VC 02MD 02MO 02MC 02RD 10RO	1	0	2.09455299377	None	None	-254	-184	0
2.7	2015_May_17_1408	s	s	7	1	SIC	260	ABS	1	1	02VD 02VO 02VC 02MD 10MO 02MC 02RD 02RO	1	0	4.95475006104	None	None	-255	-352	0
2.7	2015_May_17_1408	s	s	7	1	SIC	261	ABS	1	0	02VD 02VO 02VC 02MD 02MO 10MC 02RD 02RO	1	0	1.33724308014	None	None	-360	-389	0
2.7	2015_May_17_1408	s	s	7	1	SIC	262	RC	1	2	02VD 02VO 02VC 09MD 02MO 02MC 02RD 02RO	1	0	1.28244900703	-463.0	410.0	315	-336	0
2.7	2015_May_17_1408	s	s	7	1	SIC	263	RC	2	1	02VD 09VO 02VC 02MD 02MO 02MC 02RD 02RO	1	0	2.20042014122	44.0	315.0	48	316	1
2.7	2015_May_17_1408	s	s	7	1	SIC	264	ABS	1	2	02VD 02VO 02VC 10MD 02MO 02MC 02RD 02RO	1	0	2.77709817886	None	None	-474	249	0
2.7	2015_May_17_1408	s	s	7	1	SIC	265	RC	1	1	02VD 02VO 02VC 02MD 09MO 02MC 02RD 02RO	1	0	1.34130692482	-412.0	150.0	-407	146	1
2.7	2015_May_17_1408	s	s	7	1	SIC	266	ABS	2	2	10VD 02VO 02VC 02MD 02MO 02MC 02RD 02RO	1	0	4.56636095047	None	None	36	358	0
2.7	2015_May_17_1408	s	s	7	1	SIC	267	ABS	2	1	02VD 10VO 02VC 02MD 02MO 02MC 02RD 02RO	1	0	2.15336298943	None	None	-130	-397	0
2.7	2015_May_17_1408	s	s	7	1	SIC	268	RC	2	0	02VD 02VO 09VC 02MD 02MO 02MC 02RD 02RO	1	0	2.04221606255	262.0	237.0	265	232	1
2.7	2015_May_17_1408	s	s	7	1	SIC	269	RC	0	1	02VD 02VO 02VC 02MD 02MO 02MC 02RD 09RO	1	0	2.784979105	142.0	-37.0	143	-39	1
2.7	2015_May_17_1408	s	s	7	1	SIC	270	ABS	0	2	02VD 02VO 02VC 02MD 02MO 02MC 10RD 02RO	1	0	1.84745907784	None	None	-369	-260	0
2.7	2015_May_17_1408	s	s	7	1	SIC	271	RC	2	2	09VD 02VO 02VC 02MD 02MO 02MC 02RD 02RO	1	0	1.81239891052	-182.0	-127.0	-174	-125	1
2.7	2015_May_17_1408	s	s	7	1	SIC	272	ABS	2	0	02VD 02VO 10VC 02MD 02MO 02MC 02RD 02RO	1	0	4.43685412407	None	None	250	223	0
2.7	2015_May_17_1408	s	s	7	1	SIC	273	ABS	0	1	02VD 02VO 02VC 02MD 02MO 02MC 02RD 10RO	1	0	1.57151889801	None	None	-87	-248	0
2.7	2015_May_17_1408	s	s	7	1	SIC	274	RC	2	1	02VD 09VO 02VC 02MD 02MO 02MC 02RD 02RO	1	0	0.997016191483	64.0	112.0	68	111	1
2.7	2015_May_17_1408	s	s	7	1	SIC	275	RC	0	2	02VD 02VO 02VC 02MD 02MO 02MC 09RD 02RO	1	0	1.20002293587	518.0	131.0	266	192	0
2.7	2015_May_17_1408	s	s	7	1	SIC	276	ABS	1	1	02VD 02VO 02VC 02MD 10MO 02MC 02RD 02RO	1	0	1.65917801857	None	None	-392	-336	0
2.7	2015_May_17_1408	s	s	7	1	SIC	277	ABS	2	1	02VD 10VO 02VC 02MD 02MO 02MC 02RD 02RO	1	0	2.07990694046	None	None	-82	-273	0
2.7	2015_May_17_1408	s	s	7	1	SIC	278	ABS	2	0	02VD 02VO 10VC 02MD 02MO 02MC 02RD 02RO	1	0	1.16021108627	None	None	65	-190	0
2.7	2015_May_17_1408	s	s	7	1	SIC	279	ABS	1	2	02VD 02VO 02VC 10MD 02MO 02MC 02RD 02RO	1	0	1.9768409729	None	None	388	-4	0
2.7	2015_May_17_1408	s	s	7	1	SIC	280	RC	0	1	02VD 02VO 02VC 02MD 02MO 02MC 02RD 09RO	1	0	4.38981986046	525.0	142.0	526	147	1
2.7	2015_May_17_1408	s	s	7	1	SIC	281	RC	2	0	02VD 02VO 09VC 02MD 02MO 02MC 02RD 02RO	1	0	1.40005707741	539.0	237.0	531	244	1
2.7	2015_May_17_1408	s	s	7	1	SIC	282	ABS	0	2	02VD 02VO 02VC 02MD 02MO 02MC 10RD 02RO	1	0	3.78953695297	None	None	-175	323	0
2.7	2015_May_17_1408	s	s	7	1	SIC	283	ABS	1	0	02VD 02VO 02VC 02MD 02MO 10MC 02RD 02RO	1	0	1.17075490952	None	None	-5	21	0
2.7	2015_May_17_1408	s	s	7	1	SIC	284	RC	1	0	02VD 02VO 02VC 02MD 02MO 09MC 02RD 02RO	1	0	0.929224014282	-339.0	216.0	-27	-170	0
2.7	2015_May_17_1408	s	s	7	1	SIC	285	RC	1	2	02VD 02VO 02VC 09MD 02MO 02MC 02RD 02RO	1	0	1.70608305931	46.0	166.0	42	164	1
2.7	2015_May_17_1408	s	s	7	1	SIC	286	RC	2	2	09VD 02VO 02VC 02MD 02MO 02MC 02RD 02RO	1	0	0.994921922684	-245.0	-153.0	-248	-157	1
2.7	2015_May_17_1408	s	s	7	1	SIC	287	RC	1	1	02VD 02VO 02VC 02MD 09MO 02MC 02RD 02RO	1	0	2.41846299171	-359.0	308.0	-358	299	1
2.7	2015_May_17_1408	s	s	7	1	SIC	288	ABS	2	2	10VD 02VO 02VC 02MD 02MO 02MC 02RD 02RO	1	0	2.82435703278	None	None	415	-409	0
2.7	2015_May_17_1408	s	s	7	1	SIC	289	ABS	1	1	02VD 02VO 02VC 02MD 10MO 02MC 02RD 02RO	1	0	1.91300702095	None	None	423	-333	0
2.7	2015_May_17_1408	s	s	7	1	SIC	290	ABS	0	2	02VD 02VO 02VC 02MD 02MO 02MC 10RD 02RO	1	0	2.76048111916	None	None	519	394	0
2.7	2015_May_17_1408	s	s	7	1	SIC	291	ABS	1	0	02VD 02VO 02VC 02MD 02MO 10MC 02RD 02RO	1	0	4.57484102249	None	None	-162	52	0
2.7	2015_May_17_1408	s	s	7	1	SIC	292	ABS	2	1	02VD 10VO 02VC 02MD 02MO 02MC 02RD 02RO	1	0	2.98409199715	None	None	129	338	0
2.7	2015_May_17_1408	s	s	7	1	SIC	293	RC	2	2	09VD 02VO 02VC 02MD 02MO 02MC 02RD 02RO	1	0	4.68124890327	-176.0	260.0	-171	262	1
2.7	2015_May_17_1408	s	s	7	1	SIC	294	ABS	2	2	10VD 02VO 02VC 02MD 02MO 02MC 02RD 02RO	1	0	2.9250459671	None	None	-435	-361	0
2.7	2015_May_17_1408	s	s	7	1	SIC	295	ABS	2	0	02VD 02VO 10VC 02MD 02MO 02MC 02RD 02RO	1	0	2.41915798187	None	None	47	292	0
2.7	2015_May_17_1408	s	s	7	1	SIC	296	RC	1	2	02VD 02VO 02VC 09MD 02MO 02MC 02RD 02RO	1	0	4.72617793083	-117.0	313.0	-413	196	0
2.7	2015_May_17_1408	s	s	7	1	SIC	297	ABS	0	1	02VD 02VO 02VC 02MD 02MO 02MC 02RD 10RO	1	0	4.55456805229	None	None	-516	-372	0
2.7	2015_May_17_1408	s	s	7	1	SIC	298	RC	1	1	02VD 02VO 02VC 02MD 09MO 02MC 02RD 02RO	1	0	1.14111113548	-293.0	-101.0	-288	-104	1
2.7	2015_May_17_1408	s	s	7	1	SIC	299	ABS	1	2	02VD 02VO 02VC 10MD 02MO 02MC 02RD 02RO	1	0	3.17777490616	None	None	14	253	0
2.7	2015_May_17_1408	s	s	7	1	SIC	300	RC	1	0	02VD 02VO 02VC 02MD 02MO 09MC 02RD 02RO	1	0	3.03978300095	360.0	150.0	-496	-84	0
2.7	2015_May_17_1408	s	s	7	1	SIC	301	RC	2	0	02VD 02VO 09VC 02MD 02MO 02MC 02RD 02RO	1	0	2.07104420662	479.0	42.0	-405	-311	0
2.7	2015_May_17_1408	s	s	7	1	SIC	302	RC	0	1	02VD 02VO 02VC 02MD 02MO 02MC 02RD 09RO	1	0	2.32995700836	323.0	-160.0	334	-159	1
2.7	2015_May_17_1408	s	s	7	1	SIC	303	RC	0	2	02VD 02VO 02VC 02MD 02MO 02MC 09RD 02RO	1	0	2.80854010582	-474.0	-42.0	138	-161	0
2.7	2015_May_17_1408	s	s	7	1	SIC	304	RC	2	1	02VD 09VO 02VC 02MD 02MO 02MC 02RD 02RO	1	0	2.50156784058	468.0	-106.0	36	156	0
2.7	2015_May_17_1408	s	s	7	1	SIC	305	ABS	1	0	02VD 02VO 02VC 02MD 02MO 10MC 02RD 02RO	1	0	3.52543377876	None	None	-474	-344	0
2.7	2015_May_17_1408	s	s	7	1	SIC	306	ABS	2	2	10VD 02VO 02VC 02MD 02MO 02MC 02RD 02RO	1	0	3.37759518623	None	None	433	-221	0
2.7	2015_May_17_1408	s	s	7	1	SIC	307	RC	0	1	02VD 02VO 02VC 02MD 02MO 02MC 02RD 09RO	1	0	3.78452301025	500.0	-307.0	45	195	0
2.7	2015_May_17_1408	s	s	7	1	SIC	308	ABS	1	1	02VD 02VO 02VC 02MD 10MO 02MC 02RD 02RO	0	1	11.428702116	None	None	None	None	1
2.7	2015_May_17_1408	s	s	7	1	SIC	309	ABS	0	1	02VD 02VO 02VC 02MD 02MO 02MC 02RD 10RO	1	0	3.9258441925	None	None	334	363	0
2.7	2015_May_17_1408	s	s	7	1	SIC	310	ABS	0	2	02VD 02VO 02VC 02MD 02MO 02MC 10RD 02RO	1	0	1.4589099884	None	None	-233	-58	0
2.7	2015_May_17_1408	s	s	7	1	SIC	311	RC	1	1	02VD 02VO 02VC 02MD 09MO 02MC 02RD 02RO	1	0	2.25415802002	326.0	363.0	-61	-179	0
2.7	2015_May_17_1408	s	s	7	1	SIC	312	RC	1	0	02VD 02VO 02VC 02MD 02MO 09MC 02RD 02RO	1	0	1.31195211411	-91.0	210.0	-103	92	0
2.7	2015_May_17_1408	s	s	7	1	SIC	313	RC	2	0	02VD 02VO 09VC 02MD 02MO 02MC 02RD 02RO	1	0	2.15336704254	391.0	-411.0	391	-416	1
2.7	2015_May_17_1408	s	s	7	1	SIC	314	RC	2	1	02VD 09VO 02VC 02MD 02MO 02MC 02RD 02RO	1	0	1.71790981293	314.0	374.0	336	-43	0
2.7	2015_May_17_1408	s	s	7	1	SIC	315	RC	2	2	09VD 02VO 02VC 02MD 02MO 02MC 02RD 02RO	1	0	2.40102505684	-1.0	174.0	-2	167	1
2.7	2015_May_17_1408	s	s	7	1	SIC	316	ABS	2	0	02VD 02VO 10VC 02MD 02MO 02MC 02RD 02RO	1	0	3.42462110519	None	None	195	330	0
2.7	2015_May_17_1408	s	s	7	1	SIC	317	RC	0	2	02VD 02VO 02VC 02MD 02MO 02MC 09RD 02RO	1	0	3.39495706558	-355.0	-322.0	-398	112	0
2.7	2015_May_17_1408	s	s	7	1	SIC	318	ABS	2	1	02VD 10VO 02VC 02MD 02MO 02MC 02RD 02RO	0	1	2.29466700554	None	None	None	None	1
2.7	2015_May_17_1408	s	s	7	1	SIC	319	RC	1	2	02VD 02VO 02VC 09MD 02MO 02MC 02RD 02RO	1	0	6.28485989571	-63.0	228.0	-303	-92	0
2.7	2015_May_17_1408	s	s	7	1	SIC	320	ABS	1	2	02VD 02VO 02VC 10MD 02MO 02MC 02RD 02RO	1	0	4.59790205956	None	None	513	91	0
2.7	2015_May_17_1408	s	s	7	1	SIC	321	ABS	2	2	10VD 02VO 02VC 02MD 02MO 02MC 02RD 02RO	1	0	2.49135613441	None	None	462	-284	0
2.7	2015_May_17_1408	s	s	7	1	SIC	322	RC	0	2	02VD 02VO 02VC 02MD 02MO 02MC 09RD 02RO	1	0	1.47072196007	-277.0	135.0	-266	140	1
2.7	2015_May_17_1408	s	s	7	1	SIC	323	ABS	0	2	02VD 02VO 02VC 02MD 02MO 02MC 10RD 02RO	0	1	1.41183185577	None	None	None	None	1
2.7	2015_May_17_1408	s	s	7	1	SIC	324	RC	0	1	02VD 02VO 02VC 02MD 02MO 02MC 02RD 09RO	1	0	1.03519511223	-510.0	-239.0	182	196	0
2.7	2015_May_17_1408	s	s	7	1	SIC	325	RC	2	0	02VD 02VO 09VC 02MD 02MO 02MC 02RD 02RO	0	1	0.35257601738	146.0	-358.0	None	None	0
2.7	2015_May_17_1408	s	s	7	1	SIC	326	ABS	2	1	02VD 10VO 02VC 02MD 02MO 02MC 02RD 02RO	1	0	1.44212603569	None	None	-65	97	0
2.7	2015_May_17_1408	s	s	7	1	SIC	327	RC	2	1	02VD 09VO 02VC 02MD 02MO 02MC 02RD 02RO	1	0	1.16450786591	136.0	388.0	132	381	1
2.7	2015_May_17_1408	s	s	7	1	SIC	328	ABS	1	2	02VD 02VO 02VC 10MD 02MO 02MC 02RD 02RO	1	0	0.835144996643	None	None	61	6	0
2.7	2015_May_17_1408	s	s	7	1	SIC	329	RC	2	2	09VD 02VO 02VC 02MD 02MO 02MC 02RD 02RO	0	1	1.74824595451	-465.0	294.0	None	None	0
2.7	2015_May_17_1408	s	s	7	1	SIC	330	RC	1	1	02VD 02VO 02VC 02MD 09MO 02MC 02RD 02RO	1	0	1.80885601044	165.0	-108.0	164	-108	1
2.7	2015_May_17_1408	s	s	7	1	SIC	331	RC	1	2	02VD 02VO 02VC 09MD 02MO 02MC 02RD 02RO	0	1	1.32463407516	-240.0	321.0	None	None	0
2.7	2015_May_17_1408	s	s	7	1	SIC	332	ABS	1	1	02VD 02VO 02VC 02MD 10MO 02MC 02RD 02RO	1	0	2.07134890556	None	None	252	-302	0
2.7	2015_May_17_1408	s	s	7	1	SIC	333	ABS	0	1	02VD 02VO 02VC 02MD 02MO 02MC 02RD 10RO	0	1	2.1718211174	None	None	None	None	1
2.7	2015_May_17_1408	s	s	7	1	SIC	334	ABS	2	0	02VD 02VO 10VC 02MD 02MO 02MC 02RD 02RO	0	1	1.69479894638	None	None	None	None	1
2.7	2015_May_17_1408	s	s	7	1	SIC	335	ABS	1	0	02VD 02VO 02VC 02MD 02MO 10MC 02RD 02RO	0	1	1.68893313408	None	None	None	None	1
2.7	2015_May_17_1408	s	s	7	1	SIC	336	RC	1	0	02VD 02VO 02VC 02MD 02MO 09MC 02RD 02RO	0	1	2.64203190804	-287.0	43.0	None	None	0
2.7	2015_May_17_1408	s	s	7	1	SIC	337	RC	1	2	02VD 02VO 02VC 09MD 02MO 02MC 02RD 02RO	0	1	0.646708965302	-498.0	-145.0	None	None	0
2.7	2015_May_17_1408	s	s	7	1	SIC	338	RC	1	0	02VD 02VO 02VC 02MD 02MO 09MC 02RD 02RO	1	0	0.571871995926	-438.0	327.0	-17	182	0
2.7	2015_May_17_1408	s	s	7	1	SIC	339	RC	2	1	02VD 09VO 02VC 02MD 02MO 02MC 02RD 02RO	1	0	0.658555984497	260.0	151.0	270	158	1
2.7	2015_May_17_1408	s	s	7	1	SIC	340	RC	1	1	02VD 02VO 02VC 02MD 09MO 02MC 02RD 02RO	0	1	0.277323007584	-368.0	-329.0	None	None	0
2.7	2015_May_17_1408	s	s	7	1	SIC	341	ABS	1	2	02VD 02VO 02VC 10MD 02MO 02MC 02RD 02RO	0	1	1.34122300148	None	None	None	None	1
2.7	2015_May_17_1408	s	s	7	1	SIC	342	ABS	2	0	02VD 02VO 10VC 02MD 02MO 02MC 02RD 02RO	1	0	2.86855697632	None	None	-422	347	0
2.7	2015_May_17_1408	s	s	7	1	SIC	343	RC	0	2	02VD 02VO 02VC 02MD 02MO 02MC 09RD 02RO	0	1	0.752638101578	402.0	151.0	None	None	0
2.7	2015_May_17_1408	s	s	7	1	SIC	344	ABS	2	2	10VD 02VO 02VC 02MD 02MO 02MC 02RD 02RO	0	1	1.03558707237	None	None	None	None	1
2.7	2015_May_17_1408	s	s	7	1	SIC	345	RC	0	1	02VD 02VO 02VC 02MD 02MO 02MC 02RD 09RO	1	0	1.23571586609	456.0	-110.0	-376	-126	0
2.7	2015_May_17_1408	s	s	7	1	SIC	346	ABS	1	1	02VD 02VO 02VC 02MD 10MO 02MC 02RD 02RO	1	0	2.77444410324	None	None	225	-332	0
2.7	2015_May_17_1408	s	s	7	1	SIC	347	ABS	1	0	02VD 02VO 02VC 02MD 02MO 10MC 02RD 02RO	1	0	0.937338113785	None	None	134	-115	0
2.7	2015_May_17_1408	s	s	7	1	SIC	348	RC	2	0	02VD 02VO 09VC 02MD 02MO 02MC 02RD 02RO	1	0	1.23023605347	407.0	46.0	398	56	1
2.7	2015_May_17_1408	s	s	7	1	SIC	349	ABS	0	1	02VD 02VO 02VC 02MD 02MO 02MC 02RD 10RO	0	1	0.853699922562	None	None	None	None	1
2.7	2015_May_17_1408	s	s	7	1	SIC	350	ABS	0	2	02VD 02VO 02VC 02MD 02MO 02MC 10RD 02RO	1	0	1.3410949707	None	None	-324	214	0
2.7	2015_May_17_1408	s	s	7	1	SIC	351	ABS	2	1	02VD 10VO 02VC 02MD 02MO 02MC 02RD 02RO	1	0	0.97633600235	None	None	43	223	0
2.7	2015_May_17_1408	s	s	7	1	SIC	352	RC	2	2	09VD 02VO 02VC 02MD 02MO 02MC 02RD 02RO	1	0	1.05363297462	-308.0	354.0	-309	347	1
2.7	2015_May_17_1408	s	s	7	1	SIC	353	RC	1	1	02VD 02VO 02VC 02MD 09MO 02MC 02RD 02RO	1	0	1.37152910233	238.0	-361.0	354	120	0
2.7	2015_May_17_1408	s	s	7	1	SIC	354	RC	1	2	02VD 02VO 02VC 09MD 02MO 02MC 02RD 02RO	1	0	0.924287796021	-299.0	256.0	-345	42	0
2.7	2015_May_17_1408	s	s	7	1	SIC	355	RC	2	0	02VD 02VO 09VC 02MD 02MO 02MC 02RD 02RO	0	1	0.476723909378	-505.0	-58.0	None	None	0
2.7	2015_May_17_1408	s	s	7	1	SIC	356	ABS	1	2	02VD 02VO 02VC 10MD 02MO 02MC 02RD 02RO	1	0	1.7061560154	None	None	389	264	0
2.7	2015_May_17_1408	s	s	7	1	SIC	357	ABS	1	0	02VD 02VO 02VC 02MD 02MO 10MC 02RD 02RO	1	0	1.1529109478	None	None	175	223	0
2.7	2015_May_17_1408	s	s	7	1	SIC	358	ABS	2	0	02VD 02VO 10VC 02MD 02MO 02MC 02RD 02RO	1	0	0.999831199646	None	None	60	51	0
2.7	2015_May_17_1408	s	s	7	1	SIC	359	RC	2	2	09VD 02VO 02VC 02MD 02MO 02MC 02RD 02RO	1	0	1.07094597816	496.0	155.0	331	-28	0
2.7	2015_May_17_1408	s	s	7	1	SIC	360	RC	1	0	02VD 02VO 02VC 02MD 02MO 09MC 02RD 02RO	1	0	0.732689142227	96.0	-56.0	92	-53	1
2.7	2015_May_17_1408	s	s	7	1	SIC	361	ABS	1	1	02VD 02VO 02VC 02MD 10MO 02MC 02RD 02RO	1	0	0.47017121315	None	None	-7	123	0
2.7	2015_May_17_1408	s	s	7	1	SIC	362	RC	0	2	02VD 02VO 02VC 02MD 02MO 02MC 09RD 02RO	0	1	0.24159693718	-28.0	344.0	None	None	0
2.7	2015_May_17_1408	s	s	7	1	SIC	363	ABS	2	2	10VD 02VO 02VC 02MD 02MO 02MC 02RD 02RO	1	0	1.23018908501	None	None	-215	178	0
2.7	2015_May_17_1408	s	s	7	1	SIC	364	RC	0	1	02VD 02VO 02VC 02MD 02MO 02MC 02RD 09RO	0	1	0.580560922623	-138.0	-396.0	None	None	0
2.7	2015_May_17_1408	s	s	7	1	SIC	365	ABS	0	2	02VD 02VO 02VC 02MD 02MO 02MC 10RD 02RO	0	1	0.258427143097	None	None	None	None	1
2.7	2015_May_17_1408	s	s	7	1	SIC	366	RC	2	1	02VD 09VO 02VC 02MD 02MO 02MC 02RD 02RO	1	0	1.1528339386	388.0	50.0	380	46	1
2.7	2015_May_17_1408	s	s	7	1	SIC	367	ABS	0	1	02VD 02VO 02VC 02MD 02MO 02MC 02RD 10RO	0	1	1.59736299515	None	None	None	None	1
2.7	2015_May_17_1408	s	s	7	1	SIC	368	ABS	2	1	02VD 10VO 02VC 02MD 02MO 02MC 02RD 02RO	0	1	1.6355240345	None	None	None	None	1
2.7	2015_May_17_1408	s	s	7	1	SIC	369	ABS	1	1	02VD 02VO 02VC 02MD 10MO 02MC 02RD 02RO	1	0	2.80079197884	None	None	-452	50	0
2.7	2015_May_17_1408	s	s	7	1	SIC	370	RC	1	2	02VD 02VO 02VC 09MD 02MO 02MC 02RD 02RO	1	0	1.22349405289	-100.0	-132.0	-100	-128	1
2.7	2015_May_17_1408	s	s	7	1	SIC	371	ABS	2	1	02VD 10VO 02VC 02MD 02MO 02MC 02RD 02RO	1	0	2.86802697182	None	None	126	54	0
2.7	2015_May_17_1408	s	s	7	1	SIC	372	ABS	1	0	02VD 02VO 02VC 02MD 02MO 10MC 02RD 02RO	1	0	0.997098922729	None	None	-194	45	0
2.7	2015_May_17_1408	s	s	7	1	SIC	373	ABS	0	1	02VD 02VO 02VC 02MD 02MO 02MC 02RD 10RO	1	0	3.90382289886	None	None	-270	-369	0
2.7	2015_May_17_1408	s	s	7	1	SIC	374	RC	2	0	02VD 02VO 09VC 02MD 02MO 02MC 02RD 02RO	0	1	1.51246404648	427.0	137.0	None	None	0
2.7	2015_May_17_1408	s	s	7	1	SIC	375	RC	0	2	02VD 02VO 02VC 02MD 02MO 02MC 09RD 02RO	1	0	2.36528205872	267.0	-4.0	258	-5	1
2.7	2015_May_17_1408	s	s	7	1	SIC	376	RC	0	1	02VD 02VO 02VC 02MD 02MO 02MC 02RD 09RO	0	1	0.50549197197	424.0	42.0	None	None	0
2.7	2015_May_17_1408	s	s	7	1	SIC	377	ABS	0	2	02VD 02VO 02VC 02MD 02MO 02MC 10RD 02RO	1	0	1.1007039547	None	None	-85	-242	0
2.7	2015_May_17_1408	s	s	7	1	SIC	378	ABS	1	2	02VD 02VO 02VC 10MD 02MO 02MC 02RD 02RO	1	0	1.66609692574	None	None	-23	371	0
2.7	2015_May_17_1408	s	s	7	1	SIC	379	RC	2	2	09VD 02VO 02VC 02MD 02MO 02MC 02RD 02RO	1	0	1.02335882187	-44.0	-68.0	-41	-59	1
2.7	2015_May_17_1408	s	s	7	1	SIC	380	ABS	2	2	10VD 02VO 02VC 02MD 02MO 02MC 02RD 02RO	1	0	2.12473988533	None	None	428	-406	0
2.7	2015_May_17_1408	s	s	7	1	SIC	381	RC	2	1	02VD 09VO 02VC 02MD 02MO 02MC 02RD 02RO	1	0	0.976284980774	-335.0	225.0	-344	225	1
2.7	2015_May_17_1408	s	s	7	1	SIC	382	RC	1	1	02VD 02VO 02VC 02MD 09MO 02MC 02RD 02RO	1	0	1.50600099564	-385.0	92.0	-331	-243	0
2.7	2015_May_17_1408	s	s	7	1	SIC	383	RC	1	0	02VD 02VO 02VC 02MD 02MO 09MC 02RD 02RO	0	1	0.246531963348	364.0	-160.0	None	None	0
2.7	2015_May_17_1408	s	s	7	1	SIC	384	ABS	2	0	02VD 02VO 10VC 02MD 02MO 02MC 02RD 02RO	0	1	2.1035721302	None	None	None	None	1
2.7	2015_May_17_1408	s	s	7	1	SIC	385	ABS	1	0	02VD 02VO 02VC 02MD 02MO 10MC 02RD 02RO	0	1	2.97227597237	None	None	None	None	1
2.7	2015_May_17_1408	s	s	7	1	SIC	386	RC	2	0	02VD 02VO 09VC 02MD 02MO 02MC 02RD 02RO	1	0	0.902895927429	-516.0	-29.0	-215	40	0
2.7	2015_May_17_1408	s	s	7	1	SIC	387	ABS	2	1	02VD 10VO 02VC 02MD 02MO 02MC 02RD 02RO	1	0	1.2117369175	None	None	-14	130	0
2.7	2015_May_17_1408	s	s	7	1	SIC	388	ABS	0	1	02VD 02VO 02VC 02MD 02MO 02MC 02RD 10RO	0	1	2.50197696686	None	None	None	None	1
2.7	2015_May_17_1408	s	s	7	1	SIC	389	RC	2	2	09VD 02VO 02VC 02MD 02MO 02MC 02RD 02RO	0	1	0.337496042252	116.0	129.0	None	None	0
2.7	2015_May_17_1408	s	s	7	1	SIC	390	RC	1	1	02VD 02VO 02VC 02MD 09MO 02MC 02RD 02RO	1	0	0.464510917664	391.0	37.0	181	199	0
2.7	2015_May_17_1408	s	s	7	1	SIC	391	ABS	0	2	02VD 02VO 02VC 02MD 02MO 02MC 10RD 02RO	0	1	2.14533996582	None	None	None	None	1
2.7	2015_May_17_1408	s	s	7	1	SIC	392	ABS	1	1	02VD 02VO 02VC 02MD 10MO 02MC 02RD 02RO	1	0	1.83069515228	None	None	-400	-227	0
2.7	2015_May_17_1408	s	s	7	1	SIC	393	ABS	1	2	02VD 02VO 02VC 10MD 02MO 02MC 02RD 02RO	1	0	2.48962783813	None	None	517	-278	0
2.7	2015_May_17_1408	s	s	7	1	SIC	394	RC	2	1	02VD 09VO 02VC 02MD 02MO 02MC 02RD 02RO	1	0	1.64232182503	345.0	125.0	351	129	1
2.7	2015_May_17_1408	s	s	7	1	SIC	395	ABS	2	0	02VD 02VO 10VC 02MD 02MO 02MC 02RD 02RO	1	0	1.21838188171	None	None	-354	-143	0
2.7	2015_May_17_1408	s	s	7	1	SIC	396	ABS	2	2	10VD 02VO 02VC 02MD 02MO 02MC 02RD 02RO	1	0	1.65895104408	None	None	406	-74	0
2.7	2015_May_17_1408	s	s	7	1	SIC	397	RC	1	2	02VD 02VO 02VC 09MD 02MO 02MC 02RD 02RO	0	1	0.349122047424	497.0	248.0	None	None	0
2.7	2015_May_17_1408	s	s	7	1	SIC	398	RC	0	1	02VD 02VO 02VC 02MD 02MO 02MC 02RD 09RO	1	0	2.1650891304	81.0	-275.0	-490	62	0
2.7	2015_May_17_1408	s	s	7	1	SIC	399	RC	0	2	02VD 02VO 02VC 02MD 02MO 02MC 09RD 02RO	1	0	1.65515804291	-328.0	-284.0	-338	-284	1
2.7	2015_May_17_1408	s	s	7	1	SIC	400	RC	1	0	02VD 02VO 02VC 02MD 02MO 09MC 02RD 02RO	1	0	1.90613508224	536.0	-56.0	-307	48	0
2.7	2015_May_17_1408	s	s	7	1	SIC	401	ABS	1	2	02VD 02VO 02VC 10MD 02MO 02MC 02RD 02RO	0	1	1.11373901367	None	None	None	None	1
2.7	2015_May_17_1408	s	s	7	1	SIC	402	RC	1	1	02VD 02VO 02VC 02MD 09MO 02MC 02RD 02RO	0	1	2.60430717468	467.0	36.0	None	None	0
2.7	2015_May_17_1408	s	s	7	1	SIC	403	ABS	0	2	02VD 02VO 02VC 02MD 02MO 02MC 10RD 02RO	0	1	2.45938205719	None	None	None	None	1
2.7	2015_May_17_1408	s	s	7	1	SIC	404	RC	0	2	02VD 02VO 02VC 02MD 02MO 02MC 09RD 02RO	1	0	0.764461994171	381.0	-231.0	-99	-32	0
2.7	2015_May_17_1408	s	s	7	1	SIC	405	ABS	0	1	02VD 02VO 02VC 02MD 02MO 02MC 02RD 10RO	1	0	1.18303704262	None	None	-137	150	0
2.7	2015_May_17_1408	s	s	7	1	SIC	406	ABS	1	1	02VD 02VO 02VC 02MD 10MO 02MC 02RD 02RO	1	0	1.94817495346	None	None	-22	350	0
2.7	2015_May_17_1408	s	s	7	1	SIC	407	RC	1	2	02VD 02VO 02VC 09MD 02MO 02MC 02RD 02RO	1	0	1.03026604652	-149.0	-412.0	8	49	0
2.7	2015_May_17_1408	s	s	7	1	SIC	408	ABS	1	0	02VD 02VO 02VC 02MD 02MO 10MC 02RD 02RO	1	0	3.20751905441	None	None	-446	-116	0
2.7	2015_May_17_1408	s	s	7	1	SIC	409	RC	2	1	02VD 09VO 02VC 02MD 02MO 02MC 02RD 02RO	0	1	2.86635684967	-208.0	-3.0	None	None	0
2.7	2015_May_17_1408	s	s	7	1	SIC	410	RC	0	1	02VD 02VO 02VC 02MD 02MO 02MC 02RD 09RO	1	0	2.63105487823	-382.0	230.0	-374	229	1
2.7	2015_May_17_1408	s	s	7	1	SIC	411	ABS	2	0	02VD 02VO 10VC 02MD 02MO 02MC 02RD 02RO	0	1	1.7598772049	None	None	None	None	1
2.7	2015_May_17_1408	s	s	7	1	SIC	412	RC	2	2	09VD 02VO 02VC 02MD 02MO 02MC 02RD 02RO	0	1	2.9184319973	251.0	-214.0	None	None	0
2.7	2015_May_17_1408	s	s	7	1	SIC	413	RC	1	0	02VD 02VO 02VC 02MD 02MO 09MC 02RD 02RO	1	0	2.33677005768	-439.0	-67.0	3	-38	0
2.7	2015_May_17_1408	s	s	7	1	SIC	414	ABS	2	1	02VD 10VO 02VC 02MD 02MO 02MC 02RD 02RO	1	0	1.4914150238	None	None	-439	158	0
2.7	2015_May_17_1408	s	s	7	1	SIC	415	RC	2	0	02VD 02VO 09VC 02MD 02MO 02MC 02RD 02RO	0	1	1.30318188667	217.0	-22.0	None	None	0
2.7	2015_May_17_1408	s	s	7	1	SIC	416	ABS	2	2	10VD 02VO 02VC 02MD 02MO 02MC 02RD 02RO	1	0	1.19997906685	None	None	-109	104	0
2.7	2015_May_17_1408	s	s	7	1	SIC	417	RC	2	1	02VD 09VO 02VC 02MD 02MO 02MC 02RD 02RO	0	1	2.22402095795	196.0	129.0	None	None	0
2.7	2015_May_17_1408	s	s	7	1	SIC	418	RC	1	0	02VD 02VO 02VC 02MD 02MO 09MC 02RD 02RO	1	0	0.964534044266	464.0	306.0	-44	-42	0
2.7	2015_May_17_1408	s	s	7	1	SIC	419	ABS	1	1	02VD 02VO 02VC 02MD 10MO 02MC 02RD 02RO	1	0	0.643977880478	None	None	28	36	0
2.7	2015_May_17_1408	s	s	7	1	SIC	420	ABS	1	0	02VD 02VO 02VC 02MD 02MO 10MC 02RD 02RO	0	1	0.784284830093	None	None	None	None	1
2.7	2015_May_17_1408	s	s	7	1	SIC	421	ABS	0	2	02VD 02VO 02VC 02MD 02MO 02MC 10RD 02RO	1	0	0.882478952408	None	None	-436	-103	0
2.7	2015_May_17_1408	s	s	7	1	SIC	422	RC	0	1	02VD 02VO 02VC 02MD 02MO 02MC 02RD 09RO	0	1	2.05407810211	-105.0	-94.0	None	None	0
2.7	2015_May_17_1408	s	s	7	1	SIC	423	ABS	2	0	02VD 02VO 10VC 02MD 02MO 02MC 02RD 02RO	0	1	0.226615905762	None	None	None	None	1
2.7	2015_May_17_1408	s	s	7	1	SIC	424	ABS	1	2	02VD 02VO 02VC 10MD 02MO 02MC 02RD 02RO	0	1	1.94804978371	None	None	None	None	1
2.7	2015_May_17_1408	s	s	7	1	SIC	425	ABS	2	2	10VD 02VO 02VC 02MD 02MO 02MC 02RD 02RO	1	0	0.830338954926	None	None	139	61	0
2.7	2015_May_17_1408	s	s	7	1	SIC	426	RC	0	2	02VD 02VO 02VC 02MD 02MO 02MC 09RD 02RO	1	0	0.690226078033	412.0	147.0	-84	-318	0
2.7	2015_May_17_1408	s	s	7	1	SIC	427	RC	1	2	02VD 02VO 02VC 09MD 02MO 02MC 02RD 02RO	1	0	1.235227108	341.0	185.0	340	194	1
2.7	2015_May_17_1408	s	s	7	1	SIC	428	RC	2	2	09VD 02VO 02VC 02MD 02MO 02MC 02RD 02RO	1	0	1.22352910042	333.0	394.0	-485	213	0
2.7	2015_May_17_1408	s	s	7	1	SIC	429	RC	2	0	02VD 02VO 09VC 02MD 02MO 02MC 02RD 02RO	1	0	0.912599086761	-358.0	-404.0	-381	4	0
2.7	2015_May_17_1408	s	s	7	1	SIC	430	ABS	2	1	02VD 10VO 02VC 02MD 02MO 02MC 02RD 02RO	0	1	0.328984022141	None	None	None	None	1
2.7	2015_May_17_1408	s	s	7	1	SIC	431	ABS	0	1	02VD 02VO 02VC 02MD 02MO 02MC 02RD 10RO	1	0	5.10262608528	None	None	193	171	0
2.7	2015_May_17_1408	s	s	7	1	SIC	432	RC	1	1	02VD 02VO 02VC 02MD 09MO 02MC 02RD 02RO	1	0	0.819865942001	-318.0	-80.0	155	-53	0
2.7	2015_May_17_1408	s	s	7	1	SIC	433	ABS	2	1	02VD 10VO 02VC 02MD 02MO 02MC 02RD 02RO	1	0	3.14208698273	None	None	-460	313	0
2.7	2015_May_17_1408	s	s	7	1	SIC	434	ABS	1	0	02VD 02VO 02VC 02MD 02MO 10MC 02RD 02RO	0	1	0.912501096725	None	None	None	None	1
2.7	2015_May_17_1408	s	s	7	1	SIC	435	RC	0	1	02VD 02VO 02VC 02MD 02MO 02MC 02RD 09RO	1	0	3.18919110298	515.0	-124.0	509	-122	1
2.7	2015_May_17_1408	s	s	7	1	SIC	436	ABS	1	2	02VD 02VO 02VC 10MD 02MO 02MC 02RD 02RO	1	0	1.40612196922	None	None	-246	58	0
2.7	2015_May_17_1408	s	s	7	1	SIC	437	RC	2	1	02VD 09VO 02VC 02MD 02MO 02MC 02RD 02RO	1	0	1.78847908974	-508.0	-397.0	-155	-167	0
2.7	2015_May_17_1408	s	s	7	1	SIC	438	RC	0	2	02VD 02VO 02VC 02MD 02MO 02MC 09RD 02RO	1	0	1.25599789619	414.0	-258.0	-224	-332	0
2.7	2015_May_17_1408	s	s	7	1	SIC	439	ABS	2	0	02VD 02VO 10VC 02MD 02MO 02MC 02RD 02RO	1	0	1.00652599335	None	None	-258	-271	0
2.7	2015_May_17_1408	s	s	7	1	SIC	440	ABS	0	1	02VD 02VO 02VC 02MD 02MO 02MC 02RD 10RO	1	0	1.82093501091	None	None	-346	39	0
2.7	2015_May_17_1408	s	s	7	1	SIC	441	ABS	2	2	10VD 02VO 02VC 02MD 02MO 02MC 02RD 02RO	1	0	2.08921599388	None	None	-160	326	0
2.7	2015_May_17_1408	s	s	7	1	SIC	442	ABS	1	1	02VD 02VO 02VC 02MD 10MO 02MC 02RD 02RO	1	0	3.94264101982	None	None	501	359	0
2.7	2015_May_17_1408	s	s	7	1	SIC	443	RC	1	1	02VD 02VO 02VC 02MD 09MO 02MC 02RD 02RO	0	1	2.02393507957	350.0	124.0	None	None	0
2.7	2015_May_17_1408	s	s	7	1	SIC	444	RC	2	2	09VD 02VO 02VC 02MD 02MO 02MC 02RD 02RO	1	0	2.74837112427	486.0	378.0	234	-137	0
2.7	2015_May_17_1408	s	s	7	1	SIC	445	RC	1	0	02VD 02VO 02VC 02MD 02MO 09MC 02RD 02RO	1	0	3.30687999725	-226.0	-168.0	214	61	0
2.7	2015_May_17_1408	s	s	7	1	SIC	446	RC	2	0	02VD 02VO 09VC 02MD 02MO 02MC 02RD 02RO	1	0	4.2368221283	-197.0	383.0	504	26	0
2.7	2015_May_17_1408	s	s	7	1	SIC	447	RC	1	2	02VD 02VO 02VC 09MD 02MO 02MC 02RD 02RO	1	0	1.58341097832	-135.0	-362.0	237	246	0
2.7	2015_May_17_1408	s	s	7	1	SIC	448	ABS	0	2	02VD 02VO 02VC 02MD 02MO 02MC 10RD 02RO	1	0	2.14162111282	None	None	-89	357	0
2.7	2015_May_17_1408	s	s	7	1	SIC	449	RC	1	1	02VD 02VO 02VC 02MD 09MO 02MC 02RD 02RO	0	1	1.25368189812	-158.0	-236.0	None	None	0
2.7	2015_May_17_1408	s	s	7	1	SIC	450	RC	0	1	02VD 02VO 02VC 02MD 02MO 02MC 02RD 09RO	1	0	1.06671595573	-476.0	353.0	-179	142	0
2.7	2015_May_17_1408	s	s	7	1	SIC	451	RC	1	0	02VD 02VO 02VC 02MD 02MO 09MC 02RD 02RO	1	0	3.11886692047	509.0	-163.0	-502	286	0
2.7	2015_May_17_1408	s	s	7	1	SIC	452	RC	0	2	02VD 02VO 02VC 02MD 02MO 02MC 09RD 02RO	1	0	1.21846103668	359.0	-71.0	-288	-408	0
2.7	2015_May_17_1408	s	s	7	1	SIC	453	ABS	2	1	02VD 10VO 02VC 02MD 02MO 02MC 02RD 02RO	1	0	1.89443397522	None	None	-422	160	0
2.7	2015_May_17_1408	s	s	7	1	SIC	454	ABS	1	1	02VD 02VO 02VC 02MD 10MO 02MC 02RD 02RO	1	0	0.788006067276	None	None	160	28	0
2.7	2015_May_17_1408	s	s	7	1	SIC	455	ABS	1	0	02VD 02VO 02VC 02MD 02MO 10MC 02RD 02RO	1	0	1.23019599915	None	None	458	51	0
2.7	2015_May_17_1408	s	s	7	1	SIC	456	RC	1	2	02VD 02VO 02VC 09MD 02MO 02MC 02RD 02RO	1	0	1.23535299301	-528.0	-238.0	-522	-236	1
2.7	2015_May_17_1408	s	s	7	1	SIC	457	ABS	2	2	10VD 02VO 02VC 02MD 02MO 02MC 02RD 02RO	1	0	2.15336298943	None	None	-268	379	0
2.7	2015_May_17_1408	s	s	7	1	SIC	458	RC	2	2	09VD 02VO 02VC 02MD 02MO 02MC 02RD 02RO	1	0	3.00083899498	106.0	-380.0	-147	70	0
2.7	2015_May_17_1408	s	s	7	1	SIC	459	RC	2	0	02VD 02VO 09VC 02MD 02MO 02MC 02RD 02RO	0	1	2.29465389252	158.0	-158.0	None	None	0
2.7	2015_May_17_1408	s	s	7	1	SIC	460	ABS	2	0	02VD 02VO 10VC 02MD 02MO 02MC 02RD 02RO	0	1	3.47873902321	None	None	None	None	1
2.7	2015_May_17_1408	s	s	7	1	SIC	461	ABS	1	2	02VD 02VO 02VC 10MD 02MO 02MC 02RD 02RO	1	0	2.30640220642	None	None	-106	398	0
2.7	2015_May_17_1408	s	s	7	1	SIC	462	ABS	0	2	02VD 02VO 02VC 02MD 02MO 02MC 10RD 02RO	1	0	3.89033484459	None	None	-359	409	0
2.7	2015_May_17_1408	s	s	7	1	SIC	463	RC	2	1	02VD 09VO 02VC 02MD 02MO 02MC 02RD 02RO	1	0	1.27058601379	-237.0	-345.0	-94	136	0
2.7	2015_May_17_1408	s	s	7	1	SIC	464	ABS	0	1	02VD 02VO 02VC 02MD 02MO 02MC 02RD 10RO	0	1	2.42422103882	None	None	None	None	1
2.7	2015_May_17_1408	s	s	7	1	SIC	465	RC	1	1	02VD 02VO 02VC 02MD 09MO 02MC 02RD 02RO	0	1	5.07899093628	381.0	-88.0	None	None	0
2.7	2015_May_17_1408	s	s	7	1	SIC	466	RC	2	2	09VD 02VO 02VC 02MD 02MO 02MC 02RD 02RO	0	1	2.30123782158	-318.0	-369.0	None	None	0
2.7	2015_May_17_1408	s	s	7	1	SIC	467	ABS	1	0	02VD 02VO 02VC 02MD 02MO 10MC 02RD 02RO	0	1	2.09448885918	None	None	None	None	1
2.7	2015_May_17_1408	s	s	7	1	SIC	468	RC	2	1	02VD 09VO 02VC 02MD 02MO 02MC 02RD 02RO	1	0	0.997093915939	424.0	-123.0	427	-122	1
2.7	2015_May_17_1408	s	s	7	1	SIC	469	ABS	0	1	02VD 02VO 02VC 02MD 02MO 02MC 02RD 10RO	1	0	3.32528305054	None	None	-435	-108	0
2.7	2015_May_17_1408	s	s	7	1	SIC	470	ABS	1	1	02VD 02VO 02VC 02MD 10MO 02MC 02RD 02RO	1	0	2.57712697983	None	None	38	350	0
2.7	2015_May_17_1408	s	s	7	1	SIC	471	RC	1	0	02VD 02VO 02VC 02MD 02MO 09MC 02RD 02RO	1	0	0.653445005417	97.0	286.0	-7	376	0
2.7	2015_May_17_1408	s	s	7	1	SIC	472	RC	0	2	02VD 02VO 02VC 02MD 02MO 02MC 09RD 02RO	1	0	1.80017709732	317.0	210.0	309	210	1
2.7	2015_May_17_1408	s	s	7	1	SIC	473	RC	1	2	02VD 02VO 02VC 09MD 02MO 02MC 02RD 02RO	0	1	0.50541305542	105.0	-77.0	None	None	0
2.7	2015_May_17_1408	s	s	7	1	SIC	474	ABS	2	2	10VD 02VO 02VC 02MD 02MO 02MC 02RD 02RO	0	1	1.50138807297	None	None	None	None	1
2.7	2015_May_17_1408	s	s	7	1	SIC	475	ABS	1	2	02VD 02VO 02VC 10MD 02MO 02MC 02RD 02RO	1	0	1.7362101078	None	None	-481	-168	0
2.7	2015_May_17_1408	s	s	7	1	SIC	476	ABS	2	0	02VD 02VO 10VC 02MD 02MO 02MC 02RD 02RO	1	0	1.07726097107	None	None	-13	256	0
2.7	2015_May_17_1408	s	s	7	1	SIC	477	ABS	2	1	02VD 10VO 02VC 02MD 02MO 02MC 02RD 02RO	1	0	1.49424386024	None	None	191	-394	0
2.7	2015_May_17_1408	s	s	7	1	SIC	478	RC	2	0	02VD 02VO 09VC 02MD 02MO 02MC 02RD 02RO	0	1	1.18323993683	449.0	-337.0	None	None	0
2.7	2015_May_17_1408	s	s	7	1	SIC	479	ABS	0	2	02VD 02VO 02VC 02MD 02MO 02MC 10RD 02RO	0	1	1.18850016594	None	None	None	None	1
2.7	2015_May_17_1408	s	s	7	1	SIC	480	RC	0	1	02VD 02VO 02VC 02MD 02MO 02MC 02RD 09RO	0	1	1.20674705505	136.0	-82.0	None	None	0
