Version	Date	Stimuli	Method	Subject	Session	Condition	Trial	Target	Channel1	Channel2	Distractors	LMouseButton	RMouseButton	RT	TargetX	TargetY	ResponseX	ResponseY	Correct
2.7	2015_May_22_1341	s	s	7	5	Capacity	1	RC	0	2	15RD 08RO	0	1	3.61971187592	-71.0	1.0	None	None	0
2.7	2015_May_22_1341	s	s	7	5	Capacity	2	ABS	0	1	08RD 16RO	0	1	3.76159620285	None	None	None	None	1
2.7	2015_May_22_1341	s	s	7	5	Capacity	3	RC	0	1	08RD 15RO	1	0	2.51589989662	-500.0	122.0	-500	114	1
2.7	2015_May_22_1341	s	s	7	5	Capacity	4	ABS	0	2	16RD 08RO	0	1	3.25469112396	None	None	None	None	1
2.7	2015_May_22_1341	s	s	7	5	Capacity	5	ABS	0	1	08RD 16RO	0	1	4.16110014915	None	None	None	None	1
2.7	2015_May_22_1341	s	s	7	5	Capacity	6	RC	0	1	08RD 15RO	1	0	4.44935297966	531.0	-116.0	527	-119	1
2.7	2015_May_22_1341	s	s	7	5	Capacity	7	ABS	0	2	16RD 08RO	0	1	2.63600206375	None	None	None	None	1
2.7	2015_May_22_1341	s	s	7	5	Capacity	8	RC	0	2	15RD 08RO	1	0	0.905766963959	29.0	289.0	30	274	1
2.7	2015_May_22_1341	s	s	7	5	Capacity	9	ABS	0	1	08RD 16RO	0	1	3.61298203468	None	None	None	None	1
2.7	2015_May_22_1341	s	s	7	5	Capacity	10	RC	0	2	15RD 08RO	1	0	1.24701809883	-21.0	123.0	-15	120	1
2.7	2015_May_22_1341	s	s	7	5	Capacity	11	RC	0	1	08RD 15RO	1	0	0.811552047729	35.0	-14.0	33	-22	1
2.7	2015_May_22_1341	s	s	7	5	Capacity	12	ABS	0	2	16RD 08RO	0	1	2.27114009857	None	None	None	None	1
2.7	2015_May_22_1341	s	s	7	5	Capacity	13	RC	0	1	08RD 15RO	0	1	3.41327786446	-93.0	-96.0	None	None	0
2.7	2015_May_22_1341	s	s	7	5	Capacity	14	ABS	0	2	16RD 08RO	0	1	1.92455196381	None	None	None	None	1
2.7	2015_May_22_1341	s	s	7	5	Capacity	15	RC	0	2	15RD 08RO	1	0	1.75047087669	503.0	48.0	512	50	1
2.7	2015_May_22_1341	s	s	7	5	Capacity	16	ABS	0	1	08RD 16RO	0	1	2.78897213936	None	None	None	None	1
2.7	2015_May_22_1341	s	s	7	5	Capacity	17	RC	0	1	08RD 15RO	1	0	1.03516697884	154.0	57.0	156	50	1
2.7	2015_May_22_1341	s	s	7	5	Capacity	18	ABS	0	1	08RD 16RO	0	1	2.99530410767	None	None	None	None	1
2.7	2015_May_22_1341	s	s	7	5	Capacity	19	ABS	0	2	16RD 08RO	0	1	1.50090503693	None	None	None	None	1
2.7	2015_May_22_1341	s	s	7	5	Capacity	20	RC	0	2	15RD 08RO	1	0	1.40012407303	-386.0	-153.0	-382	-153	1
2.7	2015_May_22_1341	s	s	7	5	Capacity	21	RC	0	1	08RD 15RO	1	0	1.67081594467	343.0	179.0	342	180	1
2.7	2015_May_22_1341	s	s	7	5	Capacity	22	ABS	0	1	08RD 16RO	0	1	3.61000299454	None	None	None	None	1
2.7	2015_May_22_1341	s	s	7	5	Capacity	23	ABS	0	2	16RD 08RO	0	1	2.44768500328	None	None	None	None	1
2.7	2015_May_22_1341	s	s	7	5	Capacity	24	RC	0	2	15RD 08RO	0	1	2.27832698822	307.0	197.0	None	None	0
2.7	2015_May_22_1341	s	s	7	5	Capacity	25	ABS	0	2	16RD 08RO	0	1	1.97696900368	None	None	None	None	1
2.7	2015_May_22_1341	s	s	7	5	Capacity	26	RC	0	2	15RD 08RO	1	0	2.1534678936	-312.0	-398.0	-304	-393	1
2.7	2015_May_22_1341	s	s	7	5	Capacity	27	ABS	0	1	08RD 16RO	0	1	3.57768011093	None	None	None	None	1
2.7	2015_May_22_1341	s	s	7	5	Capacity	28	RC	0	1	08RD 15RO	1	0	2.60542702675	-390.0	-58.0	-390	-63	1
2.7	2015_May_22_1341	s	s	7	5	Capacity	29	RC	0	1	08RD 15RO	1	0	1.95060777664	-61.0	-173.0	-61	-176	1
2.7	2015_May_22_1341	s	s	7	5	Capacity	30	ABS	0	2	16RD 08RO	0	1	2.24755597115	None	None	None	None	1
2.7	2015_May_22_1341	s	s	7	5	Capacity	31	RC	0	2	15RD 08RO	1	0	0.983746051788	-265.0	309.0	-267	310	1
2.7	2015_May_22_1341	s	s	7	5	Capacity	32	ABS	0	1	08RD 16RO	0	1	3.86837410927	None	None	None	None	1
2.7	2015_May_22_1341	s	s	7	5	Capacity	33	RC	0	2	15RD 08RO	1	0	0.629963159561	-286.0	263.0	-293	260	1
2.7	2015_May_22_1341	s	s	7	5	Capacity	34	RC	0	1	08RD 15RO	1	0	0.635082006454	-161.0	245.0	-160	250	1
2.7	2015_May_22_1341	s	s	7	5	Capacity	35	ABS	0	1	08RD 16RO	0	1	3.91899299622	None	None	None	None	1
2.7	2015_May_22_1341	s	s	7	5	Capacity	36	ABS	0	2	16RD 08RO	0	1	1.76227998734	None	None	None	None	1
2.7	2015_May_22_1341	s	s	7	5	Capacity	37	RC	0	2	15RD 08RO	1	0	1.60731101036	255.0	-50.0	253	-49	1
2.7	2015_May_22_1341	s	s	7	5	Capacity	38	RC	0	1	08RD 15RO	0	1	3.38929510117	2.0	358.0	None	None	0
2.7	2015_May_22_1341	s	s	7	5	Capacity	39	ABS	0	1	08RD 16RO	0	1	3.33046102524	None	None	None	None	1
2.7	2015_May_22_1341	s	s	7	5	Capacity	40	ABS	0	2	16RD 08RO	0	1	2.74192690849	None	None	None	None	1
2.7	2015_May_22_1341	s	s	7	5	Capacity	41	ABS	0	1	08RD 16RO	0	1	3.23631596565	None	None	None	None	1
2.7	2015_May_22_1341	s	s	7	5	Capacity	42	RC	0	1	08RD 15RO	1	0	3.17479705811	277.0	-267.0	282	-272	1
2.7	2015_May_22_1341	s	s	7	5	Capacity	43	ABS	0	2	16RD 08RO	0	1	3.51881694794	None	None	None	None	1
2.7	2015_May_22_1341	s	s	7	5	Capacity	44	RC	0	2	15RD 08RO	1	0	1.34125590324	362.0	315.0	366	313	1
2.7	2015_May_22_1341	s	s	7	5	Capacity	45	RC	0	1	08RD 15RO	1	0	0.924855947495	175.0	155.0	172	163	1
2.7	2015_May_22_1341	s	s	7	5	Capacity	46	RC	0	2	15RD 08RO	1	0	2.37154889107	236.0	-351.0	240	-356	1
2.7	2015_May_22_1341	s	s	7	5	Capacity	47	ABS	0	2	16RD 08RO	0	1	2.441229105	None	None	None	None	1
2.7	2015_May_22_1341	s	s	7	5	Capacity	48	ABS	0	1	08RD 16RO	0	1	2.61252713203	None	None	None	None	1
2.7	2015_May_22_1341	s	s	7	5	Capacity	49	RC	0	2	15RD 08RO	1	0	2.73012113571	-459.0	-391.0	-467	-388	1
2.7	2015_May_22_1341	s	s	7	5	Capacity	50	ABS	0	2	16RD 08RO	0	1	2.78377509117	None	None	None	None	1
2.7	2015_May_22_1341	s	s	7	5	Capacity	51	RC	0	1	08RD 15RO	1	0	2.20046305656	-35.0	-127.0	-38	-130	1
2.7	2015_May_22_1341	s	s	7	5	Capacity	52	ABS	0	1	08RD 16RO	0	1	4.41990804672	None	None	None	None	1
2.7	2015_May_22_1341	s	s	7	5	Capacity	53	ABS	0	2	16RD 08RO	0	1	2.55344009399	None	None	None	None	1
2.7	2015_May_22_1341	s	s	7	5	Capacity	54	RC	0	2	15RD 08RO	1	0	1.26561999321	79.0	264.0	80	265	1
2.7	2015_May_22_1341	s	s	7	5	Capacity	55	ABS	0	1	08RD 16RO	0	1	3.90764307976	None	None	None	None	1
2.7	2015_May_22_1341	s	s	7	5	Capacity	56	RC	0	1	08RD 15RO	1	0	0.733172178268	-304.0	343.0	-306	337	1
2.7	2015_May_22_1341	s	s	7	5	Capacity	57	ABS	0	2	16RD 08RO	0	1	2.4071187973	None	None	None	None	1
2.7	2015_May_22_1341	s	s	7	5	Capacity	58	RC	0	1	08RD 15RO	1	0	2.77227497101	-35.0	-409.0	-33	-409	1
2.7	2015_May_22_1341	s	s	7	5	Capacity	59	RC	0	2	15RD 08RO	1	0	1.91796398163	-77.0	-141.0	-74	-143	1
2.7	2015_May_22_1341	s	s	7	5	Capacity	60	ABS	0	1	08RD 16RO	0	1	2.50653815269	None	None	None	None	1
2.7	2015_May_22_1341	s	s	7	5	Capacity	61	RC	0	1	08RD 15RO	1	0	2.1534049511	-336.0	-308.0	-326	-309	1
2.7	2015_May_22_1341	s	s	7	5	Capacity	62	RC	0	2	15RD 08RO	1	0	1.20013713837	-199.0	166.0	-194	172	1
2.7	2015_May_22_1341	s	s	7	5	Capacity	63	ABS	0	2	16RD 08RO	0	1	1.99697804451	None	None	None	None	1
2.7	2015_May_22_1341	s	s	7	5	Capacity	64	ABS	0	1	08RD 16RO	0	1	4.91469597816	None	None	None	None	1
2.7	2015_May_22_1341	s	s	7	5	Capacity	1	ABS	1	0	08VC 16MC	0	1	4.65609312057	None	None	None	None	1
2.7	2015_May_22_1341	s	s	7	5	Capacity	2	RC	2	0	15VC 08MC	1	0	1.02770495415	39.0	-50.0	37	-57	1
2.7	2015_May_22_1341	s	s	7	5	Capacity	3	ABS	2	0	16VC 08MC	0	1	3.57243299484	None	None	None	None	1
2.7	2015_May_22_1341	s	s	7	5	Capacity	4	RC	1	0	08VC 15MC	1	0	0.818520069122	-538.0	-45.0	-531	-52	1
2.7	2015_May_22_1341	s	s	7	5	Capacity	5	ABS	2	0	16VC 08MC	0	1	2.69189405441	None	None	None	None	1
2.7	2015_May_22_1341	s	s	7	5	Capacity	6	RC	1	0	08VC 15MC	1	0	0.606564998627	-340.0	117.0	-334	108	1
2.7	2015_May_22_1341	s	s	7	5	Capacity	7	RC	2	0	15VC 08MC	1	0	0.831630945206	97.0	-205.0	86	-199	1
2.7	2015_May_22_1341	s	s	7	5	Capacity	8	ABS	1	0	08VC 16MC	0	1	2.3485019207	None	None	None	None	1
2.7	2015_May_22_1341	s	s	7	5	Capacity	9	RC	2	0	15VC 08MC	1	0	2.70185899734	-528.0	-393.0	-536	-393	1
2.7	2015_May_22_1341	s	s	7	5	Capacity	10	RC	1	0	08VC 15MC	1	0	1.16836595535	-112.0	-342.0	-104	-342	1
2.7	2015_May_22_1341	s	s	7	5	Capacity	11	ABS	2	0	16VC 08MC	0	1	2.60072278976	None	None	None	None	1
2.7	2015_May_22_1341	s	s	7	5	Capacity	12	ABS	1	0	08VC 16MC	0	1	2.22397994995	None	None	None	None	1
2.7	2015_May_22_1341	s	s	7	5	Capacity	13	ABS	2	0	16VC 08MC	0	1	1.59698700905	None	None	None	None	1
2.7	2015_May_22_1341	s	s	7	5	Capacity	14	ABS	1	0	08VC 16MC	0	1	2.9865219593	None	None	None	None	1
2.7	2015_May_22_1341	s	s	7	5	Capacity	15	RC	2	0	15VC 08MC	1	0	0.878763198853	-521.0	272.0	-519	274	1
2.7	2015_May_22_1341	s	s	7	5	Capacity	16	RC	1	0	08VC 15MC	1	0	0.481967926025	-351.0	176.0	-351	180	1
2.7	2015_May_22_1341	s	s	7	5	Capacity	17	RC	1	0	08VC 15MC	1	0	1.68024396896	375.0	-84.0	380	-82	1
2.7	2015_May_22_1341	s	s	7	5	Capacity	18	ABS	2	0	16VC 08MC	1	0	1.96010398865	None	None	89	363	0
2.7	2015_May_22_1341	s	s	7	5	Capacity	19	ABS	1	0	08VC 16MC	0	1	2.53020501137	None	None	None	None	1
2.7	2015_May_22_1341	s	s	7	5	Capacity	20	RC	2	0	15VC 08MC	1	0	0.670732021332	-1.0	253.0	4	249	1
2.7	2015_May_22_1341	s	s	7	5	Capacity	21	ABS	2	0	16VC 08MC	0	1	2.1063170433	None	None	None	None	1
2.7	2015_May_22_1341	s	s	7	5	Capacity	22	RC	1	0	08VC 15MC	1	0	1.03519797325	385.0	19.0	378	16	1
2.7	2015_May_22_1341	s	s	7	5	Capacity	23	RC	2	0	15VC 08MC	1	0	0.712614059448	-445.0	-74.0	-435	-75	1
2.7	2015_May_22_1341	s	s	7	5	Capacity	24	ABS	1	0	08VC 16MC	0	1	2.69487810135	None	None	None	None	1
2.7	2015_May_22_1341	s	s	7	5	Capacity	25	RC	1	0	08VC 15MC	1	0	0.629945993423	-537.0	-142.0	-538	-145	1
2.7	2015_May_22_1341	s	s	7	5	Capacity	26	RC	2	0	15VC 08MC	1	0	0.512191057205	-128.0	-22.0	-123	-26	1
2.7	2015_May_22_1341	s	s	7	5	Capacity	27	ABS	2	0	16VC 08MC	1	0	1.35289001465	None	None	286	-51	0
2.7	2015_May_22_1341	s	s	7	5	Capacity	28	ABS	1	0	08VC 16MC	0	1	2.46777892113	None	None	None	None	1
2.7	2015_May_22_1341	s	s	7	5	Capacity	29	ABS	2	0	16VC 08MC	0	1	3.17740893364	None	None	None	None	1
2.7	2015_May_22_1341	s	s	7	5	Capacity	30	RC	2	0	15VC 08MC	1	0	0.764457941055	-395.0	378.0	-398	372	1
2.7	2015_May_22_1341	s	s	7	5	Capacity	31	ABS	1	0	08VC 16MC	0	1	1.32425999641	None	None	None	None	1
2.7	2015_May_22_1341	s	s	7	5	Capacity	32	RC	1	0	08VC 15MC	1	0	1.17163395882	-536.0	-53.0	-529	-55	1
2.7	2015_May_22_1341	s	s	7	5	Capacity	33	ABS	1	0	08VC 16MC	0	1	2.79593586922	None	None	None	None	1
2.7	2015_May_22_1341	s	s	7	5	Capacity	34	ABS	2	0	16VC 08MC	1	0	0.726570129395	None	None	-296	408	0
2.7	2015_May_22_1341	s	s	7	5	Capacity	35	RC	2	0	15VC 08MC	1	0	0.858639001846	-24.0	-381.0	-17	-382	1
2.7	2015_May_22_1341	s	s	7	5	Capacity	36	RC	1	0	08VC 15MC	1	0	0.889143943787	-419.0	167.0	-411	169	1
2.7	2015_May_22_1341	s	s	7	5	Capacity	37	RC	2	0	15VC 08MC	1	0	0.441720962524	-284.0	209.0	-292	211	1
2.7	2015_May_22_1341	s	s	7	5	Capacity	38	RC	1	0	08VC 15MC	1	0	0.870592832565	355.0	332.0	-329	-178	0
2.7	2015_May_22_1341	s	s	7	5	Capacity	39	ABS	1	0	08VC 16MC	0	1	2.40060186386	None	None	None	None	1
2.7	2015_May_22_1341	s	s	7	5	Capacity	40	ABS	2	0	16VC 08MC	0	1	1.8420419693	None	None	None	None	1
2.7	2015_May_22_1341	s	s	7	5	Capacity	41	ABS	2	0	16VC 08MC	0	1	1.91835284233	None	None	None	None	1
2.7	2015_May_22_1341	s	s	7	5	Capacity	42	RC	1	0	08VC 15MC	1	0	1.34811615944	8.0	-322.0	4	-318	1
2.7	2015_May_22_1341	s	s	7	5	Capacity	43	RC	2	0	15VC 08MC	1	0	0.488647937775	-289.0	354.0	-282	355	1
2.7	2015_May_22_1341	s	s	7	5	Capacity	44	ABS	1	0	08VC 16MC	0	1	2.32989406586	None	None	None	None	1
2.7	2015_May_22_1341	s	s	7	5	Capacity	45	RC	2	0	15VC 08MC	1	0	0.623245000839	-309.0	-45.0	-308	-45	1
2.7	2015_May_22_1341	s	s	7	5	Capacity	46	ABS	2	0	16VC 08MC	1	0	1.72469210625	None	None	428	-90	0
2.7	2015_May_22_1341	s	s	7	5	Capacity	47	ABS	1	0	08VC 16MC	0	1	1.74819803238	None	None	None	None	1
2.7	2015_May_22_1341	s	s	7	5	Capacity	48	RC	1	0	08VC 15MC	1	0	1.00648403168	116.0	128.0	117	128	1
2.7	2015_May_22_1341	s	s	7	5	Capacity	49	ABS	2	0	16VC 08MC	0	1	1.65554285049	None	None	None	None	1
2.7	2015_May_22_1341	s	s	7	5	Capacity	50	RC	1	0	08VC 15MC	1	0	0.852918148041	62.0	235.0	55	238	1
2.7	2015_May_22_1341	s	s	7	5	Capacity	51	ABS	1	0	08VC 16MC	0	1	2.76065301895	None	None	None	None	1
2.7	2015_May_22_1341	s	s	7	5	Capacity	52	RC	2	0	15VC 08MC	1	0	0.626945018768	-168.0	307.0	-172	304	1
2.7	2015_May_22_1341	s	s	7	5	Capacity	53	ABS	2	0	16VC 08MC	0	1	2.1298930645	None	None	None	None	1
2.7	2015_May_22_1341	s	s	7	5	Capacity	54	RC	2	0	15VC 08MC	1	0	1.48978900909	126.0	-400.0	131	-395	1
2.7	2015_May_22_1341	s	s	7	5	Capacity	55	ABS	1	0	08VC 16MC	0	1	1.81573081017	None	None	None	None	1
2.7	2015_May_22_1341	s	s	7	5	Capacity	56	RC	1	0	08VC 15MC	1	0	0.89395403862	223.0	358.0	217	352	1
2.7	2015_May_22_1341	s	s	7	5	Capacity	57	RC	1	0	08VC 15MC	1	0	0.717353105545	-124.0	74.0	-115	79	1
2.7	2015_May_22_1341	s	s	7	5	Capacity	58	RC	2	0	15VC 08MC	1	0	0.912896871567	246.0	21.0	244	22	1
2.7	2015_May_22_1341	s	s	7	5	Capacity	59	ABS	2	0	16VC 08MC	0	1	2.08992195129	None	None	None	None	1
2.7	2015_May_22_1341	s	s	7	5	Capacity	60	ABS	1	0	08VC 16MC	0	1	2.27800297737	None	None	None	None	1
2.7	2015_May_22_1341	s	s	7	5	Capacity	61	RC	2	0	15VC 08MC	1	0	0.788064002991	297.0	-28.0	290	-32	1
2.7	2015_May_22_1341	s	s	7	5	Capacity	62	RC	1	0	08VC 15MC	1	0	1.31767606735	310.0	-203.0	301	-195	1
2.7	2015_May_22_1341	s	s	7	5	Capacity	63	ABS	1	0	08VC 16MC	0	1	1.83189201355	None	None	None	None	1
2.7	2015_May_22_1341	s	s	7	5	Capacity	64	ABS	2	0	16VC 08MC	0	1	2.02021002769	None	None	None	None	1
2.7	2015_May_22_1341	s	s	7	5	SIC	1	ABS	1	2	02VD 02VO 02VC 10MD 02MO 02MC 02RD 02RO	0	1	1.85383605957	None	None	None	None	1
2.7	2015_May_22_1341	s	s	7	5	SIC	2	ABS	1	0	02VD 02VO 02VC 02MD 02MO 10MC 02RD 02RO	0	1	2.17059397697	None	None	None	None	1
2.7	2015_May_22_1341	s	s	7	5	SIC	3	RC	1	2	02VD 02VO 02VC 09MD 02MO 02MC 02RD 02RO	1	0	0.776062011719	-97.0	181.0	-105	176	1
2.7	2015_May_22_1341	s	s	7	5	SIC	4	RC	1	1	02VD 02VO 02VC 02MD 09MO 02MC 02RD 02RO	1	0	1.69182991982	267.0	357.0	263	355	1
2.7	2015_May_22_1341	s	s	7	5	SIC	5	ABS	2	2	10VD 02VO 02VC 02MD 02MO 02MC 02RD 02RO	0	1	1.5481171608	None	None	None	None	1
2.7	2015_May_22_1341	s	s	7	5	SIC	6	ABS	1	1	02VD 02VO 02VC 02MD 10MO 02MC 02RD 02RO	0	1	2.31555199623	None	None	None	None	1
2.7	2015_May_22_1341	s	s	7	5	SIC	7	RC	2	1	02VD 09VO 02VC 02MD 02MO 02MC 02RD 02RO	1	0	2.03241610527	-531.0	221.0	-531	229	1
2.7	2015_May_22_1341	s	s	7	5	SIC	8	ABS	2	0	02VD 02VO 10VC 02MD 02MO 02MC 02RD 02RO	0	1	2.28980922699	None	None	None	None	1
2.7	2015_May_22_1341	s	s	7	5	SIC	9	ABS	0	1	02VD 02VO 02VC 02MD 02MO 02MC 02RD 10RO	0	1	3.29001784325	None	None	None	None	1
2.7	2015_May_22_1341	s	s	7	5	SIC	10	ABS	0	2	02VD 02VO 02VC 02MD 02MO 02MC 10RD 02RO	0	1	1.37647008896	None	None	None	None	1
2.7	2015_May_22_1341	s	s	7	5	SIC	11	RC	1	0	02VD 02VO 02VC 02MD 02MO 09MC 02RD 02RO	1	0	1.68659210205	531.0	142.0	529	143	1
2.7	2015_May_22_1341	s	s	7	5	SIC	12	RC	2	0	02VD 02VO 09VC 02MD 02MO 02MC 02RD 02RO	1	0	1.24190211296	316.0	-197.0	312	-192	1
2.7	2015_May_22_1341	s	s	7	5	SIC	13	RC	0	1	02VD 02VO 02VC 02MD 02MO 02MC 02RD 09RO	1	0	1.34818506241	-317.0	-301.0	-323	-302	1
2.7	2015_May_22_1341	s	s	7	5	SIC	14	RC	0	2	02VD 02VO 02VC 02MD 02MO 02MC 09RD 02RO	1	0	1.13584208488	-531.0	278.0	-526	283	1
2.7	2015_May_22_1341	s	s	7	5	SIC	15	ABS	2	1	02VD 10VO 02VC 02MD 02MO 02MC 02RD 02RO	0	1	1.37151694298	None	None	None	None	1
2.7	2015_May_22_1341	s	s	7	5	SIC	16	RC	2	2	09VD 02VO 02VC 02MD 02MO 02MC 02RD 02RO	1	0	0.658914089203	280.0	96.0	277	100	1
2.7	2015_May_22_1341	s	s	7	5	SIC	17	ABS	1	2	02VD 02VO 02VC 10MD 02MO 02MC 02RD 02RO	0	1	2.11315011978	None	None	None	None	1
2.7	2015_May_22_1341	s	s	7	5	SIC	18	RC	2	1	02VD 09VO 02VC 02MD 02MO 02MC 02RD 02RO	1	0	1.18320608139	-69.0	-224.0	-68	-223	1
2.7	2015_May_22_1341	s	s	7	5	SIC	19	ABS	2	2	10VD 02VO 02VC 02MD 02MO 02MC 02RD 02RO	0	1	2.383425951	None	None	None	None	1
2.7	2015_May_22_1341	s	s	7	5	SIC	20	RC	0	2	02VD 02VO 02VC 02MD 02MO 02MC 09RD 02RO	1	0	1.38400292397	394.0	246.0	387	246	1
2.7	2015_May_22_1341	s	s	7	5	SIC	21	RC	2	0	02VD 02VO 09VC 02MD 02MO 02MC 02RD 02RO	1	0	0.752696990967	-203.0	373.0	-205	370	1
2.7	2015_May_22_1341	s	s	7	5	SIC	22	ABS	1	0	02VD 02VO 02VC 02MD 02MO 10MC 02RD 02RO	0	1	1.94848108292	None	None	None	None	1
2.7	2015_May_22_1341	s	s	7	5	SIC	23	RC	1	1	02VD 02VO 02VC 02MD 09MO 02MC 02RD 02RO	1	0	0.83180809021	-492.0	318.0	-476	327	1
2.7	2015_May_22_1341	s	s	7	5	SIC	24	RC	1	2	02VD 02VO 02VC 09MD 02MO 02MC 02RD 02RO	1	0	1.31272506714	188.0	-202.0	190	-205	1
2.7	2015_May_22_1341	s	s	7	5	SIC	25	ABS	2	1	02VD 10VO 02VC 02MD 02MO 02MC 02RD 02RO	0	1	1.76149201393	None	None	None	None	1
2.7	2015_May_22_1341	s	s	7	5	SIC	26	ABS	1	1	02VD 02VO 02VC 02MD 10MO 02MC 02RD 02RO	0	1	1.65553498268	None	None	None	None	1
2.7	2015_May_22_1341	s	s	7	5	SIC	27	ABS	2	0	02VD 02VO 10VC 02MD 02MO 02MC 02RD 02RO	0	1	1.44752907753	None	None	None	None	1
2.7	2015_May_22_1341	s	s	7	5	SIC	28	ABS	0	1	02VD 02VO 02VC 02MD 02MO 02MC 02RD 10RO	0	1	3.93988704681	None	None	None	None	1
2.7	2015_May_22_1341	s	s	7	5	SIC	29	ABS	0	2	02VD 02VO 02VC 02MD 02MO 02MC 10RD 02RO	0	1	1.90620589256	None	None	None	None	1
2.7	2015_May_22_1341	s	s	7	5	SIC	30	RC	1	0	02VD 02VO 02VC 02MD 02MO 09MC 02RD 02RO	1	0	1.01163101196	-453.0	126.0	-451	130	1
2.7	2015_May_22_1341	s	s	7	5	SIC	31	RC	0	1	02VD 02VO 02VC 02MD 02MO 02MC 02RD 09RO	1	0	1.17143893242	23.0	119.0	29	120	1
2.7	2015_May_22_1341	s	s	7	5	SIC	32	RC	2	2	09VD 02VO 02VC 02MD 02MO 02MC 02RD 02RO	1	0	3.7844312191	209.0	-288.0	217	-283	1
2.7	2015_May_22_1341	s	s	7	5	SIC	33	RC	2	0	02VD 02VO 09VC 02MD 02MO 02MC 02RD 02RO	1	0	0.912311077118	-187.0	290.0	-196	288	1
2.7	2015_May_22_1341	s	s	7	5	SIC	34	RC	0	1	02VD 02VO 02VC 02MD 02MO 02MC 02RD 09RO	1	0	0.899151086807	-377.0	135.0	-379	139	1
2.7	2015_May_22_1341	s	s	7	5	SIC	35	RC	1	2	02VD 02VO 02VC 09MD 02MO 02MC 02RD 02RO	1	0	2.03038406372	292.0	190.0	293	188	1
2.7	2015_May_22_1341	s	s	7	5	SIC	36	RC	1	0	02VD 02VO 02VC 02MD 02MO 09MC 02RD 02RO	1	0	0.679620027542	-410.0	-99.0	-411	-103	1
2.7	2015_May_22_1341	s	s	7	5	SIC	37	ABS	1	1	02VD 02VO 02VC 02MD 10MO 02MC 02RD 02RO	1	0	1.88637804985	None	None	100	92	0
2.7	2015_May_22_1341	s	s	7	5	SIC	38	RC	0	2	02VD 02VO 02VC 02MD 02MO 02MC 09RD 02RO	1	0	1.6306040287	-179.0	-339.0	-168	-332	1
2.7	2015_May_22_1341	s	s	7	5	SIC	39	ABS	2	0	02VD 02VO 10VC 02MD 02MO 02MC 02RD 02RO	0	1	1.83002305031	None	None	None	None	1
2.7	2015_May_22_1341	s	s	7	5	SIC	40	RC	1	1	02VD 02VO 02VC 02MD 09MO 02MC 02RD 02RO	1	0	1.17633795738	17.0	212.0	9	208	1
2.7	2015_May_22_1341	s	s	7	5	SIC	41	ABS	2	2	10VD 02VO 02VC 02MD 02MO 02MC 02RD 02RO	0	1	1.62107801437	None	None	None	None	1
2.7	2015_May_22_1341	s	s	7	5	SIC	42	RC	2	1	02VD 09VO 02VC 02MD 02MO 02MC 02RD 02RO	1	0	1.41176009178	139.0	-269.0	140	-269	1
2.7	2015_May_22_1341	s	s	7	5	SIC	43	RC	2	2	09VD 02VO 02VC 02MD 02MO 02MC 02RD 02RO	1	0	0.662117958069	-295.0	46.0	-290	42	1
2.7	2015_May_22_1341	s	s	7	5	SIC	44	ABS	0	1	02VD 02VO 02VC 02MD 02MO 02MC 02RD 10RO	0	1	4.03671693802	None	None	None	None	1
2.7	2015_May_22_1341	s	s	7	5	SIC	45	ABS	1	0	02VD 02VO 02VC 02MD 02MO 10MC 02RD 02RO	0	1	2.34851121902	None	None	None	None	1
2.7	2015_May_22_1341	s	s	7	5	SIC	46	ABS	1	2	02VD 02VO 02VC 10MD 02MO 02MC 02RD 02RO	0	1	1.67759490013	None	None	None	None	1
2.7	2015_May_22_1341	s	s	7	5	SIC	47	ABS	2	1	02VD 10VO 02VC 02MD 02MO 02MC 02RD 02RO	0	1	1.56485581398	None	None	None	None	1
2.7	2015_May_22_1341	s	s	7	5	SIC	48	ABS	0	2	02VD 02VO 02VC 02MD 02MO 02MC 10RD 02RO	0	1	1.72967600822	None	None	None	None	1
2.7	2015_May_22_1341	s	s	7	5	SIC	49	RC	1	0	02VD 02VO 02VC 02MD 02MO 09MC 02RD 02RO	1	0	0.964585065842	182.0	-15.0	180	-15	1
2.7	2015_May_22_1341	s	s	7	5	SIC	50	RC	2	0	02VD 02VO 09VC 02MD 02MO 02MC 02RD 02RO	1	0	0.804147958755	222.0	287.0	223	287	1
2.7	2015_May_22_1341	s	s	7	5	SIC	51	RC	2	2	09VD 02VO 02VC 02MD 02MO 02MC 02RD 02RO	1	0	0.56812620163	-164.0	42.0	-163	39	1
2.7	2015_May_22_1341	s	s	7	5	SIC	52	ABS	2	2	10VD 02VO 02VC 02MD 02MO 02MC 02RD 02RO	0	1	1.2443318367	None	None	None	None	1
2.7	2015_May_22_1341	s	s	7	5	SIC	53	RC	0	2	02VD 02VO 02VC 02MD 02MO 02MC 09RD 02RO	1	0	1.37657094002	447.0	-84.0	440	-81	1
2.7	2015_May_22_1341	s	s	7	5	SIC	54	ABS	2	0	02VD 02VO 10VC 02MD 02MO 02MC 02RD 02RO	1	0	0.929271936417	None	None	-393	250	0
2.7	2015_May_22_1341	s	s	7	5	SIC	55	RC	0	1	02VD 02VO 02VC 02MD 02MO 02MC 02RD 09RO	1	0	3.22446489334	-162.0	-109.0	-152	-106	1
2.7	2015_May_22_1341	s	s	7	5	SIC	56	ABS	1	0	02VD 02VO 02VC 02MD 02MO 10MC 02RD 02RO	0	1	2.4428460598	None	None	None	None	1
2.7	2015_May_22_1341	s	s	7	5	SIC	57	ABS	2	1	02VD 10VO 02VC 02MD 02MO 02MC 02RD 02RO	0	1	1.64725112915	None	None	None	None	1
2.7	2015_May_22_1341	s	s	7	5	SIC	58	RC	1	1	02VD 02VO 02VC 02MD 09MO 02MC 02RD 02RO	1	0	1.80077195168	186.0	-337.0	195	-337	1
2.7	2015_May_22_1341	s	s	7	5	SIC	59	ABS	1	1	02VD 02VO 02VC 02MD 10MO 02MC 02RD 02RO	0	1	1.65595698357	None	None	None	None	1
2.7	2015_May_22_1341	s	s	7	5	SIC	60	ABS	0	2	02VD 02VO 02VC 02MD 02MO 02MC 10RD 02RO	0	1	1.62361097336	None	None	None	None	1
2.7	2015_May_22_1341	s	s	7	5	SIC	61	RC	2	1	02VD 09VO 02VC 02MD 02MO 02MC 02RD 02RO	1	0	1.31284499168	119.0	-194.0	120	-196	1
2.7	2015_May_22_1341	s	s	7	5	SIC	62	ABS	1	2	02VD 02VO 02VC 10MD 02MO 02MC 02RD 02RO	0	1	1.42353820801	None	None	None	None	1
2.7	2015_May_22_1341	s	s	7	5	SIC	63	ABS	0	1	02VD 02VO 02VC 02MD 02MO 02MC 02RD 10RO	0	1	2.96557807922	None	None	None	None	1
2.7	2015_May_22_1341	s	s	7	5	SIC	64	RC	1	2	02VD 02VO 02VC 09MD 02MO 02MC 02RD 02RO	1	0	1.76233410835	496.0	-151.0	492	-146	1
2.7	2015_May_22_1341	s	s	7	5	SIC	65	ABS	1	2	02VD 02VO 02VC 10MD 02MO 02MC 02RD 02RO	0	1	1.135887146	None	None	None	None	1
2.7	2015_May_22_1341	s	s	7	5	SIC	66	RC	1	2	02VD 02VO 02VC 09MD 02MO 02MC 02RD 02RO	1	0	1.28928399086	-316.0	-216.0	-311	-219	1
2.7	2015_May_22_1341	s	s	7	5	SIC	67	RC	1	0	02VD 02VO 02VC 02MD 02MO 09MC 02RD 02RO	1	0	1.23523783684	-426.0	-165.0	-429	-167	1
2.7	2015_May_22_1341	s	s	7	5	SIC	68	ABS	2	1	02VD 10VO 02VC 02MD 02MO 02MC 02RD 02RO	1	0	0.564721822739	None	None	-306	141	0
2.7	2015_May_22_1341	s	s	7	5	SIC	69	ABS	0	1	02VD 02VO 02VC 02MD 02MO 02MC 02RD 10RO	0	1	3.17445397377	None	None	None	None	1
2.7	2015_May_22_1341	s	s	7	5	SIC	70	RC	1	1	02VD 02VO 02VC 02MD 09MO 02MC 02RD 02RO	1	0	0.690578937531	-353.0	172.0	-344	171	1
2.7	2015_May_22_1341	s	s	7	5	SIC	71	RC	2	1	02VD 09VO 02VC 02MD 02MO 02MC 02RD 02RO	1	0	1.3370141983	306.0	291.0	298	294	1
2.7	2015_May_22_1341	s	s	7	5	SIC	72	ABS	2	2	10VD 02VO 02VC 02MD 02MO 02MC 02RD 02RO	0	1	2.12728595734	None	None	None	None	1
2.7	2015_May_22_1341	s	s	7	5	SIC	73	RC	0	2	02VD 02VO 02VC 02MD 02MO 02MC 09RD 02RO	1	0	0.976551055908	-39.0	60.0	-42	59	1
2.7	2015_May_22_1341	s	s	7	5	SIC	74	RC	0	1	02VD 02VO 02VC 02MD 02MO 02MC 02RD 09RO	1	0	2.00738716125	-270.0	408.0	-271	400	1
2.7	2015_May_22_1341	s	s	7	5	SIC	75	ABS	1	1	02VD 02VO 02VC 02MD 10MO 02MC 02RD 02RO	1	0	1.74143218994	None	None	441	-61	0
2.7	2015_May_22_1341	s	s	7	5	SIC	76	ABS	2	0	02VD 02VO 10VC 02MD 02MO 02MC 02RD 02RO	0	1	1.54926490784	None	None	None	None	1
2.7	2015_May_22_1341	s	s	7	5	SIC	77	RC	2	0	02VD 02VO 09VC 02MD 02MO 02MC 02RD 02RO	1	0	1.84240102768	-363.0	-351.0	-364	-352	1
2.7	2015_May_22_1341	s	s	7	5	SIC	78	ABS	0	2	02VD 02VO 02VC 02MD 02MO 02MC 10RD 02RO	0	1	2.38405919075	None	None	None	None	1
2.7	2015_May_22_1341	s	s	7	5	SIC	79	RC	2	2	09VD 02VO 02VC 02MD 02MO 02MC 02RD 02RO	1	0	0.937708854675	-204.0	260.0	-203	258	1
2.7	2015_May_22_1341	s	s	7	5	SIC	80	ABS	1	0	02VD 02VO 02VC 02MD 02MO 10MC 02RD 02RO	0	1	2.57708501816	None	None	None	None	1
2.7	2015_May_22_1341	s	s	7	5	SIC	81	RC	1	1	02VD 02VO 02VC 02MD 09MO 02MC 02RD 02RO	0	1	3.22454190254	118.0	167.0	None	None	0
2.7	2015_May_22_1341	s	s	7	5	SIC	82	RC	2	0	02VD 02VO 09VC 02MD 02MO 02MC 02RD 02RO	1	0	2.01897597313	-348.0	-140.0	-357	-139	1
2.7	2015_May_22_1341	s	s	7	5	SIC	83	ABS	2	1	02VD 10VO 02VC 02MD 02MO 02MC 02RD 02RO	0	1	3.19478106499	None	None	None	None	1
2.7	2015_May_22_1341	s	s	7	5	SIC	84	RC	0	2	02VD 02VO 02VC 02MD 02MO 02MC 09RD 02RO	1	0	1.59536099434	309.0	-197.0	300	-200	1
2.7	2015_May_22_1341	s	s	7	5	SIC	85	RC	2	2	09VD 02VO 02VC 02MD 02MO 02MC 02RD 02RO	1	0	1.6038479805	-220.0	403.0	-216	394	1
2.7	2015_May_22_1341	s	s	7	5	SIC	86	ABS	1	0	02VD 02VO 02VC 02MD 02MO 10MC 02RD 02RO	0	1	3.07136106491	None	None	None	None	1
2.7	2015_May_22_1341	s	s	7	5	SIC	87	RC	1	0	02VD 02VO 02VC 02MD 02MO 09MC 02RD 02RO	1	0	0.835118055344	-24.0	272.0	-19	264	1
2.7	2015_May_22_1341	s	s	7	5	SIC	88	RC	0	1	02VD 02VO 02VC 02MD 02MO 02MC 02RD 09RO	0	1	3.84189391136	471.0	-348.0	None	None	0
2.7	2015_May_22_1341	s	s	7	5	SIC	89	ABS	1	2	02VD 02VO 02VC 10MD 02MO 02MC 02RD 02RO	0	1	2.25940489769	None	None	None	None	1
2.7	2015_May_22_1341	s	s	7	5	SIC	90	ABS	0	1	02VD 02VO 02VC 02MD 02MO 02MC 02RD 10RO	0	1	3.39622712135	None	None	None	None	1
2.7	2015_May_22_1341	s	s	7	5	SIC	91	ABS	1	1	02VD 02VO 02VC 02MD 10MO 02MC 02RD 02RO	0	1	2.96548509598	None	None	None	None	1
2.7	2015_May_22_1341	s	s	7	5	SIC	92	RC	1	2	02VD 02VO 02VC 09MD 02MO 02MC 02RD 02RO	1	0	1.18822407722	-304.0	-249.0	-298	-252	1
2.7	2015_May_22_1341	s	s	7	5	SIC	93	ABS	0	2	02VD 02VO 02VC 02MD 02MO 02MC 10RD 02RO	0	1	2.05420780182	None	None	None	None	1
2.7	2015_May_22_1341	s	s	7	5	SIC	94	ABS	2	2	10VD 02VO 02VC 02MD 02MO 02MC 02RD 02RO	0	1	1.35976290703	None	None	None	None	1
2.7	2015_May_22_1341	s	s	7	5	SIC	95	ABS	2	0	02VD 02VO 10VC 02MD 02MO 02MC 02RD 02RO	0	1	1.53603196144	None	None	None	None	1
2.7	2015_May_22_1341	s	s	7	5	SIC	96	RC	2	1	02VD 09VO 02VC 02MD 02MO 02MC 02RD 02RO	1	0	1.76538801193	511.0	301.0	504	299	1
2.7	2015_May_22_1341	s	s	7	5	SIC	97	ABS	2	1	02VD 10VO 02VC 02MD 02MO 02MC 02RD 02RO	0	1	1.7833468914	None	None	None	None	1
2.7	2015_May_22_1341	s	s	7	5	SIC	98	RC	2	2	09VD 02VO 02VC 02MD 02MO 02MC 02RD 02RO	1	0	2.12983298302	-540.0	-67.0	-536	-57	1
2.7	2015_May_22_1341	s	s	7	5	SIC	99	ABS	1	2	02VD 02VO 02VC 10MD 02MO 02MC 02RD 02RO	0	1	2.61919403076	None	None	None	None	1
2.7	2015_May_22_1341	s	s	7	5	SIC	100	ABS	0	1	02VD 02VO 02VC 02MD 02MO 02MC 02RD 10RO	0	1	2.64772510529	None	None	None	None	1
2.7	2015_May_22_1341	s	s	7	5	SIC	101	RC	1	2	02VD 02VO 02VC 09MD 02MO 02MC 02RD 02RO	1	0	0.959364891052	-266.0	96.0	-258	93	1
2.7	2015_May_22_1341	s	s	7	5	SIC	102	RC	2	1	02VD 09VO 02VC 02MD 02MO 02MC 02RD 02RO	1	0	1.64223599434	398.0	145.0	392	143	1
2.7	2015_May_22_1341	s	s	7	5	SIC	103	ABS	2	2	10VD 02VO 02VC 02MD 02MO 02MC 02RD 02RO	0	1	1.56484889984	None	None	None	None	1
2.7	2015_May_22_1341	s	s	7	5	SIC	104	RC	1	1	02VD 02VO 02VC 02MD 09MO 02MC 02RD 02RO	1	0	1.74875688553	348.0	90.0	347	92	1
2.7	2015_May_22_1341	s	s	7	5	SIC	105	RC	0	2	02VD 02VO 02VC 02MD 02MO 02MC 09RD 02RO	1	0	1.80712580681	-377.0	129.0	-388	130	1
2.7	2015_May_22_1341	s	s	7	5	SIC	106	ABS	2	0	02VD 02VO 10VC 02MD 02MO 02MC 02RD 02RO	0	1	1.40690803528	None	None	None	None	1
2.7	2015_May_22_1341	s	s	7	5	SIC	107	RC	1	0	02VD 02VO 02VC 02MD 02MO 09MC 02RD 02RO	0	1	1.19996190071	70.0	103.0	None	None	0
2.7	2015_May_22_1341	s	s	7	5	SIC	108	ABS	1	0	02VD 02VO 02VC 02MD 02MO 10MC 02RD 02RO	0	1	3.18633317947	None	None	None	None	1
2.7	2015_May_22_1341	s	s	7	5	SIC	109	RC	0	1	02VD 02VO 02VC 02MD 02MO 02MC 02RD 09RO	1	0	1.68978214264	-353.0	394.0	-354	392	1
2.7	2015_May_22_1341	s	s	7	5	SIC	110	RC	2	0	02VD 02VO 09VC 02MD 02MO 02MC 02RD 02RO	1	0	1.14789891243	273.0	294.0	276	292	1
2.7	2015_May_22_1341	s	s	7	5	SIC	111	ABS	1	1	02VD 02VO 02VC 02MD 10MO 02MC 02RD 02RO	0	1	1.71789002419	None	None	None	None	1
2.7	2015_May_22_1341	s	s	7	5	SIC	112	ABS	0	2	02VD 02VO 02VC 02MD 02MO 02MC 10RD 02RO	0	1	1.39431118965	None	None	None	None	1
2.7	2015_May_22_1341	s	s	7	5	SIC	113	ABS	0	1	02VD 02VO 02VC 02MD 02MO 02MC 02RD 10RO	0	1	2.7510240078	None	None	None	None	1
2.7	2015_May_22_1341	s	s	7	5	SIC	114	RC	2	2	09VD 02VO 02VC 02MD 02MO 02MC 02RD 02RO	1	0	0.952766895294	218.0	-22.0	215	-12	1
2.7	2015_May_22_1341	s	s	7	5	SIC	115	RC	0	2	02VD 02VO 02VC 02MD 02MO 02MC 09RD 02RO	1	0	0.53582406044	-86.0	147.0	-80	147	1
2.7	2015_May_22_1341	s	s	7	5	SIC	116	ABS	1	0	02VD 02VO 02VC 02MD 02MO 10MC 02RD 02RO	0	1	2.11253499985	None	None	None	None	1
2.7	2015_May_22_1341	s	s	7	5	SIC	117	ABS	2	0	02VD 02VO 10VC 02MD 02MO 02MC 02RD 02RO	0	1	1.35975813866	None	None	None	None	1
2.7	2015_May_22_1341	s	s	7	5	SIC	118	ABS	0	2	02VD 02VO 02VC 02MD 02MO 02MC 10RD 02RO	0	1	1.68830895424	None	None	None	None	1
2.7	2015_May_22_1341	s	s	7	5	SIC	119	RC	2	1	02VD 09VO 02VC 02MD 02MO 02MC 02RD 02RO	1	0	1.9768538475	-421.0	245.0	-418	242	1
2.7	2015_May_22_1341	s	s	7	5	SIC	120	RC	0	1	02VD 02VO 02VC 02MD 02MO 02MC 02RD 09RO	1	0	1.2529001236	-55.0	-68.0	-54	-72	1
2.7	2015_May_22_1341	s	s	7	5	SIC	121	ABS	2	1	02VD 10VO 02VC 02MD 02MO 02MC 02RD 02RO	0	1	1.6209859848	None	None	None	None	1
2.7	2015_May_22_1341	s	s	7	5	SIC	122	RC	1	0	02VD 02VO 02VC 02MD 02MO 09MC 02RD 02RO	1	0	2.41238999367	37.0	-252.0	39	-249	1
2.7	2015_May_22_1341	s	s	7	5	SIC	123	RC	2	0	02VD 02VO 09VC 02MD 02MO 02MC 02RD 02RO	1	0	1.14789295197	47.0	-163.0	35	-156	1
2.7	2015_May_22_1341	s	s	7	5	SIC	124	RC	1	1	02VD 02VO 02VC 02MD 09MO 02MC 02RD 02RO	1	0	0.999897003174	-276.0	-180.0	-274	-182	1
2.7	2015_May_22_1341	s	s	7	5	SIC	125	ABS	1	2	02VD 02VO 02VC 10MD 02MO 02MC 02RD 02RO	0	1	1.81209492683	None	None	None	None	1
2.7	2015_May_22_1341	s	s	7	5	SIC	126	RC	1	2	02VD 02VO 02VC 09MD 02MO 02MC 02RD 02RO	1	0	1.97096586227	333.0	296.0	330	291	1
2.7	2015_May_22_1341	s	s	7	5	SIC	127	ABS	2	2	10VD 02VO 02VC 02MD 02MO 02MC 02RD 02RO	1	0	1.67081093788	None	None	228	-273	0
2.7	2015_May_22_1341	s	s	7	5	SIC	128	ABS	1	1	02VD 02VO 02VC 02MD 10MO 02MC 02RD 02RO	0	1	2.51327610016	None	None	None	None	1
2.7	2015_May_22_1341	s	s	7	5	SIC	129	RC	0	2	02VD 02VO 02VC 02MD 02MO 02MC 09RD 02RO	1	0	2.68291211128	-475.0	-159.0	-483	-160	1
2.7	2015_May_22_1341	s	s	7	5	SIC	130	RC	1	1	02VD 02VO 02VC 02MD 09MO 02MC 02RD 02RO	1	0	1.8422460556	538.0	371.0	529	376	1
2.7	2015_May_22_1341	s	s	7	5	SIC	131	ABS	1	0	02VD 02VO 02VC 02MD 02MO 10MC 02RD 02RO	0	1	2.20048093796	None	None	None	None	1
2.7	2015_May_22_1341	s	s	7	5	SIC	132	ABS	0	2	02VD 02VO 02VC 02MD 02MO 02MC 10RD 02RO	0	1	1.48248100281	None	None	None	None	1
2.7	2015_May_22_1341	s	s	7	5	SIC	133	ABS	1	1	02VD 02VO 02VC 02MD 10MO 02MC 02RD 02RO	0	1	1.54833698273	None	None	None	None	1
2.7	2015_May_22_1341	s	s	7	5	SIC	134	RC	1	2	02VD 02VO 02VC 09MD 02MO 02MC 02RD 02RO	1	0	1.11752080917	368.0	243.0	364	242	1
2.7	2015_May_22_1341	s	s	7	5	SIC	135	RC	1	0	02VD 02VO 02VC 02MD 02MO 09MC 02RD 02RO	1	0	1.04212999344	255.0	111.0	252	107	1
2.7	2015_May_22_1341	s	s	7	5	SIC	136	RC	0	1	02VD 02VO 02VC 02MD 02MO 02MC 02RD 09RO	1	0	1.35990715027	-329.0	-22.0	-336	-27	1
2.7	2015_May_22_1341	s	s	7	5	SIC	137	RC	2	1	02VD 09VO 02VC 02MD 02MO 02MC 02RD 02RO	1	0	1.38828587532	454.0	230.0	452	225	1
2.7	2015_May_22_1341	s	s	7	5	SIC	138	RC	2	0	02VD 02VO 09VC 02MD 02MO 02MC 02RD 02RO	1	0	1.42354607582	-146.0	-159.0	-152	-165	1
2.7	2015_May_22_1341	s	s	7	5	SIC	139	ABS	2	1	02VD 10VO 02VC 02MD 02MO 02MC 02RD 02RO	0	1	2.07733201981	None	None	None	None	1
2.7	2015_May_22_1341	s	s	7	5	SIC	140	ABS	2	2	10VD 02VO 02VC 02MD 02MO 02MC 02RD 02RO	0	1	1.88942098618	None	None	None	None	1
2.7	2015_May_22_1341	s	s	7	5	SIC	141	ABS	0	1	02VD 02VO 02VC 02MD 02MO 02MC 02RD 10RO	0	1	2.80710697174	None	None	None	None	1
2.7	2015_May_22_1341	s	s	7	5	SIC	142	ABS	1	2	02VD 02VO 02VC 10MD 02MO 02MC 02RD 02RO	0	1	1.95329403877	None	None	None	None	1
2.7	2015_May_22_1341	s	s	7	5	SIC	143	RC	2	2	09VD 02VO 02VC 02MD 02MO 02MC 02RD 02RO	1	0	1.32459807396	380.0	254.0	380	254	1
2.7	2015_May_22_1341	s	s	7	5	SIC	144	ABS	2	0	02VD 02VO 10VC 02MD 02MO 02MC 02RD 02RO	0	1	1.82112407684	None	None	None	None	1
2.7	2015_May_22_1341	s	s	7	5	SIC	145	RC	2	2	09VD 02VO 02VC 02MD 02MO 02MC 02RD 02RO	1	0	0.959530830383	-209.0	-143.0	-209	-143	1
2.7	2015_May_22_1341	s	s	7	5	SIC	146	ABS	1	0	02VD 02VO 02VC 02MD 02MO 10MC 02RD 02RO	1	0	1.87095284462	None	None	228	-10	0
2.7	2015_May_22_1341	s	s	7	5	SIC	147	ABS	1	2	02VD 02VO 02VC 10MD 02MO 02MC 02RD 02RO	0	1	2.44765806198	None	None	None	None	1
2.7	2015_May_22_1341	s	s	7	5	SIC	148	RC	0	1	02VD 02VO 02VC 02MD 02MO 02MC 02RD 09RO	1	0	2.7066090107	222.0	340.0	222	332	1
2.7	2015_May_22_1341	s	s	7	5	SIC	149	ABS	1	1	02VD 02VO 02VC 02MD 10MO 02MC 02RD 02RO	0	1	2.3249540329	None	None	None	None	1
2.7	2015_May_22_1341	s	s	7	5	SIC	150	ABS	0	2	02VD 02VO 02VC 02MD 02MO 02MC 10RD 02RO	0	1	1.91799497604	None	None	None	None	1
2.7	2015_May_22_1341	s	s	7	5	SIC	151	ABS	2	1	02VD 10VO 02VC 02MD 02MO 02MC 02RD 02RO	0	1	1.94831895828	None	None	None	None	1
2.7	2015_May_22_1341	s	s	7	5	SIC	152	ABS	2	0	02VD 02VO 10VC 02MD 02MO 02MC 02RD 02RO	0	1	1.2908809185	None	None	None	None	1
2.7	2015_May_22_1341	s	s	7	5	SIC	153	RC	1	2	02VD 02VO 02VC 09MD 02MO 02MC 02RD 02RO	1	0	1.1713950634	-335.0	-327.0	-331	-329	1
2.7	2015_May_22_1341	s	s	7	5	SIC	154	RC	2	0	02VD 02VO 09VC 02MD 02MO 02MC 02RD 02RO	1	0	2.27786111832	331.0	1.0	331	2	1
2.7	2015_May_22_1341	s	s	7	5	SIC	155	ABS	2	2	10VD 02VO 02VC 02MD 02MO 02MC 02RD 02RO	0	1	5.72718691826	None	None	None	None	1
2.7	2015_May_22_1341	s	s	7	5	SIC	156	ABS	0	1	02VD 02VO 02VC 02MD 02MO 02MC 02RD 10RO	0	1	2.9155728817	None	None	None	None	1
2.7	2015_May_22_1341	s	s	7	5	SIC	157	RC	2	1	02VD 09VO 02VC 02MD 02MO 02MC 02RD 02RO	1	0	1.67761707306	196.0	-235.0	205	-236	1
2.7	2015_May_22_1341	s	s	7	5	SIC	158	RC	0	2	02VD 02VO 02VC 02MD 02MO 02MC 09RD 02RO	1	0	1.04703187943	-126.0	-87.0	-124	-80	1
2.7	2015_May_22_1341	s	s	7	5	SIC	159	RC	1	0	02VD 02VO 02VC 02MD 02MO 09MC 02RD 02RO	1	0	1.18494415283	6.0	-240.0	9	-248	1
2.7	2015_May_22_1341	s	s	7	5	SIC	160	RC	1	1	02VD 02VO 02VC 02MD 09MO 02MC 02RD 02RO	1	0	1.62369990349	-97.0	-221.0	-97	-212	1
2.7	2015_May_22_1341	s	s	7	5	SIC	161	ABS	0	1	02VD 02VO 02VC 02MD 02MO 02MC 02RD 10RO	0	1	3.03618812561	None	None	None	None	1
2.7	2015_May_22_1341	s	s	7	5	SIC	162	RC	2	0	02VD 02VO 09VC 02MD 02MO 02MC 02RD 02RO	1	0	1.09398698807	27.0	365.0	30	352	1
2.7	2015_May_22_1341	s	s	7	5	SIC	163	RC	0	2	02VD 02VO 02VC 02MD 02MO 02MC 09RD 02RO	1	0	3.12551307678	63.0	-411.0	52	-402	1
2.7	2015_May_22_1341	s	s	7	5	SIC	164	ABS	1	1	02VD 02VO 02VC 02MD 10MO 02MC 02RD 02RO	0	1	3.42830109596	None	None	None	None	1
2.7	2015_May_22_1341	s	s	7	5	SIC	165	RC	1	2	02VD 02VO 02VC 09MD 02MO 02MC 02RD 02RO	1	0	1.08891487122	-420.0	-93.0	-417	-98	1
2.7	2015_May_22_1341	s	s	7	5	SIC	166	RC	2	1	02VD 09VO 02VC 02MD 02MO 02MC 02RD 02RO	1	0	0.867098093033	260.0	187.0	269	190	1
2.7	2015_May_22_1341	s	s	7	5	SIC	167	RC	1	0	02VD 02VO 02VC 02MD 02MO 09MC 02RD 02RO	1	0	1.06685709953	-505.0	-97.0	-499	-103	1
2.7	2015_May_22_1341	s	s	7	5	SIC	168	ABS	2	0	02VD 02VO 10VC 02MD 02MO 02MC 02RD 02RO	0	1	1.75315904617	None	None	None	None	1
2.7	2015_May_22_1341	s	s	7	5	SIC	169	ABS	1	2	02VD 02VO 02VC 10MD 02MO 02MC 02RD 02RO	0	1	2.27108502388	None	None	None	None	1
2.7	2015_May_22_1341	s	s	7	5	SIC	170	ABS	2	1	02VD 10VO 02VC 02MD 02MO 02MC 02RD 02RO	0	1	1.97410798073	None	None	None	None	1
2.7	2015_May_22_1341	s	s	7	5	SIC	171	ABS	0	2	02VD 02VO 02VC 02MD 02MO 02MC 10RD 02RO	0	1	1.87094593048	None	None	None	None	1
2.7	2015_May_22_1341	s	s	7	5	SIC	172	RC	1	1	02VD 02VO 02VC 02MD 09MO 02MC 02RD 02RO	1	0	1.39513897896	106.0	-255.0	105	-259	1
2.7	2015_May_22_1341	s	s	7	5	SIC	173	RC	0	1	02VD 02VO 02VC 02MD 02MO 02MC 02RD 09RO	1	0	1.71790099144	-69.0	348.0	-75	348	1
2.7	2015_May_22_1341	s	s	7	5	SIC	174	ABS	1	0	02VD 02VO 02VC 02MD 02MO 10MC 02RD 02RO	1	0	1.05875492096	None	None	51	-280	0
2.7	2015_May_22_1341	s	s	7	5	SIC	175	ABS	2	2	10VD 02VO 02VC 02MD 02MO 02MC 02RD 02RO	0	1	1.82380604744	None	None	None	None	1
2.7	2015_May_22_1341	s	s	7	5	SIC	176	RC	2	2	09VD 02VO 02VC 02MD 02MO 02MC 02RD 02RO	1	0	0.947638988495	-69.0	-132.0	-62	-128	1
2.7	2015_May_22_1341	s	s	7	5	SIC	177	RC	1	2	02VD 02VO 02VC 09MD 02MO 02MC 02RD 02RO	1	0	1.53637003899	223.0	-262.0	231	-262	1
2.7	2015_May_22_1341	s	s	7	5	SIC	178	ABS	2	1	02VD 10VO 02VC 02MD 02MO 02MC 02RD 02RO	1	0	0.738445997238	None	None	-505	325	0
2.7	2015_May_22_1341	s	s	7	5	SIC	179	RC	2	1	02VD 09VO 02VC 02MD 02MO 02MC 02RD 02RO	1	0	0.823323965073	-248.0	58.0	-245	56	1
2.7	2015_May_22_1341	s	s	7	5	SIC	180	ABS	2	0	02VD 02VO 10VC 02MD 02MO 02MC 02RD 02RO	0	1	2.70205497742	None	None	None	None	1
2.7	2015_May_22_1341	s	s	7	5	SIC	181	ABS	0	2	02VD 02VO 02VC 02MD 02MO 02MC 10RD 02RO	0	1	1.6308259964	None	None	None	None	1
2.7	2015_May_22_1341	s	s	7	5	SIC	182	ABS	1	2	02VD 02VO 02VC 10MD 02MO 02MC 02RD 02RO	0	1	1.66591501236	None	None	None	None	1
2.7	2015_May_22_1341	s	s	7	5	SIC	183	RC	0	2	02VD 02VO 02VC 02MD 02MO 02MC 09RD 02RO	1	0	1.63914394379	443.0	309.0	450	304	1
2.7	2015_May_22_1341	s	s	7	5	SIC	184	ABS	2	2	10VD 02VO 02VC 02MD 02MO 02MC 02RD 02RO	0	1	1.34848403931	None	None	None	None	1
2.7	2015_May_22_1341	s	s	7	5	SIC	185	RC	0	1	02VD 02VO 02VC 02MD 02MO 02MC 02RD 09RO	1	0	1.83557200432	38.0	-67.0	37	-76	1
2.7	2015_May_22_1341	s	s	7	5	SIC	186	RC	2	0	02VD 02VO 09VC 02MD 02MO 02MC 02RD 02RO	1	0	0.72469997406	74.0	-29.0	67	-30	1
2.7	2015_May_22_1341	s	s	7	5	SIC	187	RC	2	2	09VD 02VO 02VC 02MD 02MO 02MC 02RD 02RO	1	0	1.78851485252	451.0	-374.0	456	-372	1
2.7	2015_May_22_1341	s	s	7	5	SIC	188	ABS	1	1	02VD 02VO 02VC 02MD 10MO 02MC 02RD 02RO	1	0	2.04772901535	None	None	0	2	0
2.7	2015_May_22_1341	s	s	7	5	SIC	189	ABS	1	0	02VD 02VO 02VC 02MD 02MO 10MC 02RD 02RO	0	1	3.77241206169	None	None	None	None	1
2.7	2015_May_22_1341	s	s	7	5	SIC	190	RC	1	1	02VD 02VO 02VC 02MD 09MO 02MC 02RD 02RO	1	0	1.23052000999	-166.0	-173.0	-172	-182	1
2.7	2015_May_22_1341	s	s	7	5	SIC	191	RC	1	0	02VD 02VO 02VC 02MD 02MO 09MC 02RD 02RO	1	0	2.9513168335	-436.0	253.0	-442	244	1
2.7	2015_May_22_1341	s	s	7	5	SIC	192	ABS	0	1	02VD 02VO 02VC 02MD 02MO 02MC 02RD 10RO	0	1	3.96242618561	None	None	None	None	1
2.7	2015_May_22_1341	s	s	7	5	SIC	193	ABS	2	2	10VD 02VO 02VC 02MD 02MO 02MC 02RD 02RO	0	1	1.27719306946	None	None	None	None	1
2.7	2015_May_22_1341	s	s	7	5	SIC	194	RC	1	2	02VD 02VO 02VC 09MD 02MO 02MC 02RD 02RO	1	0	0.829466819763	-131.0	173.0	-128	164	1
2.7	2015_May_22_1341	s	s	7	5	SIC	195	ABS	1	2	02VD 02VO 02VC 10MD 02MO 02MC 02RD 02RO	0	1	3.27180123329	None	None	None	None	1
2.7	2015_May_22_1341	s	s	7	5	SIC	196	RC	1	0	02VD 02VO 02VC 02MD 02MO 09MC 02RD 02RO	1	0	1.96057605743	371.0	-254.0	366	-260	1
2.7	2015_May_22_1341	s	s	7	5	SIC	197	ABS	2	0	02VD 02VO 10VC 02MD 02MO 02MC 02RD 02RO	0	1	2.14861297607	None	None	None	None	1
2.7	2015_May_22_1341	s	s	7	5	SIC	198	ABS	0	2	02VD 02VO 02VC 02MD 02MO 02MC 10RD 02RO	0	1	1.9829761982	None	None	None	None	1
2.7	2015_May_22_1341	s	s	7	5	SIC	199	ABS	1	0	02VD 02VO 02VC 02MD 02MO 10MC 02RD 02RO	0	1	3.57194209099	None	None	None	None	1
2.7	2015_May_22_1341	s	s	7	5	SIC	200	RC	0	2	02VD 02VO 02VC 02MD 02MO 02MC 09RD 02RO	1	0	0.677098989487	-477.0	184.0	-474	175	1
2.7	2015_May_22_1341	s	s	7	5	SIC	201	RC	1	1	02VD 02VO 02VC 02MD 09MO 02MC 02RD 02RO	1	0	0.89403796196	-87.0	-123.0	-84	-115	1
2.7	2015_May_22_1341	s	s	7	5	SIC	202	ABS	0	1	02VD 02VO 02VC 02MD 02MO 02MC 02RD 10RO	0	1	4.17289686203	None	None	None	None	1
2.7	2015_May_22_1341	s	s	7	5	SIC	203	ABS	1	1	02VD 02VO 02VC 02MD 10MO 02MC 02RD 02RO	0	1	2.01749706268	None	None	None	None	1
2.7	2015_May_22_1341	s	s	7	5	SIC	204	RC	0	1	02VD 02VO 02VC 02MD 02MO 02MC 02RD 09RO	1	0	1.20625591278	-170.0	113.0	-165	114	1
2.7	2015_May_22_1341	s	s	7	5	SIC	205	RC	2	0	02VD 02VO 09VC 02MD 02MO 02MC 02RD 02RO	1	0	1.60865402222	497.0	-207.0	505	-213	1
2.7	2015_May_22_1341	s	s	7	5	SIC	206	RC	2	2	09VD 02VO 02VC 02MD 02MO 02MC 02RD 02RO	1	0	0.73569893837	60.0	-95.0	53	-89	1
2.7	2015_May_22_1341	s	s	7	5	SIC	207	ABS	2	1	02VD 10VO 02VC 02MD 02MO 02MC 02RD 02RO	0	1	3.2715818882	None	None	None	None	1
2.7	2015_May_22_1341	s	s	7	5	SIC	208	RC	2	1	02VD 09VO 02VC 02MD 02MO 02MC 02RD 02RO	1	0	1.764991045	347.0	-78.0	350	-76	1
2.7	2015_May_22_1341	s	s	7	5	SIC	209	ABS	2	0	02VD 02VO 10VC 02MD 02MO 02MC 02RD 02RO	1	0	0.917824983597	None	None	227	-170	0
2.7	2015_May_22_1341	s	s	7	5	SIC	210	RC	0	2	02VD 02VO 02VC 02MD 02MO 02MC 09RD 02RO	1	0	2.81249499321	482.0	-383.0	483	-382	1
2.7	2015_May_22_1341	s	s	7	5	SIC	211	RC	1	2	02VD 02VO 02VC 09MD 02MO 02MC 02RD 02RO	1	0	3.74919390678	389.0	223.0	390	217	1
2.7	2015_May_22_1341	s	s	7	5	SIC	212	ABS	2	2	10VD 02VO 02VC 02MD 02MO 02MC 02RD 02RO	0	1	2.9537050724	None	None	None	None	1
2.7	2015_May_22_1341	s	s	7	5	SIC	213	ABS	1	1	02VD 02VO 02VC 02MD 10MO 02MC 02RD 02RO	0	1	2.10633301735	None	None	None	None	1
2.7	2015_May_22_1341	s	s	7	5	SIC	214	ABS	0	1	02VD 02VO 02VC 02MD 02MO 02MC 02RD 10RO	0	1	3.28341698647	None	None	None	None	1
2.7	2015_May_22_1341	s	s	7	5	SIC	215	RC	1	1	02VD 02VO 02VC 02MD 09MO 02MC 02RD 02RO	1	0	2.45275211334	-421.0	-221.0	-426	-226	1
2.7	2015_May_22_1341	s	s	7	5	SIC	216	RC	2	1	02VD 09VO 02VC 02MD 02MO 02MC 02RD 02RO	1	0	0.964556932449	-157.0	-100.0	-157	-101	1
2.7	2015_May_22_1341	s	s	7	5	SIC	217	ABS	1	2	02VD 02VO 02VC 10MD 02MO 02MC 02RD 02RO	0	1	2.31549715996	None	None	None	None	1
2.7	2015_May_22_1341	s	s	7	5	SIC	218	RC	0	1	02VD 02VO 02VC 02MD 02MO 02MC 02RD 09RO	1	0	2.55375981331	320.0	177.0	320	173	1
2.7	2015_May_22_1341	s	s	7	5	SIC	219	ABS	2	1	02VD 10VO 02VC 02MD 02MO 02MC 02RD 02RO	0	1	2.97733306885	None	None	None	None	1
2.7	2015_May_22_1341	s	s	7	5	SIC	220	RC	2	2	09VD 02VO 02VC 02MD 02MO 02MC 02RD 02RO	1	0	1.16466498375	260.0	51.0	254	57	1
2.7	2015_May_22_1341	s	s	7	5	SIC	221	RC	2	0	02VD 02VO 09VC 02MD 02MO 02MC 02RD 02RO	1	0	0.870356082916	156.0	-98.0	155	-99	1
2.7	2015_May_22_1341	s	s	7	5	SIC	222	ABS	1	0	02VD 02VO 02VC 02MD 02MO 10MC 02RD 02RO	0	1	3.36197209358	None	None	None	None	1
2.7	2015_May_22_1341	s	s	7	5	SIC	223	RC	1	0	02VD 02VO 02VC 02MD 02MO 09MC 02RD 02RO	1	0	2.08951282501	434.0	-324.0	441	-320	1
2.7	2015_May_22_1341	s	s	7	5	SIC	224	ABS	0	2	02VD 02VO 02VC 02MD 02MO 02MC 10RD 02RO	0	1	2.73045492172	None	None	None	None	1
2.7	2015_May_22_1341	s	s	7	5	SIC	225	RC	2	0	02VD 02VO 09VC 02MD 02MO 02MC 02RD 02RO	1	0	2.54181599617	-133.0	352.0	-135	344	1
2.7	2015_May_22_1341	s	s	7	5	SIC	226	RC	2	1	02VD 09VO 02VC 02MD 02MO 02MC 02RD 02RO	1	0	2.30124807358	-444.0	-212.0	-446	-212	1
2.7	2015_May_22_1341	s	s	7	5	SIC	227	ABS	1	0	02VD 02VO 02VC 02MD 02MO 10MC 02RD 02RO	0	1	4.06011199951	None	None	None	None	1
2.7	2015_May_22_1341	s	s	7	5	SIC	228	RC	1	0	02VD 02VO 02VC 02MD 02MO 09MC 02RD 02RO	1	0	2.85956978798	411.0	132.0	416	124	1
2.7	2015_May_22_1341	s	s	7	5	SIC	229	RC	2	2	09VD 02VO 02VC 02MD 02MO 02MC 02RD 02RO	1	0	4.86064696312	419.0	394.0	423	393	1
2.7	2015_May_22_1341	s	s	7	5	SIC	230	RC	1	1	02VD 02VO 02VC 02MD 09MO 02MC 02RD 02RO	1	0	9.54041600227	-218.0	374.0	-450	173	0
2.7	2015_May_22_1341	s	s	7	5	SIC	231	RC	1	2	02VD 02VO 02VC 09MD 02MO 02MC 02RD 02RO	1	0	2.44261598587	-127.0	-47.0	-123	-51	1
2.7	2015_May_22_1341	s	s	7	5	SIC	232	ABS	1	2	02VD 02VO 02VC 10MD 02MO 02MC 02RD 02RO	0	1	3.07155203819	None	None	None	None	1
2.7	2015_May_22_1341	s	s	7	5	SIC	233	ABS	2	2	10VD 02VO 02VC 02MD 02MO 02MC 02RD 02RO	0	1	2.13829994202	None	None	None	None	1
2.7	2015_May_22_1341	s	s	7	5	SIC	234	ABS	0	2	02VD 02VO 02VC 02MD 02MO 02MC 10RD 02RO	0	1	2.54881095886	None	None	None	None	1
2.7	2015_May_22_1341	s	s	7	5	SIC	235	RC	0	1	02VD 02VO 02VC 02MD 02MO 02MC 02RD 09RO	1	0	1.03575110435	-485.0	335.0	-495	340	1
2.7	2015_May_22_1341	s	s	7	5	SIC	236	RC	0	2	02VD 02VO 02VC 02MD 02MO 02MC 09RD 02RO	1	0	1.02918195724	42.0	160.0	33	163	1
2.7	2015_May_22_1341	s	s	7	5	SIC	237	ABS	1	1	02VD 02VO 02VC 02MD 10MO 02MC 02RD 02RO	0	1	2.70662283897	None	None	None	None	1
2.7	2015_May_22_1341	s	s	7	5	SIC	238	ABS	0	1	02VD 02VO 02VC 02MD 02MO 02MC 02RD 10RO	0	1	3.80953407288	None	None	None	None	1
2.7	2015_May_22_1341	s	s	7	5	SIC	239	ABS	2	1	02VD 10VO 02VC 02MD 02MO 02MC 02RD 02RO	0	1	1.52469706535	None	None	None	None	1
2.7	2015_May_22_1341	s	s	7	5	SIC	240	ABS	2	0	02VD 02VO 10VC 02MD 02MO 02MC 02RD 02RO	0	1	1.71784806252	None	None	None	None	1
2.7	2015_May_22_1341	s	s	7	5	SIC	241	ABS	2	0	02VD 02VO 10VC 02MD 02MO 02MC 02RD 02RO	0	1	2.95132803917	None	None	None	None	1
2.7	2015_May_22_1341	s	s	7	5	SIC	242	ABS	2	2	10VD 02VO 02VC 02MD 02MO 02MC 02RD 02RO	0	1	2.4004240036	None	None	None	None	1
2.7	2015_May_22_1341	s	s	7	5	SIC	243	ABS	0	2	02VD 02VO 02VC 02MD 02MO 02MC 10RD 02RO	0	1	1.9414358139	None	None	None	None	1
2.7	2015_May_22_1341	s	s	7	5	SIC	244	RC	0	1	02VD 02VO 02VC 02MD 02MO 02MC 02RD 09RO	1	0	1.32943201065	141.0	125.0	150	122	1
2.7	2015_May_22_1341	s	s	7	5	SIC	245	RC	1	1	02VD 02VO 02VC 02MD 09MO 02MC 02RD 02RO	1	0	0.929286003113	74.0	220.0	76	222	1
2.7	2015_May_22_1341	s	s	7	5	SIC	246	RC	2	0	02VD 02VO 09VC 02MD 02MO 02MC 02RD 02RO	1	0	1.1416490078	181.0	87.0	179	86	1
2.7	2015_May_22_1341	s	s	7	5	SIC	247	RC	1	0	02VD 02VO 02VC 02MD 02MO 09MC 02RD 02RO	1	0	1.21175503731	-490.0	-9.0	-487	-11	1
2.7	2015_May_22_1341	s	s	7	5	SIC	248	RC	0	2	02VD 02VO 02VC 02MD 02MO 02MC 09RD 02RO	1	0	0.984362125397	-103.0	-151.0	-104	-147	1
2.7	2015_May_22_1341	s	s	7	5	SIC	249	RC	2	1	02VD 09VO 02VC 02MD 02MO 02MC 02RD 02RO	1	0	0.558719873428	-292.0	-79.0	-287	-77	1
2.7	2015_May_22_1341	s	s	7	5	SIC	250	ABS	1	2	02VD 02VO 02VC 10MD 02MO 02MC 02RD 02RO	1	0	0.912368774414	None	None	287	-177	0
2.7	2015_May_22_1341	s	s	7	5	SIC	251	ABS	2	1	02VD 10VO 02VC 02MD 02MO 02MC 02RD 02RO	0	1	1.95332789421	None	None	None	None	1
2.7	2015_May_22_1341	s	s	7	5	SIC	252	ABS	0	1	02VD 02VO 02VC 02MD 02MO 02MC 02RD 10RO	0	1	3.57244610786	None	None	None	None	1
2.7	2015_May_22_1341	s	s	7	5	SIC	253	ABS	1	0	02VD 02VO 02VC 02MD 02MO 10MC 02RD 02RO	0	1	2.37696194649	None	None	None	None	1
2.7	2015_May_22_1341	s	s	7	5	SIC	254	RC	2	2	09VD 02VO 02VC 02MD 02MO 02MC 02RD 02RO	1	0	1.07050609589	407.0	77.0	408	78	1
2.7	2015_May_22_1341	s	s	7	5	SIC	255	RC	1	2	02VD 02VO 02VC 09MD 02MO 02MC 02RD 02RO	1	0	0.725666999817	-283.0	32.0	-293	32	1
2.7	2015_May_22_1341	s	s	7	5	SIC	256	ABS	1	1	02VD 02VO 02VC 02MD 10MO 02MC 02RD 02RO	0	1	2.30636286736	None	None	None	None	1
2.7	2015_May_22_1341	s	s	7	5	SIC	257	RC	1	2	02VD 02VO 02VC 09MD 02MO 02MC 02RD 02RO	1	0	1.10248398781	-330.0	-190.0	-321	-193	1
2.7	2015_May_22_1341	s	s	7	5	SIC	258	ABS	1	1	02VD 02VO 02VC 02MD 10MO 02MC 02RD 02RO	0	1	2.11277198792	None	None	None	None	1
2.7	2015_May_22_1341	s	s	7	5	SIC	259	ABS	1	2	02VD 02VO 02VC 10MD 02MO 02MC 02RD 02RO	0	1	1.64724397659	None	None	None	None	1
2.7	2015_May_22_1341	s	s	7	5	SIC	260	RC	1	1	02VD 02VO 02VC 02MD 09MO 02MC 02RD 02RO	1	0	1.66510009766	-188.0	-389.0	-180	-393	1
2.7	2015_May_22_1341	s	s	7	5	SIC	261	RC	1	0	02VD 02VO 02VC 02MD 02MO 09MC 02RD 02RO	1	0	0.711843967438	-182.0	12.0	-179	3	1
2.7	2015_May_22_1341	s	s	7	5	SIC	262	ABS	2	1	02VD 10VO 02VC 02MD 02MO 02MC 02RD 02RO	0	1	1.64232206345	None	None	None	None	1
2.7	2015_May_22_1341	s	s	7	5	SIC	263	RC	2	0	02VD 02VO 09VC 02MD 02MO 02MC 02RD 02RO	1	0	1.18013000488	199.0	227.0	205	229	1
2.7	2015_May_22_1341	s	s	7	5	SIC	264	ABS	0	1	02VD 02VO 02VC 02MD 02MO 02MC 02RD 10RO	0	1	2.63120007515	None	None	None	None	1
2.7	2015_May_22_1341	s	s	7	5	SIC	265	ABS	0	2	02VD 02VO 02VC 02MD 02MO 02MC 10RD 02RO	0	1	1.60698604584	None	None	None	None	1
2.7	2015_May_22_1341	s	s	7	5	SIC	266	RC	2	1	02VD 09VO 02VC 02MD 02MO 02MC 02RD 02RO	1	0	0.982783079147	-497.0	184.0	-509	189	1
2.7	2015_May_22_1341	s	s	7	5	SIC	267	RC	2	2	09VD 02VO 02VC 02MD 02MO 02MC 02RD 02RO	1	0	0.690515041351	-215.0	-85.0	-208	-83	1
2.7	2015_May_22_1341	s	s	7	5	SIC	268	RC	0	1	02VD 02VO 02VC 02MD 02MO 02MC 02RD 09RO	1	0	2.31322002411	-464.0	-378.0	-467	-381	1
2.7	2015_May_22_1341	s	s	7	5	SIC	269	RC	0	2	02VD 02VO 02VC 02MD 02MO 02MC 09RD 02RO	1	0	1.22350001335	-485.0	-61.0	-478	-57	1
2.7	2015_May_22_1341	s	s	7	5	SIC	270	ABS	1	0	02VD 02VO 02VC 02MD 02MO 10MC 02RD 02RO	0	1	2.23590302467	None	None	None	None	1
2.7	2015_May_22_1341	s	s	7	5	SIC	271	ABS	2	2	10VD 02VO 02VC 02MD 02MO 02MC 02RD 02RO	0	1	1.78839015961	None	None	None	None	1
2.7	2015_May_22_1341	s	s	7	5	SIC	272	ABS	2	0	02VD 02VO 10VC 02MD 02MO 02MC 02RD 02RO	0	1	1.65896487236	None	None	None	None	1
2.7	2015_May_22_1341	s	s	7	5	SIC	273	RC	0	1	02VD 02VO 02VC 02MD 02MO 02MC 02RD 09RO	1	0	0.806528091431	-50.0	174.0	-53	176	1
2.7	2015_May_22_1341	s	s	7	5	SIC	274	ABS	1	0	02VD 02VO 02VC 02MD 02MO 10MC 02RD 02RO	1	0	1.28923606873	None	None	-531	-49	0
2.7	2015_May_22_1341	s	s	7	5	SIC	275	ABS	2	0	02VD 02VO 10VC 02MD 02MO 02MC 02RD 02RO	0	1	1.65336108208	None	None	None	None	1
2.7	2015_May_22_1341	s	s	7	5	SIC	276	RC	1	1	02VD 02VO 02VC 02MD 09MO 02MC 02RD 02RO	1	0	1.62737512589	339.0	-301.0	339	-304	1
2.7	2015_May_22_1341	s	s	7	5	SIC	277	RC	2	2	09VD 02VO 02VC 02MD 02MO 02MC 02RD 02RO	1	0	0.835062980652	-8.0	-236.0	-9	-237	1
2.7	2015_May_22_1341	s	s	7	5	SIC	278	RC	1	2	02VD 02VO 02VC 09MD 02MO 02MC 02RD 02RO	1	0	1.24462795258	-290.0	211.0	-282	210	1
2.7	2015_May_22_1341	s	s	7	5	SIC	279	ABS	1	1	02VD 02VO 02VC 02MD 10MO 02MC 02RD 02RO	0	1	2.2428548336	None	None	None	None	1
2.7	2015_May_22_1341	s	s	7	5	SIC	280	ABS	1	2	02VD 02VO 02VC 10MD 02MO 02MC 02RD 02RO	0	1	1.36476612091	None	None	None	None	1
2.7	2015_May_22_1341	s	s	7	5	SIC	281	ABS	0	2	02VD 02VO 02VC 02MD 02MO 02MC 10RD 02RO	0	1	1.44272708893	None	None	None	None	1
2.7	2015_May_22_1341	s	s	7	5	SIC	282	ABS	2	2	10VD 02VO 02VC 02MD 02MO 02MC 02RD 02RO	0	1	1.49076604843	None	None	None	None	1
2.7	2015_May_22_1341	s	s	7	5	SIC	283	RC	1	0	02VD 02VO 02VC 02MD 02MO 09MC 02RD 02RO	1	0	1.72456002235	390.0	395.0	388	395	1
2.7	2015_May_22_1341	s	s	7	5	SIC	284	RC	2	0	02VD 02VO 09VC 02MD 02MO 02MC 02RD 02RO	1	0	1.56096196175	117.0	-325.0	117	-330	1
2.7	2015_May_22_1341	s	s	7	5	SIC	285	ABS	2	1	02VD 10VO 02VC 02MD 02MO 02MC 02RD 02RO	0	1	4.06697511673	None	None	None	None	1
2.7	2015_May_22_1341	s	s	7	5	SIC	286	RC	2	1	02VD 09VO 02VC 02MD 02MO 02MC 02RD 02RO	1	0	4.54284405708	9.0	-265.0	5	-265	1
2.7	2015_May_22_1341	s	s	7	5	SIC	287	RC	0	2	02VD 02VO 02VC 02MD 02MO 02MC 09RD 02RO	1	0	8.82737088203	441.0	409.0	438	412	1
2.7	2015_May_22_1341	s	s	7	5	SIC	288	ABS	0	1	02VD 02VO 02VC 02MD 02MO 02MC 02RD 10RO	0	1	9.89847302437	None	None	None	None	1
2.7	2015_May_22_1341	s	s	7	5	SIC	289	RC	1	1	02VD 02VO 02VC 02MD 09MO 02MC 02RD 02RO	1	0	3.99320292473	451.0	342.0	441	341	1
2.7	2015_May_22_1341	s	s	7	5	SIC	290	ABS	1	0	02VD 02VO 02VC 02MD 02MO 10MC 02RD 02RO	0	1	4.19702196121	None	None	None	None	1
2.7	2015_May_22_1341	s	s	7	5	SIC	291	RC	0	1	02VD 02VO 02VC 02MD 02MO 02MC 02RD 09RO	0	1	4.81356906891	533.0	-387.0	None	None	0
2.7	2015_May_22_1341	s	s	7	5	SIC	292	RC	2	0	02VD 02VO 09VC 02MD 02MO 02MC 02RD 02RO	1	0	2.08277201653	-105.0	-362.0	-106	-364	1
2.7	2015_May_22_1341	s	s	7	5	SIC	293	RC	0	2	02VD 02VO 02VC 02MD 02MO 02MC 09RD 02RO	1	0	1.69421219826	236.0	-285.0	241	-281	1
2.7	2015_May_22_1341	s	s	7	5	SIC	294	ABS	0	1	02VD 02VO 02VC 02MD 02MO 02MC 02RD 10RO	0	1	2.79572200775	None	None	None	None	1
2.7	2015_May_22_1341	s	s	7	5	SIC	295	RC	1	2	02VD 02VO 02VC 09MD 02MO 02MC 02RD 02RO	1	0	1.01167988777	-217.0	-231.0	-205	-223	1
2.7	2015_May_22_1341	s	s	7	5	SIC	296	RC	2	1	02VD 09VO 02VC 02MD 02MO 02MC 02RD 02RO	1	0	1.39998602867	369.0	56.0	375	56	1
2.7	2015_May_22_1341	s	s	7	5	SIC	297	ABS	2	2	10VD 02VO 02VC 02MD 02MO 02MC 02RD 02RO	0	1	1.41872000694	None	None	None	None	1
2.7	2015_May_22_1341	s	s	7	5	SIC	298	RC	2	2	09VD 02VO 02VC 02MD 02MO 02MC 02RD 02RO	1	0	0.818091869354	69.0	82.0	67	78	1
2.7	2015_May_22_1341	s	s	7	5	SIC	299	ABS	1	1	02VD 02VO 02VC 02MD 10MO 02MC 02RD 02RO	0	1	2.08968997002	None	None	None	None	1
2.7	2015_May_22_1341	s	s	7	5	SIC	300	ABS	2	1	02VD 10VO 02VC 02MD 02MO 02MC 02RD 02RO	0	1	1.27062106133	None	None	None	None	1
2.7	2015_May_22_1341	s	s	7	5	SIC	301	ABS	1	2	02VD 02VO 02VC 10MD 02MO 02MC 02RD 02RO	0	1	1.57143592834	None	None	None	None	1
2.7	2015_May_22_1341	s	s	7	5	SIC	302	ABS	2	0	02VD 02VO 10VC 02MD 02MO 02MC 02RD 02RO	0	1	1.67083907127	None	None	None	None	1
2.7	2015_May_22_1341	s	s	7	5	SIC	303	RC	1	0	02VD 02VO 02VC 02MD 02MO 09MC 02RD 02RO	1	0	2.10035395622	-497.0	-260.0	-502	-265	1
2.7	2015_May_22_1341	s	s	7	5	SIC	304	ABS	0	2	02VD 02VO 02VC 02MD 02MO 02MC 10RD 02RO	0	1	1.47071504593	None	None	None	None	1
2.7	2015_May_22_1341	s	s	7	5	SIC	305	ABS	1	2	02VD 02VO 02VC 10MD 02MO 02MC 02RD 02RO	0	1	1.28899598122	None	None	None	None	1
2.7	2015_May_22_1341	s	s	7	5	SIC	306	RC	2	1	02VD 09VO 02VC 02MD 02MO 02MC 02RD 02RO	1	0	1.24186205864	-439.0	-345.0	-443	-351	1
2.7	2015_May_22_1341	s	s	7	5	SIC	307	ABS	0	2	02VD 02VO 02VC 02MD 02MO 02MC 10RD 02RO	0	1	2.3484389782	None	None	None	None	1
2.7	2015_May_22_1341	s	s	7	5	SIC	308	ABS	1	1	02VD 02VO 02VC 02MD 10MO 02MC 02RD 02RO	0	1	2.95363497734	None	None	None	None	1
2.7	2015_May_22_1341	s	s	7	5	SIC	309	RC	0	2	02VD 02VO 02VC 02MD 02MO 02MC 09RD 02RO	1	0	1.94842100143	30.0	300.0	34	294	1
2.7	2015_May_22_1341	s	s	7	5	SIC	310	ABS	2	1	02VD 10VO 02VC 02MD 02MO 02MC 02RD 02RO	0	1	1.80775403976	None	None	None	None	1
2.7	2015_May_22_1341	s	s	7	5	SIC	311	RC	0	1	02VD 02VO 02VC 02MD 02MO 02MC 02RD 09RO	1	0	2.44768095016	-78.0	-401.0	-79	-401	1
2.7	2015_May_22_1341	s	s	7	5	SIC	312	RC	1	2	02VD 02VO 02VC 09MD 02MO 02MC 02RD 02RO	1	0	1.49465107918	335.0	316.0	336	322	1
2.7	2015_May_22_1341	s	s	7	5	SIC	313	RC	1	0	02VD 02VO 02VC 02MD 02MO 09MC 02RD 02RO	1	0	1.77675485611	-358.0	230.0	-359	223	1
2.7	2015_May_22_1341	s	s	7	5	SIC	314	RC	1	1	02VD 02VO 02VC 02MD 09MO 02MC 02RD 02RO	1	0	0.658565998077	-327.0	120.0	-324	122	1
2.7	2015_May_22_1341	s	s	7	5	SIC	315	RC	2	2	09VD 02VO 02VC 02MD 02MO 02MC 02RD 02RO	1	0	1.87722086906	477.0	-393.0	486	-392	1
2.7	2015_May_22_1341	s	s	7	5	SIC	316	RC	2	0	02VD 02VO 09VC 02MD 02MO 02MC 02RD 02RO	0	1	1.87085103989	439.0	372.0	None	None	0
2.7	2015_May_22_1341	s	s	7	5	SIC	317	ABS	0	1	02VD 02VO 02VC 02MD 02MO 02MC 02RD 10RO	0	1	3.74914598465	None	None	None	None	1
2.7	2015_May_22_1341	s	s	7	5	SIC	318	ABS	1	0	02VD 02VO 02VC 02MD 02MO 10MC 02RD 02RO	0	1	2.3735101223	None	None	None	None	1
2.7	2015_May_22_1341	s	s	7	5	SIC	319	ABS	2	2	10VD 02VO 02VC 02MD 02MO 02MC 02RD 02RO	0	1	1.83019089699	None	None	None	None	1
2.7	2015_May_22_1341	s	s	7	5	SIC	320	ABS	2	0	02VD 02VO 10VC 02MD 02MO 02MC 02RD 02RO	0	1	1.83225512505	None	None	None	None	1
2.7	2015_May_22_1341	s	s	7	5	SIC	321	RC	0	1	02VD 02VO 02VC 02MD 02MO 02MC 02RD 09RO	1	0	0.835053920746	-113.0	326.0	-104	326	1
2.7	2015_May_22_1341	s	s	7	5	SIC	322	ABS	0	2	02VD 02VO 02VC 02MD 02MO 02MC 10RD 02RO	0	1	1.1713950634	None	None	None	None	1
2.7	2015_May_22_1341	s	s	7	5	SIC	323	RC	0	2	02VD 02VO 02VC 02MD 02MO 02MC 09RD 02RO	1	0	1.50154519081	403.0	-57.0	398	-53	1
2.7	2015_May_22_1341	s	s	7	5	SIC	324	ABS	2	0	02VD 02VO 10VC 02MD 02MO 02MC 02RD 02RO	0	1	1.50600099564	None	None	None	None	1
2.7	2015_May_22_1341	s	s	7	5	SIC	325	RC	2	0	02VD 02VO 09VC 02MD 02MO 02MC 02RD 02RO	1	0	1.21178603172	294.0	11.0	302	14	1
2.7	2015_May_22_1341	s	s	7	5	SIC	326	RC	1	2	02VD 02VO 02VC 09MD 02MO 02MC 02RD 02RO	1	0	0.999851942062	98.0	-195.0	99	-199	1
2.7	2015_May_22_1341	s	s	7	5	SIC	327	ABS	1	2	02VD 02VO 02VC 10MD 02MO 02MC 02RD 02RO	0	1	1.84421992302	None	None	None	None	1
2.7	2015_May_22_1341	s	s	7	5	SIC	328	ABS	0	1	02VD 02VO 02VC 02MD 02MO 02MC 02RD 10RO	0	1	2.29102492332	None	None	None	None	1
2.7	2015_May_22_1341	s	s	7	5	SIC	329	RC	1	0	02VD 02VO 02VC 02MD 02MO 09MC 02RD 02RO	1	0	1.11758685112	160.0	45.0	161	38	1
2.7	2015_May_22_1341	s	s	7	5	SIC	330	RC	2	1	02VD 09VO 02VC 02MD 02MO 02MC 02RD 02RO	1	0	1.10578799248	-38.0	-104.0	-45	-99	1
2.7	2015_May_22_1341	s	s	7	5	SIC	331	ABS	1	0	02VD 02VO 02VC 02MD 02MO 10MC 02RD 02RO	0	1	3.63146305084	None	None	None	None	1
2.7	2015_May_22_1341	s	s	7	5	SIC	332	RC	1	1	02VD 02VO 02VC 02MD 09MO 02MC 02RD 02RO	1	0	1.67757487297	-262.0	354.0	-261	344	1
2.7	2015_May_22_1341	s	s	7	5	SIC	333	ABS	2	2	10VD 02VO 02VC 02MD 02MO 02MC 02RD 02RO	0	1	1.57667398453	None	None	None	None	1
2.7	2015_May_22_1341	s	s	7	5	SIC	334	ABS	1	1	02VD 02VO 02VC 02MD 10MO 02MC 02RD 02RO	0	1	1.59498691559	None	None	None	None	1
2.7	2015_May_22_1341	s	s	7	5	SIC	335	RC	2	2	09VD 02VO 02VC 02MD 02MO 02MC 02RD 02RO	1	0	0.782930135727	112.0	154.0	115	152	1
2.7	2015_May_22_1341	s	s	7	5	SIC	336	ABS	2	1	02VD 10VO 02VC 02MD 02MO 02MC 02RD 02RO	0	1	1.42030596733	None	None	None	None	1
2.7	2015_May_22_1341	s	s	7	5	SIC	337	RC	2	1	02VD 09VO 02VC 02MD 02MO 02MC 02RD 02RO	1	0	1.14112997055	438.0	-73.0	433	-83	1
2.7	2015_May_22_1341	s	s	7	5	SIC	338	ABS	1	0	02VD 02VO 02VC 02MD 02MO 10MC 02RD 02RO	0	1	1.9977440834	None	None	None	None	1
2.7	2015_May_22_1341	s	s	7	5	SIC	339	ABS	1	1	02VD 02VO 02VC 02MD 10MO 02MC 02RD 02RO	0	1	2.13662600517	None	None	None	None	1
2.7	2015_May_22_1341	s	s	7	5	SIC	340	RC	2	2	09VD 02VO 02VC 02MD 02MO 02MC 02RD 02RO	1	0	1.37269306183	10.0	37.0	15	37	1
2.7	2015_May_22_1341	s	s	7	5	SIC	341	ABS	0	2	02VD 02VO 02VC 02MD 02MO 02MC 10RD 02RO	0	1	2.37710499763	None	None	None	None	1
2.7	2015_May_22_1341	s	s	7	5	SIC	342	ABS	1	2	02VD 02VO 02VC 10MD 02MO 02MC 02RD 02RO	0	1	1.51292705536	None	None	None	None	1
2.7	2015_May_22_1341	s	s	7	5	SIC	343	ABS	2	1	02VD 10VO 02VC 02MD 02MO 02MC 02RD 02RO	0	1	1.57143306732	None	None	None	None	1
2.7	2015_May_22_1341	s	s	7	5	SIC	344	ABS	2	0	02VD 02VO 10VC 02MD 02MO 02MC 02RD 02RO	0	1	1.98602104187	None	None	None	None	1
2.7	2015_May_22_1341	s	s	7	5	SIC	345	ABS	0	1	02VD 02VO 02VC 02MD 02MO 02MC 02RD 10RO	0	1	2.7380490303	None	None	None	None	1
2.7	2015_May_22_1341	s	s	7	5	SIC	346	RC	1	1	02VD 02VO 02VC 02MD 09MO 02MC 02RD 02RO	1	0	1.00840210915	120.0	-88.0	131	-87	1
2.7	2015_May_22_1341	s	s	7	5	SIC	347	RC	1	2	02VD 02VO 02VC 09MD 02MO 02MC 02RD 02RO	1	0	1.68257212639	-374.0	-182.0	-375	-188	1
2.7	2015_May_22_1341	s	s	7	5	SIC	348	RC	1	0	02VD 02VO 02VC 02MD 02MO 09MC 02RD 02RO	1	0	0.842889070511	-235.0	209.0	-234	211	1
2.7	2015_May_22_1341	s	s	7	5	SIC	349	ABS	2	2	10VD 02VO 02VC 02MD 02MO 02MC 02RD 02RO	0	1	1.7001619339	None	None	None	None	1
2.7	2015_May_22_1341	s	s	7	5	SIC	350	RC	0	1	02VD 02VO 02VC 02MD 02MO 02MC 02RD 09RO	1	0	1.10578584671	-314.0	-274.0	-308	-275	1
2.7	2015_May_22_1341	s	s	7	5	SIC	351	RC	0	2	02VD 02VO 02VC 02MD 02MO 02MC 09RD 02RO	1	0	1.40908694267	359.0	324.0	354	327	1
2.7	2015_May_22_1341	s	s	7	5	SIC	352	RC	2	0	02VD 02VO 09VC 02MD 02MO 02MC 02RD 02RO	1	0	0.687405824661	-369.0	173.0	-374	178	1
2.7	2015_May_22_1341	s	s	7	5	SIC	353	ABS	2	1	02VD 10VO 02VC 02MD 02MO 02MC 02RD 02RO	0	1	1.37655997276	None	None	None	None	1
2.7	2015_May_22_1341	s	s	7	5	SIC	354	RC	0	1	02VD 02VO 02VC 02MD 02MO 02MC 02RD 09RO	1	0	1.52955198288	-385.0	-38.0	-401	-30	1
2.7	2015_May_22_1341	s	s	7	5	SIC	355	RC	1	1	02VD 02VO 02VC 02MD 09MO 02MC 02RD 02RO	1	0	1.23530507088	-493.0	-101.0	-499	-98	1
2.7	2015_May_22_1341	s	s	7	5	SIC	356	RC	2	0	02VD 02VO 09VC 02MD 02MO 02MC 02RD 02RO	1	0	0.929234981537	-157.0	-147.0	-154	-153	1
2.7	2015_May_22_1341	s	s	7	5	SIC	357	ABS	0	1	02VD 02VO 02VC 02MD 02MO 02MC 02RD 10RO	0	1	7.13232588768	None	None	None	None	1
2.7	2015_May_22_1341	s	s	7	5	SIC	358	ABS	1	2	02VD 02VO 02VC 10MD 02MO 02MC 02RD 02RO	0	1	2.06697201729	None	None	None	None	1
2.7	2015_May_22_1341	s	s	7	5	SIC	359	RC	2	2	09VD 02VO 02VC 02MD 02MO 02MC 02RD 02RO	1	0	1.34124422073	-259.0	-403.0	-258	-411	1
2.7	2015_May_22_1341	s	s	7	5	SIC	360	ABS	0	2	02VD 02VO 02VC 02MD 02MO 02MC 10RD 02RO	0	1	1.7599439621	None	None	None	None	1
2.7	2015_May_22_1341	s	s	7	5	SIC	361	ABS	2	2	10VD 02VO 02VC 02MD 02MO 02MC 02RD 02RO	0	1	1.60668611526	None	None	None	None	1
2.7	2015_May_22_1341	s	s	7	5	SIC	362	ABS	1	1	02VD 02VO 02VC 02MD 10MO 02MC 02RD 02RO	0	1	1.68982386589	None	None	None	None	1
2.7	2015_May_22_1341	s	s	7	5	SIC	363	ABS	2	0	02VD 02VO 10VC 02MD 02MO 02MC 02RD 02RO	0	1	1.52502202988	None	None	None	None	1
2.7	2015_May_22_1341	s	s	7	5	SIC	364	RC	1	0	02VD 02VO 02VC 02MD 02MO 09MC 02RD 02RO	1	0	1.68887281418	527.0	-56.0	526	-56	1
2.7	2015_May_22_1341	s	s	7	5	SIC	365	RC	0	2	02VD 02VO 02VC 02MD 02MO 02MC 09RD 02RO	0	1	2.2711288929	538.0	-396.0	None	None	0
2.7	2015_May_22_1341	s	s	7	5	SIC	366	ABS	1	0	02VD 02VO 02VC 02MD 02MO 10MC 02RD 02RO	0	1	2.71596097946	None	None	None	None	1
2.7	2015_May_22_1341	s	s	7	5	SIC	367	RC	1	2	02VD 02VO 02VC 09MD 02MO 02MC 02RD 02RO	0	1	1.33312606812	233.0	-220.0	None	None	0
2.7	2015_May_22_1341	s	s	7	5	SIC	368	RC	2	1	02VD 09VO 02VC 02MD 02MO 02MC 02RD 02RO	1	0	0.940973997116	-27.0	376.0	-30	377	1
2.7	2015_May_22_1341	s	s	7	5	SIC	369	ABS	1	2	02VD 02VO 02VC 10MD 02MO 02MC 02RD 02RO	0	1	1.91794109344	None	None	None	None	1
2.7	2015_May_22_1341	s	s	7	5	SIC	370	ABS	1	0	02VD 02VO 02VC 02MD 02MO 10MC 02RD 02RO	0	1	2.43139314651	None	None	None	None	1
2.7	2015_May_22_1341	s	s	7	5	SIC	371	RC	1	2	02VD 02VO 02VC 09MD 02MO 02MC 02RD 02RO	1	0	1.10564112663	-172.0	334.0	-173	339	1
2.7	2015_May_22_1341	s	s	7	5	SIC	372	ABS	0	2	02VD 02VO 02VC 02MD 02MO 02MC 10RD 02RO	0	1	1.97672891617	None	None	None	None	1
2.7	2015_May_22_1341	s	s	7	5	SIC	373	RC	0	2	02VD 02VO 02VC 02MD 02MO 02MC 09RD 02RO	1	0	0.952972173691	130.0	284.0	126	290	1
2.7	2015_May_22_1341	s	s	7	5	SIC	374	ABS	2	2	10VD 02VO 02VC 02MD 02MO 02MC 02RD 02RO	0	1	1.69185996056	None	None	None	None	1
2.7	2015_May_22_1341	s	s	7	5	SIC	375	RC	1	0	02VD 02VO 02VC 02MD 02MO 09MC 02RD 02RO	1	0	0.952783107758	-1.0	307.0	1	310	1
2.7	2015_May_22_1341	s	s	7	5	SIC	376	RC	1	1	02VD 02VO 02VC 02MD 09MO 02MC 02RD 02RO	1	0	5.55512404442	60.0	58.0	56	66	1
2.7	2015_May_22_1341	s	s	7	5	SIC	377	ABS	2	0	02VD 02VO 10VC 02MD 02MO 02MC 02RD 02RO	0	1	1.91313910484	None	None	None	None	1
2.7	2015_May_22_1341	s	s	7	5	SIC	378	ABS	0	1	02VD 02VO 02VC 02MD 02MO 02MC 02RD 10RO	0	1	6.66947603226	None	None	None	None	1
2.7	2015_May_22_1341	s	s	7	5	SIC	379	RC	2	0	02VD 02VO 09VC 02MD 02MO 02MC 02RD 02RO	1	0	5.04890108109	-242.0	-35.0	-237	-40	1
2.7	2015_May_22_1341	s	s	7	5	SIC	380	ABS	2	1	02VD 10VO 02VC 02MD 02MO 02MC 02RD 02RO	0	1	1.04456806183	None	None	None	None	1
2.7	2015_May_22_1341	s	s	7	5	SIC	381	RC	2	1	02VD 09VO 02VC 02MD 02MO 02MC 02RD 02RO	1	0	2.30154418945	317.0	-354.0	314	-348	1
2.7	2015_May_22_1341	s	s	7	5	SIC	382	RC	2	2	09VD 02VO 02VC 02MD 02MO 02MC 02RD 02RO	1	0	0.865435123444	227.0	84.0	226	75	1
2.7	2015_May_22_1341	s	s	7	5	SIC	383	ABS	1	1	02VD 02VO 02VC 02MD 10MO 02MC 02RD 02RO	0	1	2.46627521515	None	None	None	None	1
2.7	2015_May_22_1341	s	s	7	5	SIC	384	RC	0	1	02VD 02VO 02VC 02MD 02MO 02MC 02RD 09RO	1	0	1.48938202858	347.0	303.0	339	300	1
2.7	2015_May_22_1341	s	s	7	5	SIC	385	ABS	0	2	02VD 02VO 02VC 02MD 02MO 02MC 10RD 02RO	0	1	2.55891895294	None	None	None	None	1
2.7	2015_May_22_1341	s	s	7	5	SIC	386	RC	1	0	02VD 02VO 02VC 02MD 02MO 09MC 02RD 02RO	1	0	0.856047868729	11.0	287.0	5	285	1
2.7	2015_May_22_1341	s	s	7	5	SIC	387	ABS	2	0	02VD 02VO 10VC 02MD 02MO 02MC 02RD 02RO	0	1	2.91849589348	None	None	None	None	1
2.7	2015_May_22_1341	s	s	7	5	SIC	388	RC	0	2	02VD 02VO 02VC 02MD 02MO 02MC 09RD 02RO	1	0	0.79986000061	-274.0	165.0	-284	171	1
2.7	2015_May_22_1341	s	s	7	5	SIC	389	RC	2	2	09VD 02VO 02VC 02MD 02MO 02MC 02RD 02RO	1	0	2.09107089043	398.0	-134.0	393	-132	1
2.7	2015_May_22_1341	s	s	7	5	SIC	390	ABS	2	1	02VD 10VO 02VC 02MD 02MO 02MC 02RD 02RO	0	1	2.48984479904	None	None	None	None	1
2.7	2015_May_22_1341	s	s	7	5	SIC	391	RC	1	1	02VD 02VO 02VC 02MD 09MO 02MC 02RD 02RO	1	0	1.29156303406	-459.0	174.0	-457	172	1
2.7	2015_May_22_1341	s	s	7	5	SIC	392	ABS	0	1	02VD 02VO 02VC 02MD 02MO 02MC 02RD 10RO	0	1	3.43188285828	None	None	None	None	1
2.7	2015_May_22_1341	s	s	7	5	SIC	393	ABS	1	0	02VD 02VO 02VC 02MD 02MO 10MC 02RD 02RO	0	1	3.44848394394	None	None	None	None	1
2.7	2015_May_22_1341	s	s	7	5	SIC	394	ABS	1	1	02VD 02VO 02VC 02MD 10MO 02MC 02RD 02RO	0	1	2.75365900993	None	None	None	None	1
2.7	2015_May_22_1341	s	s	7	5	SIC	395	ABS	1	2	02VD 02VO 02VC 10MD 02MO 02MC 02RD 02RO	0	1	1.50600194931	None	None	None	None	1
2.7	2015_May_22_1341	s	s	7	5	SIC	396	RC	0	1	02VD 02VO 02VC 02MD 02MO 02MC 02RD 09RO	1	0	1.77672982216	284.0	135.0	281	129	1
2.7	2015_May_22_1341	s	s	7	5	SIC	397	ABS	2	2	10VD 02VO 02VC 02MD 02MO 02MC 02RD 02RO	0	1	1.38309383392	None	None	None	None	1
2.7	2015_May_22_1341	s	s	7	5	SIC	398	RC	2	0	02VD 02VO 09VC 02MD 02MO 02MC 02RD 02RO	1	0	0.795826911926	26.0	154.0	34	163	1
2.7	2015_May_22_1341	s	s	7	5	SIC	399	RC	1	2	02VD 02VO 02VC 09MD 02MO 02MC 02RD 02RO	1	0	0.646851062775	-218.0	41.0	-217	35	1
2.7	2015_May_22_1341	s	s	7	5	SIC	400	RC	2	1	02VD 09VO 02VC 02MD 02MO 02MC 02RD 02RO	1	0	0.729272127151	145.0	234.0	143	241	1
2.7	2015_May_22_1341	s	s	7	5	SIC	401	RC	1	0	02VD 02VO 02VC 02MD 02MO 09MC 02RD 02RO	0	1	2.32470607758	-180.0	-373.0	None	None	0
2.7	2015_May_22_1341	s	s	7	5	SIC	402	RC	2	2	09VD 02VO 02VC 02MD 02MO 02MC 02RD 02RO	1	0	1.32433795929	388.0	276.0	381	273	1
2.7	2015_May_22_1341	s	s	7	5	SIC	403	RC	0	1	02VD 02VO 02VC 02MD 02MO 02MC 02RD 09RO	1	0	0.959401130676	182.0	122.0	183	124	1
2.7	2015_May_22_1341	s	s	7	5	SIC	404	ABS	1	1	02VD 02VO 02VC 02MD 10MO 02MC 02RD 02RO	0	1	2.38879108429	None	None	None	None	1
2.7	2015_May_22_1341	s	s	7	5	SIC	405	ABS	1	2	02VD 02VO 02VC 10MD 02MO 02MC 02RD 02RO	0	1	1.63597106934	None	None	None	None	1
2.7	2015_May_22_1341	s	s	7	5	SIC	406	ABS	1	0	02VD 02VO 02VC 02MD 02MO 10MC 02RD 02RO	0	1	1.98401403427	None	None	None	None	1
2.7	2015_May_22_1341	s	s	7	5	SIC	407	ABS	0	2	02VD 02VO 02VC 02MD 02MO 02MC 10RD 02RO	0	1	1.25422406197	None	None	None	None	1
2.7	2015_May_22_1341	s	s	7	5	SIC	408	RC	1	1	02VD 02VO 02VC 02MD 09MO 02MC 02RD 02RO	1	0	1.60698390007	289.0	192.0	292	185	1
2.7	2015_May_22_1341	s	s	7	5	SIC	409	ABS	2	1	02VD 10VO 02VC 02MD 02MO 02MC 02RD 02RO	0	1	1.40678191185	None	None	None	None	1
2.7	2015_May_22_1341	s	s	7	5	SIC	410	RC	2	0	02VD 02VO 09VC 02MD 02MO 02MC 02RD 02RO	1	0	2.42087292671	343.0	-381.0	340	-386	1
2.7	2015_May_22_1341	s	s	7	5	SIC	411	RC	2	1	02VD 09VO 02VC 02MD 02MO 02MC 02RD 02RO	1	0	1.80680298805	449.0	-241.0	445	-236	1
2.7	2015_May_22_1341	s	s	7	5	SIC	412	ABS	0	1	02VD 02VO 02VC 02MD 02MO 02MC 02RD 10RO	0	1	2.71023917198	None	None	None	None	1
2.7	2015_May_22_1341	s	s	7	5	SIC	413	ABS	2	2	10VD 02VO 02VC 02MD 02MO 02MC 02RD 02RO	0	1	1.4590010643	None	None	None	None	1
2.7	2015_May_22_1341	s	s	7	5	SIC	414	RC	0	2	02VD 02VO 02VC 02MD 02MO 02MC 09RD 02RO	0	1	1.30584597588	-400.0	-287.0	None	None	0
2.7	2015_May_22_1341	s	s	7	5	SIC	415	ABS	2	0	02VD 02VO 10VC 02MD 02MO 02MC 02RD 02RO	0	1	1.92189192772	None	None	None	None	1
2.7	2015_May_22_1341	s	s	7	5	SIC	416	RC	1	2	02VD 02VO 02VC 09MD 02MO 02MC 02RD 02RO	1	0	1.21860694885	493.0	77.0	498	75	1
2.7	2015_May_22_1341	s	s	7	5	SIC	417	RC	0	2	02VD 02VO 02VC 02MD 02MO 02MC 09RD 02RO	1	0	1.18818593025	86.0	358.0	86	354	1
2.7	2015_May_22_1341	s	s	7	5	SIC	418	RC	1	1	02VD 02VO 02VC 02MD 09MO 02MC 02RD 02RO	1	0	2.31815910339	-26.0	-315.0	-21	-322	1
2.7	2015_May_22_1341	s	s	7	5	SIC	419	ABS	2	1	02VD 10VO 02VC 02MD 02MO 02MC 02RD 02RO	0	1	2.03331518173	None	None	None	None	1
2.7	2015_May_22_1341	s	s	7	5	SIC	420	ABS	1	1	02VD 02VO 02VC 02MD 10MO 02MC 02RD 02RO	0	1	1.85424518585	None	None	None	None	1
2.7	2015_May_22_1341	s	s	7	5	SIC	421	ABS	0	2	02VD 02VO 02VC 02MD 02MO 02MC 10RD 02RO	0	1	1.77685904503	None	None	None	None	1
2.7	2015_May_22_1341	s	s	7	5	SIC	422	RC	1	0	02VD 02VO 02VC 02MD 02MO 09MC 02RD 02RO	1	0	1.22362303734	40.0	-193.0	44	-192	1
2.7	2015_May_22_1341	s	s	7	5	SIC	423	ABS	1	0	02VD 02VO 02VC 02MD 02MO 10MC 02RD 02RO	0	1	1.85906791687	None	None	None	None	1
2.7	2015_May_22_1341	s	s	7	5	SIC	424	RC	0	1	02VD 02VO 02VC 02MD 02MO 02MC 02RD 09RO	1	0	2.53001213074	-332.0	-263.0	-340	-263	1
2.7	2015_May_22_1341	s	s	7	5	SIC	425	ABS	1	2	02VD 02VO 02VC 10MD 02MO 02MC 02RD 02RO	0	1	2.97735595703	None	None	None	None	1
2.7	2015_May_22_1341	s	s	7	5	SIC	426	ABS	0	1	02VD 02VO 02VC 02MD 02MO 02MC 02RD 10RO	0	1	3.51883792877	None	None	None	None	1
2.7	2015_May_22_1341	s	s	7	5	SIC	427	ABS	2	2	10VD 02VO 02VC 02MD 02MO 02MC 02RD 02RO	0	1	2.40745902061	None	None	None	None	1
2.7	2015_May_22_1341	s	s	7	5	SIC	428	RC	2	2	09VD 02VO 02VC 02MD 02MO 02MC 02RD 02RO	1	0	0.617381811142	-178.0	40.0	-172	45	1
2.7	2015_May_22_1341	s	s	7	5	SIC	429	RC	1	2	02VD 02VO 02VC 09MD 02MO 02MC 02RD 02RO	1	0	1.27426600456	124.0	133.0	124	128	1
2.7	2015_May_22_1341	s	s	7	5	SIC	430	RC	2	1	02VD 09VO 02VC 02MD 02MO 02MC 02RD 02RO	1	0	2.07706093788	-245.0	-163.0	-251	-162	1
2.7	2015_May_22_1341	s	s	7	5	SIC	431	ABS	2	0	02VD 02VO 10VC 02MD 02MO 02MC 02RD 02RO	0	1	3.16020202637	None	None	None	None	1
2.7	2015_May_22_1341	s	s	7	5	SIC	432	RC	2	0	02VD 02VO 09VC 02MD 02MO 02MC 02RD 02RO	1	0	1.64501786232	-264.0	-229.0	-268	-229	1
2.7	2015_May_22_1341	s	s	7	5	SIC	433	ABS	0	2	02VD 02VO 02VC 02MD 02MO 02MC 10RD 02RO	0	1	8.16318511963	None	None	None	None	1
2.7	2015_May_22_1341	s	s	7	5	SIC	434	RC	1	0	02VD 02VO 02VC 02MD 02MO 09MC 02RD 02RO	1	0	3.61289596558	300.0	157.0	307	159	1
2.7	2015_May_22_1341	s	s	7	5	SIC	435	ABS	1	1	02VD 02VO 02VC 02MD 10MO 02MC 02RD 02RO	0	1	2.04225182533	None	None	None	None	1
2.7	2015_May_22_1341	s	s	7	5	SIC	436	ABS	1	0	02VD 02VO 02VC 02MD 02MO 10MC 02RD 02RO	0	1	2.43237900734	None	None	None	None	1
2.7	2015_May_22_1341	s	s	7	5	SIC	437	ABS	2	2	10VD 02VO 02VC 02MD 02MO 02MC 02RD 02RO	0	1	1.45414996147	None	None	None	None	1
2.7	2015_May_22_1341	s	s	7	5	SIC	438	RC	2	1	02VD 09VO 02VC 02MD 02MO 02MC 02RD 02RO	1	0	0.983187198639	-45.0	371.0	-42	362	1
2.7	2015_May_22_1341	s	s	7	5	SIC	439	RC	0	1	02VD 02VO 02VC 02MD 02MO 02MC 02RD 09RO	1	0	5.23734402657	-4.0	135.0	-15	136	1
2.7	2015_May_22_1341	s	s	7	5	SIC	440	RC	1	1	02VD 02VO 02VC 02MD 09MO 02MC 02RD 02RO	1	0	0.623245000839	-147.0	361.0	-148	352	1
2.7	2015_May_22_1341	s	s	7	5	SIC	441	ABS	2	0	02VD 02VO 10VC 02MD 02MO 02MC 02RD 02RO	0	1	1.70344805717	None	None	None	None	1
2.7	2015_May_22_1341	s	s	7	5	SIC	442	RC	2	0	02VD 02VO 09VC 02MD 02MO 02MC 02RD 02RO	1	0	6.17891597748	486.0	-372.0	490	-365	1
2.7	2015_May_22_1341	s	s	7	5	SIC	443	RC	2	2	09VD 02VO 02VC 02MD 02MO 02MC 02RD 02RO	1	0	5.06122684479	415.0	265.0	421	269	1
2.7	2015_May_22_1341	s	s	7	5	SIC	444	ABS	2	1	02VD 10VO 02VC 02MD 02MO 02MC 02RD 02RO	0	1	3.87859797478	None	None	None	None	1
2.7	2015_May_22_1341	s	s	7	5	SIC	445	ABS	1	2	02VD 02VO 02VC 10MD 02MO 02MC 02RD 02RO	0	1	1.64229798317	None	None	None	None	1
2.7	2015_May_22_1341	s	s	7	5	SIC	446	RC	0	2	02VD 02VO 02VC 02MD 02MO 02MC 09RD 02RO	1	0	0.941015958786	158.0	-134.0	158	-135	1
2.7	2015_May_22_1341	s	s	7	5	SIC	447	ABS	0	1	02VD 02VO 02VC 02MD 02MO 02MC 02RD 10RO	0	1	7.68548989296	None	None	None	None	1
2.7	2015_May_22_1341	s	s	7	5	SIC	448	RC	1	2	02VD 02VO 02VC 09MD 02MO 02MC 02RD 02RO	1	0	0.760205984116	-277.0	-62.0	-276	-65	1
2.7	2015_May_22_1341	s	s	7	5	SIC	449	RC	0	1	02VD 02VO 02VC 02MD 02MO 02MC 02RD 09RO	1	0	2.55368804932	-222.0	-24.0	-226	-23	1
2.7	2015_May_22_1341	s	s	7	5	SIC	450	ABS	1	2	02VD 02VO 02VC 10MD 02MO 02MC 02RD 02RO	0	1	1.52391314507	None	None	None	None	1
2.7	2015_May_22_1341	s	s	7	5	SIC	451	ABS	2	1	02VD 10VO 02VC 02MD 02MO 02MC 02RD 02RO	0	1	1.67986106873	None	None	None	None	1
2.7	2015_May_22_1341	s	s	7	5	SIC	452	RC	2	1	02VD 09VO 02VC 02MD 02MO 02MC 02RD 02RO	1	0	2.15339612961	245.0	-349.0	250	-356	1
2.7	2015_May_22_1341	s	s	7	5	SIC	453	RC	2	0	02VD 02VO 09VC 02MD 02MO 02MC 02RD 02RO	1	0	1.40000891685	-331.0	-325.0	-329	-324	1
2.7	2015_May_22_1341	s	s	7	5	SIC	454	RC	1	1	02VD 02VO 02VC 02MD 09MO 02MC 02RD 02RO	1	0	1.16464209557	158.0	312.0	161	312	1
2.7	2015_May_22_1341	s	s	7	5	SIC	455	ABS	1	0	02VD 02VO 02VC 02MD 02MO 10MC 02RD 02RO	0	1	2.57700395584	None	None	None	None	1
2.7	2015_May_22_1341	s	s	7	5	SIC	456	ABS	2	0	02VD 02VO 10VC 02MD 02MO 02MC 02RD 02RO	0	1	1.45392203331	None	None	None	None	1
2.7	2015_May_22_1341	s	s	7	5	SIC	457	RC	1	2	02VD 02VO 02VC 09MD 02MO 02MC 02RD 02RO	1	0	0.740962982178	123.0	12.0	124	10	1
2.7	2015_May_22_1341	s	s	7	5	SIC	458	RC	0	2	02VD 02VO 02VC 02MD 02MO 02MC 09RD 02RO	1	0	0.976354122162	-278.0	-399.0	-278	-401	1
2.7	2015_May_22_1341	s	s	7	5	SIC	459	ABS	0	2	02VD 02VO 02VC 02MD 02MO 02MC 10RD 02RO	0	1	2.71833300591	None	None	None	None	1
2.7	2015_May_22_1341	s	s	7	5	SIC	460	RC	2	2	09VD 02VO 02VC 02MD 02MO 02MC 02RD 02RO	1	0	1.19494080544	59.0	-354.0	57	-353	1
2.7	2015_May_22_1341	s	s	7	5	SIC	461	ABS	1	1	02VD 02VO 02VC 02MD 10MO 02MC 02RD 02RO	1	0	3.97776007652	None	None	-53	-214	0
2.7	2015_May_22_1341	s	s	7	5	SIC	462	RC	1	0	02VD 02VO 02VC 02MD 02MO 09MC 02RD 02RO	1	0	1.77663397789	-423.0	18.0	-425	23	1
2.7	2015_May_22_1341	s	s	7	5	SIC	463	ABS	2	2	10VD 02VO 02VC 02MD 02MO 02MC 02RD 02RO	0	1	1.56483387947	None	None	None	None	1
2.7	2015_May_22_1341	s	s	7	5	SIC	464	ABS	0	1	02VD 02VO 02VC 02MD 02MO 02MC 02RD 10RO	0	1	3.57807612419	None	None	None	None	1
2.7	2015_May_22_1341	s	s	7	5	SIC	465	RC	2	2	09VD 02VO 02VC 02MD 02MO 02MC 02RD 02RO	1	0	0.82062792778	-528.0	341.0	-518	341	1
2.7	2015_May_22_1341	s	s	7	5	SIC	466	ABS	0	1	02VD 02VO 02VC 02MD 02MO 02MC 02RD 10RO	0	1	3.24805808067	None	None	None	None	1
2.7	2015_May_22_1341	s	s	7	5	SIC	467	ABS	2	2	10VD 02VO 02VC 02MD 02MO 02MC 02RD 02RO	0	1	1.49063587189	None	None	None	None	1
2.7	2015_May_22_1341	s	s	7	5	SIC	468	ABS	1	1	02VD 02VO 02VC 02MD 10MO 02MC 02RD 02RO	0	1	1.37405705452	None	None	None	None	1
2.7	2015_May_22_1341	s	s	7	5	SIC	469	RC	1	2	02VD 02VO 02VC 09MD 02MO 02MC 02RD 02RO	1	0	1.19507288933	300.0	-157.0	309	-152	1
2.7	2015_May_22_1341	s	s	7	5	SIC	470	RC	1	0	02VD 02VO 02VC 02MD 02MO 09MC 02RD 02RO	1	0	1.36020302773	173.0	400.0	168	398	1
2.7	2015_May_22_1341	s	s	7	5	SIC	471	RC	2	0	02VD 02VO 09VC 02MD 02MO 02MC 02RD 02RO	1	0	0.870831012726	153.0	67.0	157	67	1
2.7	2015_May_22_1341	s	s	7	5	SIC	472	RC	0	1	02VD 02VO 02VC 02MD 02MO 02MC 02RD 09RO	1	0	3.4552128315	166.0	-176.0	168	-174	1
2.7	2015_May_22_1341	s	s	7	5	SIC	473	ABS	1	2	02VD 02VO 02VC 10MD 02MO 02MC 02RD 02RO	0	1	4.39648008347	None	None	None	None	1
2.7	2015_May_22_1341	s	s	7	5	SIC	474	RC	2	1	02VD 09VO 02VC 02MD 02MO 02MC 02RD 02RO	1	0	1.59501409531	-97.0	-107.0	-98	-104	1
2.7	2015_May_22_1341	s	s	7	5	SIC	475	ABS	0	2	02VD 02VO 02VC 02MD 02MO 02MC 10RD 02RO	0	1	1.64767098427	None	None	None	None	1
2.7	2015_May_22_1341	s	s	7	5	SIC	476	RC	1	1	02VD 02VO 02VC 02MD 09MO 02MC 02RD 02RO	1	0	1.80029678345	308.0	-211.0	305	-210	1
2.7	2015_May_22_1341	s	s	7	5	SIC	477	ABS	2	1	02VD 10VO 02VC 02MD 02MO 02MC 02RD 02RO	0	1	2.05958914757	None	None	None	None	1
2.7	2015_May_22_1341	s	s	7	5	SIC	478	ABS	2	0	02VD 02VO 10VC 02MD 02MO 02MC 02RD 02RO	0	1	1.25388407707	None	None	None	None	1
2.7	2015_May_22_1341	s	s	7	5	SIC	479	ABS	1	0	02VD 02VO 02VC 02MD 02MO 10MC 02RD 02RO	0	1	2.24750089645	None	None	None	None	1
2.7	2015_May_22_1341	s	s	7	5	SIC	480	RC	0	2	02VD 02VO 02VC 02MD 02MO 02MC 09RD 02RO	1	0	0.688794851303	-158.0	146.0	-143	154	1
