Version	Date	Stimuli	Method	Subject	Session	Condition	Trial	Target	Channel1	Channel2	Distractors	LMouseButton	RMouseButton	RT	TargetX	TargetY	ResponseX	ResponseY	Correct
2.7	2015_May_26_1051	s	s	9	4	Capacity	1	ABS	0	2	16RD 08RO	0	1	2.32522296906	None	None	None	None	1
2.7	2015_May_26_1051	s	s	9	4	Capacity	2	RC	0	1	08RD 15RO	1	0	1.05549788475	-63.0	129.0	-69	124	1
2.7	2015_May_26_1051	s	s	9	4	Capacity	3	RC	0	2	15RD 08RO	1	0	0.783199071884	17.0	9.0	15	7	1
2.7	2015_May_26_1051	s	s	9	4	Capacity	4	ABS	0	1	08RD 16RO	0	1	3.10446882248	None	None	None	None	1
2.7	2015_May_26_1051	s	s	9	4	Capacity	5	ABS	0	1	08RD 16RO	0	1	2.99603915215	None	None	None	None	1
2.7	2015_May_26_1051	s	s	9	4	Capacity	6	ABS	0	2	16RD 08RO	0	1	2.00034999847	None	None	None	None	1
2.7	2015_May_26_1051	s	s	9	4	Capacity	7	RC	0	1	08RD 15RO	0	1	2.07096290588	-512.0	-33.0	None	None	0
2.7	2015_May_26_1051	s	s	9	4	Capacity	8	RC	0	2	15RD 08RO	1	0	0.893908977509	-51.0	257.0	-54	254	1
2.7	2015_May_26_1051	s	s	9	4	Capacity	9	ABS	0	2	16RD 08RO	0	1	2.54863715172	None	None	None	None	1
2.7	2015_May_26_1051	s	s	9	4	Capacity	10	RC	0	2	15RD 08RO	1	0	2.38876390457	-497.0	-373.0	-495	-369	1
2.7	2015_May_26_1051	s	s	9	4	Capacity	11	RC	0	1	08RD 15RO	1	0	2.74182510376	-375.0	-277.0	-371	-271	1
2.7	2015_May_26_1051	s	s	9	4	Capacity	12	ABS	0	1	08RD 16RO	0	1	2.57274889946	None	None	None	None	1
2.7	2015_May_26_1051	s	s	9	4	Capacity	13	ABS	0	1	08RD 16RO	0	1	3.04788589478	None	None	None	None	1
2.7	2015_May_26_1051	s	s	9	4	Capacity	14	RC	0	2	15RD 08RO	1	0	1.34813380241	237.0	379.0	233	379	1
2.7	2015_May_26_1051	s	s	9	4	Capacity	15	RC	0	1	08RD 15RO	0	1	3.18722915649	-314.0	-96.0	None	None	0
2.7	2015_May_26_1051	s	s	9	4	Capacity	16	ABS	0	2	16RD 08RO	0	1	2.91368293762	None	None	None	None	1
2.7	2015_May_26_1051	s	s	9	4	Capacity	17	ABS	0	1	08RD 16RO	0	1	3.58521819115	None	None	None	None	1
2.7	2015_May_26_1051	s	s	9	4	Capacity	18	RC	0	2	15RD 08RO	1	0	2.125041008	370.0	306.0	374	310	1
2.7	2015_May_26_1051	s	s	9	4	Capacity	19	ABS	0	2	16RD 08RO	0	1	2.75363302231	None	None	None	None	1
2.7	2015_May_26_1051	s	s	9	4	Capacity	20	RC	0	1	08RD 15RO	1	0	2.51356697083	-500.0	-156.0	-491	-157	1
2.7	2015_May_26_1051	s	s	9	4	Capacity	21	ABS	0	2	16RD 08RO	0	1	2.2828848362	None	None	None	None	1
2.7	2015_May_26_1051	s	s	9	4	Capacity	22	ABS	0	1	08RD 16RO	0	1	2.78111791611	None	None	None	None	1
2.7	2015_May_26_1051	s	s	9	4	Capacity	23	RC	0	1	08RD 15RO	1	0	1.01153302193	167.0	261.0	167	267	1
2.7	2015_May_26_1051	s	s	9	4	Capacity	24	RC	0	2	15RD 08RO	1	0	4.0196120739	-39.0	177.0	-41	184	1
2.7	2015_May_26_1051	s	s	9	4	Capacity	25	RC	0	2	15RD 08RO	1	0	3.09496903419	-496.0	279.0	-495	278	1
2.7	2015_May_26_1051	s	s	9	4	Capacity	26	RC	0	1	08RD 15RO	1	0	2.62105512619	524.0	169.0	523	172	1
2.7	2015_May_26_1051	s	s	9	4	Capacity	27	ABS	0	1	08RD 16RO	0	1	2.98895406723	None	None	None	None	1
2.7	2015_May_26_1051	s	s	9	4	Capacity	28	ABS	0	2	16RD 08RO	0	1	1.63548707962	None	None	None	None	1
2.7	2015_May_26_1051	s	s	9	4	Capacity	29	ABS	0	2	16RD 08RO	0	1	2.12986397743	None	None	None	None	1
2.7	2015_May_26_1051	s	s	9	4	Capacity	30	RC	0	2	15RD 08RO	1	0	2.10313606262	-82.0	303.0	-82	305	1
2.7	2015_May_26_1051	s	s	9	4	Capacity	31	ABS	0	1	08RD 16RO	0	1	2.73640799522	None	None	None	None	1
2.7	2015_May_26_1051	s	s	9	4	Capacity	32	RC	0	1	08RD 15RO	1	0	2.62212610245	-95.0	18.0	-94	22	1
2.7	2015_May_26_1051	s	s	9	4	Capacity	33	RC	0	2	15RD 08RO	1	0	1.52949714661	-263.0	403.0	-270	411	1
2.7	2015_May_26_1051	s	s	9	4	Capacity	34	ABS	0	1	08RD 16RO	0	1	4.97830486298	None	None	None	None	1
2.7	2015_May_26_1051	s	s	9	4	Capacity	35	ABS	0	2	16RD 08RO	0	1	2.3951280117	None	None	None	None	1
2.7	2015_May_26_1051	s	s	9	4	Capacity	36	RC	0	1	08RD 15RO	1	0	2.24262404442	-56.0	-254.0	-57	-252	1
2.7	2015_May_26_1051	s	s	9	4	Capacity	37	ABS	0	1	08RD 16RO	0	1	2.62420320511	None	None	None	None	1
2.7	2015_May_26_1051	s	s	9	4	Capacity	38	RC	0	1	08RD 15RO	1	0	1.32940292358	363.0	227.0	358	228	1
2.7	2015_May_26_1051	s	s	9	4	Capacity	39	ABS	0	2	16RD 08RO	0	1	2.2985200882	None	None	None	None	1
2.7	2015_May_26_1051	s	s	9	4	Capacity	40	RC	0	2	15RD 08RO	1	0	1.3647210598	-190.0	-315.0	-186	-311	1
2.7	2015_May_26_1051	s	s	9	4	Capacity	41	RC	0	2	15RD 08RO	1	0	2.11309695244	-37.0	302.0	-49	311	1
2.7	2015_May_26_1051	s	s	9	4	Capacity	42	RC	0	1	08RD 15RO	1	0	2.56530499458	-204.0	40.0	-208	46	1
2.7	2015_May_26_1051	s	s	9	4	Capacity	43	ABS	0	2	16RD 08RO	0	1	2.04405498505	None	None	None	None	1
2.7	2015_May_26_1051	s	s	9	4	Capacity	44	ABS	0	1	08RD 16RO	0	1	4.64398908615	None	None	None	None	1
2.7	2015_May_26_1051	s	s	9	4	Capacity	45	ABS	0	1	08RD 16RO	0	1	4.25512695312	None	None	None	None	1
2.7	2015_May_26_1051	s	s	9	4	Capacity	46	ABS	0	2	16RD 08RO	0	1	2.25443816185	None	None	None	None	1
2.7	2015_May_26_1051	s	s	9	4	Capacity	47	RC	0	1	08RD 15RO	1	0	1.09402894974	-498.0	-144.0	519	401	0
2.7	2015_May_26_1051	s	s	9	4	Capacity	48	RC	0	2	15RD 08RO	1	0	2.03560209274	-10.0	-371.0	-13	-365	1
2.7	2015_May_26_1051	s	s	9	4	Capacity	49	RC	0	2	15RD 08RO	1	0	2.90688300133	-77.0	239.0	-81	236	1
2.7	2015_May_26_1051	s	s	9	4	Capacity	50	ABS	0	1	08RD 16RO	0	1	3.35100102425	None	None	None	None	1
2.7	2015_May_26_1051	s	s	9	4	Capacity	51	RC	0	1	08RD 15RO	1	0	2.85696697235	-196.0	77.0	-201	84	1
2.7	2015_May_26_1051	s	s	9	4	Capacity	52	ABS	0	2	16RD 08RO	0	1	2.46471691132	None	None	None	None	1
2.7	2015_May_26_1051	s	s	9	4	Capacity	53	RC	0	1	08RD 15RO	0	1	2.75378298759	417.0	-217.0	None	None	0
2.7	2015_May_26_1051	s	s	9	4	Capacity	54	ABS	0	2	16RD 08RO	0	1	2.45932483673	None	None	None	None	1
2.7	2015_May_26_1051	s	s	9	4	Capacity	55	ABS	0	1	08RD 16RO	0	1	3.51673197746	None	None	None	None	1
2.7	2015_May_26_1051	s	s	9	4	Capacity	56	RC	0	2	15RD 08RO	0	1	3.77767419815	-55.0	-246.0	None	None	0
2.7	2015_May_26_1051	s	s	9	4	Capacity	57	RC	0	1	08RD 15RO	0	1	3.42458701134	-327.0	121.0	None	None	0
2.7	2015_May_26_1051	s	s	9	4	Capacity	58	ABS	0	2	16RD 08RO	1	0	2.12193489075	None	None	-171	5	0
2.7	2015_May_26_1051	s	s	9	4	Capacity	59	RC	0	2	15RD 08RO	1	0	1.71782398224	206.0	-245.0	211	-248	1
2.7	2015_May_26_1051	s	s	9	4	Capacity	60	ABS	0	1	08RD 16RO	0	1	3.59638285637	None	None	None	None	1
2.7	2015_May_26_1051	s	s	9	4	Capacity	61	RC	0	2	15RD 08RO	1	0	0.0547168254852	-211.0	-323.0	-19	186	0
2.7	2015_May_26_1051	s	s	9	4	Capacity	62	RC	0	1	08RD 15RO	1	0	5.27952504158	-520.0	327.0	-513	332	1
2.7	2015_May_26_1051	s	s	9	4	Capacity	63	ABS	0	1	08RD 16RO	0	1	3.03136587143	None	None	None	None	1
2.7	2015_May_26_1051	s	s	9	4	Capacity	64	ABS	0	2	16RD 08RO	0	1	2.5417239666	None	None	None	None	1
2.7	2015_May_26_1051	s	s	9	4	Capacity	1	RC	2	0	15VC 08MC	1	0	0.78337597847	-135.0	-81.0	-131	-79	1
2.7	2015_May_26_1051	s	s	9	4	Capacity	2	RC	1	0	08VC 15MC	1	0	0.949247121811	-457.0	-142.0	-455	-143	1
2.7	2015_May_26_1051	s	s	9	4	Capacity	3	ABS	1	0	08VC 16MC	0	1	2.02388215065	None	None	None	None	1
2.7	2015_May_26_1051	s	s	9	4	Capacity	4	ABS	2	0	16VC 08MC	0	1	1.56483793259	None	None	None	None	1
2.7	2015_May_26_1051	s	s	9	4	Capacity	5	ABS	1	0	08VC 16MC	0	1	1.03518104553	None	None	None	None	1
2.7	2015_May_26_1051	s	s	9	4	Capacity	6	RC	2	0	15VC 08MC	1	0	0.599889993668	335.0	138.0	332	136	1
2.7	2015_May_26_1051	s	s	9	4	Capacity	7	RC	1	0	08VC 15MC	1	0	0.665614843369	-158.0	-57.0	-161	-55	1
2.7	2015_May_26_1051	s	s	9	4	Capacity	8	ABS	2	0	16VC 08MC	0	1	1.74144887924	None	None	None	None	1
2.7	2015_May_26_1051	s	s	9	4	Capacity	9	ABS	1	0	08VC 16MC	0	1	1.18320798874	None	None	None	None	1
2.7	2015_May_26_1051	s	s	9	4	Capacity	10	RC	1	0	08VC 15MC	1	0	0.787959098816	301.0	191.0	299	196	1
2.7	2015_May_26_1051	s	s	9	4	Capacity	11	ABS	2	0	16VC 08MC	0	1	0.999835014343	None	None	None	None	1
2.7	2015_May_26_1051	s	s	9	4	Capacity	12	RC	2	0	15VC 08MC	1	0	1.37177705765	-501.0	353.0	-500	362	1
2.7	2015_May_26_1051	s	s	9	4	Capacity	13	RC	1	0	08VC 15MC	1	0	0.870252132416	406.0	-142.0	403	-137	1
2.7	2015_May_26_1051	s	s	9	4	Capacity	14	RC	2	0	15VC 08MC	1	0	1.0066010952	-513.0	217.0	-515	222	1
2.7	2015_May_26_1051	s	s	9	4	Capacity	15	ABS	2	0	16VC 08MC	0	1	1.30589699745	None	None	None	None	1
2.7	2015_May_26_1051	s	s	9	4	Capacity	16	ABS	1	0	08VC 16MC	0	1	1.15285491943	None	None	None	None	1
2.7	2015_May_26_1051	s	s	9	4	Capacity	17	RC	1	0	08VC 15MC	1	0	0.540810108185	41.0	321.0	41	316	1
2.7	2015_May_26_1051	s	s	9	4	Capacity	18	RC	2	0	15VC 08MC	1	0	0.690762996674	-181.0	-205.0	-179	-205	1
2.7	2015_May_26_1051	s	s	9	4	Capacity	19	ABS	2	0	16VC 08MC	0	1	0.905686855316	None	None	None	None	1
2.7	2015_May_26_1051	s	s	9	4	Capacity	20	ABS	1	0	08VC 16MC	0	1	2.30168509483	None	None	None	None	1
2.7	2015_May_26_1051	s	s	9	4	Capacity	21	RC	2	0	15VC 08MC	1	0	0.62984418869	-379.0	265.0	-382	267	1
2.7	2015_May_26_1051	s	s	9	4	Capacity	22	ABS	1	0	08VC 16MC	0	1	1.35095596313	None	None	None	None	1
2.7	2015_May_26_1051	s	s	9	4	Capacity	23	RC	1	0	08VC 15MC	1	0	1.20035600662	438.0	34.0	434	35	1
2.7	2015_May_26_1051	s	s	9	4	Capacity	24	ABS	2	0	16VC 08MC	0	1	1.28234314919	None	None	None	None	1
2.7	2015_May_26_1051	s	s	9	4	Capacity	25	ABS	2	0	16VC 08MC	0	1	1.41181516647	None	None	None	None	1
2.7	2015_May_26_1051	s	s	9	4	Capacity	26	ABS	1	0	08VC 16MC	0	1	1.25576996803	None	None	None	None	1
2.7	2015_May_26_1051	s	s	9	4	Capacity	27	RC	2	0	15VC 08MC	1	0	0.597556114197	126.0	106.0	122	115	1
2.7	2015_May_26_1051	s	s	9	4	Capacity	28	RC	1	0	08VC 15MC	1	0	1.09032917023	-321.0	-301.0	-329	-301	1
2.7	2015_May_26_1051	s	s	9	4	Capacity	29	ABS	2	0	16VC 08MC	0	1	2.05456995964	None	None	None	None	1
2.7	2015_May_26_1051	s	s	9	4	Capacity	30	RC	1	0	08VC 15MC	1	0	0.740842819214	105.0	58.0	105	62	1
2.7	2015_May_26_1051	s	s	9	4	Capacity	31	RC	2	0	15VC 08MC	1	0	0.642030954361	344.0	-300.0	346	-291	1
2.7	2015_May_26_1051	s	s	9	4	Capacity	32	ABS	1	0	08VC 16MC	0	1	1.46594691277	None	None	None	None	1
2.7	2015_May_26_1051	s	s	9	4	Capacity	33	RC	2	0	15VC 08MC	1	0	0.71733379364	72.0	-43.0	70	-37	1
2.7	2015_May_26_1051	s	s	9	4	Capacity	34	RC	1	0	08VC 15MC	1	0	0.952809810638	-220.0	319.0	-225	315	1
2.7	2015_May_26_1051	s	s	9	4	Capacity	35	ABS	2	0	16VC 08MC	0	1	1.51306009293	None	None	None	None	1
2.7	2015_May_26_1051	s	s	9	4	Capacity	36	ABS	1	0	08VC 16MC	0	1	1.43537783623	None	None	None	None	1
2.7	2015_May_26_1051	s	s	9	4	Capacity	37	ABS	1	0	08VC 16MC	0	1	1.65495800972	None	None	None	None	1
2.7	2015_May_26_1051	s	s	9	4	Capacity	38	ABS	2	0	16VC 08MC	0	1	2.59557414055	None	None	None	None	1
2.7	2015_May_26_1051	s	s	9	4	Capacity	39	RC	2	0	15VC 08MC	1	0	0.726147174835	485.0	-187.0	488	-180	1
2.7	2015_May_26_1051	s	s	9	4	Capacity	40	RC	1	0	08VC 15MC	1	0	0.901001930237	124.0	63.0	120	69	1
2.7	2015_May_26_1051	s	s	9	4	Capacity	41	ABS	2	0	16VC 08MC	0	1	1.04206418991	None	None	None	None	1
2.7	2015_May_26_1051	s	s	9	4	Capacity	42	RC	1	0	08VC 15MC	1	0	0.697751998901	306.0	-317.0	306	-318	1
2.7	2015_May_26_1051	s	s	9	4	Capacity	43	ABS	1	0	08VC 16MC	0	1	1.69102406502	None	None	None	None	1
2.7	2015_May_26_1051	s	s	9	4	Capacity	44	RC	2	0	15VC 08MC	1	0	1.19574785233	387.0	362.0	380	370	1
2.7	2015_May_26_1051	s	s	9	4	Capacity	45	ABS	2	0	16VC 08MC	0	1	1.73657202721	None	None	None	None	1
2.7	2015_May_26_1051	s	s	9	4	Capacity	46	RC	1	0	08VC 15MC	1	0	0.677263021469	460.0	-15.0	460	-6	1
2.7	2015_May_26_1051	s	s	9	4	Capacity	47	ABS	1	0	08VC 16MC	0	1	1.49420881271	None	None	None	None	1
2.7	2015_May_26_1051	s	s	9	4	Capacity	48	RC	2	0	15VC 08MC	1	0	0.914410114288	-96.0	-307.0	-100	-298	1
2.7	2015_May_26_1051	s	s	9	4	Capacity	49	ABS	1	0	08VC 16MC	0	1	2.03559494019	None	None	None	None	1
2.7	2015_May_26_1051	s	s	9	4	Capacity	50	ABS	2	0	16VC 08MC	0	1	1.77664494514	None	None	None	None	1
2.7	2015_May_26_1051	s	s	9	4	Capacity	51	RC	1	0	08VC 15MC	1	0	0.783269882202	-95.0	-245.0	-103	-240	1
2.7	2015_May_26_1051	s	s	9	4	Capacity	52	RC	2	0	15VC 08MC	1	0	1.57649803162	315.0	-187.0	311	-184	1
2.7	2015_May_26_1051	s	s	9	4	Capacity	53	ABS	1	0	08VC 16MC	0	1	2.51277899742	None	None	None	None	1
2.7	2015_May_26_1051	s	s	9	4	Capacity	54	ABS	2	0	16VC 08MC	0	1	2.23104214668	None	None	None	None	1
2.7	2015_May_26_1051	s	s	9	4	Capacity	55	RC	1	0	08VC 15MC	1	0	1.0822520256	-91.0	347.0	-93	352	1
2.7	2015_May_26_1051	s	s	9	4	Capacity	56	RC	2	0	15VC 08MC	1	0	0.73633813858	-32.0	-368.0	-36	-362	1
2.7	2015_May_26_1051	s	s	9	4	Capacity	57	ABS	2	0	16VC 08MC	0	1	2.24421000481	None	None	None	None	1
2.7	2015_May_26_1051	s	s	9	4	Capacity	58	RC	2	0	15VC 08MC	1	0	0.616973161697	-103.0	68.0	-106	76	1
2.7	2015_May_26_1051	s	s	9	4	Capacity	59	RC	1	0	08VC 15MC	0	1	1.5883808136	371.0	337.0	None	None	0
2.7	2015_May_26_1051	s	s	9	4	Capacity	60	ABS	1	0	08VC 16MC	1	0	1.67782306671	None	None	81	-5	0
2.7	2015_May_26_1051	s	s	9	4	Capacity	61	ABS	1	0	08VC 16MC	0	1	2.34563398361	None	None	None	None	1
2.7	2015_May_26_1051	s	s	9	4	Capacity	62	RC	2	0	15VC 08MC	1	0	1.31481003761	461.0	325.0	462	328	1
2.7	2015_May_26_1051	s	s	9	4	Capacity	63	ABS	2	0	16VC 08MC	0	1	1.10127997398	None	None	None	None	1
2.7	2015_May_26_1051	s	s	9	4	Capacity	64	RC	1	0	08VC 15MC	1	0	0.583120107651	-170.0	110.0	-167	119	1
2.7	2015_May_26_1051	s	s	9	4	SIC	1	RC	0	2	02VD 02VO 02VC 02MD 02MO 02MC 09RD 02RO	1	0	1.45691084862	95.0	-158.0	93	-160	1
2.7	2015_May_26_1051	s	s	9	4	SIC	2	ABS	1	1	02VD 02VO 02VC 02MD 10MO 02MC 02RD 02RO	0	1	2.71830892563	None	None	None	None	1
2.7	2015_May_26_1051	s	s	9	4	SIC	3	RC	1	2	02VD 02VO 02VC 09MD 02MO 02MC 02RD 02RO	1	0	1.92545080185	-195.0	-337.0	-191	-330	1
2.7	2015_May_26_1051	s	s	9	4	SIC	4	ABS	2	2	10VD 02VO 02VC 02MD 02MO 02MC 02RD 02RO	0	1	2.12991499901	None	None	None	None	1
2.7	2015_May_26_1051	s	s	9	4	SIC	5	ABS	2	1	02VD 10VO 02VC 02MD 02MO 02MC 02RD 02RO	0	1	1.36474394798	None	None	None	None	1
2.7	2015_May_26_1051	s	s	9	4	SIC	6	ABS	1	0	02VD 02VO 02VC 02MD 02MO 10MC 02RD 02RO	0	1	2.77761101723	None	None	None	None	1
2.7	2015_May_26_1051	s	s	9	4	SIC	7	RC	1	1	02VD 02VO 02VC 02MD 09MO 02MC 02RD 02RO	1	0	0.89395403862	-5.0	343.0	1	349	1
2.7	2015_May_26_1051	s	s	9	4	SIC	8	ABS	0	2	02VD 02VO 02VC 02MD 02MO 02MC 10RD 02RO	0	1	2.21027803421	None	None	None	None	1
2.7	2015_May_26_1051	s	s	9	4	SIC	9	ABS	2	0	02VD 02VO 10VC 02MD 02MO 02MC 02RD 02RO	0	1	2.02089715004	None	None	None	None	1
2.7	2015_May_26_1051	s	s	9	4	SIC	10	ABS	0	1	02VD 02VO 02VC 02MD 02MO 02MC 02RD 10RO	0	1	2.76549506187	None	None	None	None	1
2.7	2015_May_26_1051	s	s	9	4	SIC	11	ABS	1	2	02VD 02VO 02VC 10MD 02MO 02MC 02RD 02RO	0	1	1.6518330574	None	None	None	None	1
2.7	2015_May_26_1051	s	s	9	4	SIC	12	RC	1	0	02VD 02VO 02VC 02MD 02MO 09MC 02RD 02RO	1	0	1.21878695488	334.0	-151.0	334	-148	1
2.7	2015_May_26_1051	s	s	9	4	SIC	13	RC	2	1	02VD 09VO 02VC 02MD 02MO 02MC 02RD 02RO	1	0	2.83607387543	527.0	203.0	527	204	1
2.7	2015_May_26_1051	s	s	9	4	SIC	14	RC	0	1	02VD 02VO 02VC 02MD 02MO 02MC 02RD 09RO	1	0	1.4000620842	303.0	183.0	302	176	1
2.7	2015_May_26_1051	s	s	9	4	SIC	15	RC	2	2	09VD 02VO 02VC 02MD 02MO 02MC 02RD 02RO	1	0	1.41188097	-117.0	51.0	-123	51	1
2.7	2015_May_26_1051	s	s	9	4	SIC	16	RC	2	0	02VD 02VO 09VC 02MD 02MO 02MC 02RD 02RO	1	0	2.14874196053	343.0	-403.0	346	-402	1
2.7	2015_May_26_1051	s	s	9	4	SIC	17	RC	1	1	02VD 02VO 02VC 02MD 09MO 02MC 02RD 02RO	1	0	0.811466932297	-29.0	349.0	-26	352	1
2.7	2015_May_26_1051	s	s	9	4	SIC	18	ABS	0	2	02VD 02VO 02VC 02MD 02MO 02MC 10RD 02RO	0	1	1.70609593391	None	None	None	None	1
2.7	2015_May_26_1051	s	s	9	4	SIC	19	ABS	2	0	02VD 02VO 10VC 02MD 02MO 02MC 02RD 02RO	0	1	2.2777659893	None	None	None	None	1
2.7	2015_May_26_1051	s	s	9	4	SIC	20	RC	2	1	02VD 09VO 02VC 02MD 02MO 02MC 02RD 02RO	1	0	0.670262098312	-233.0	222.0	-232	225	1
2.7	2015_May_26_1051	s	s	9	4	SIC	21	RC	2	2	09VD 02VO 02VC 02MD 02MO 02MC 02RD 02RO	1	0	1.38315296173	245.0	-251.0	241	-243	1
2.7	2015_May_26_1051	s	s	9	4	SIC	22	ABS	1	2	02VD 02VO 02VC 10MD 02MO 02MC 02RD 02RO	0	1	1.77053618431	None	None	None	None	1
2.7	2015_May_26_1051	s	s	9	4	SIC	23	ABS	1	1	02VD 02VO 02VC 02MD 10MO 02MC 02RD 02RO	0	1	2.37210297585	None	None	None	None	1
2.7	2015_May_26_1051	s	s	9	4	SIC	24	ABS	0	1	02VD 02VO 02VC 02MD 02MO 02MC 02RD 10RO	0	1	3.09169101715	None	None	None	None	1
2.7	2015_May_26_1051	s	s	9	4	SIC	25	RC	1	2	02VD 02VO 02VC 09MD 02MO 02MC 02RD 02RO	1	0	3.0202870369	-515.0	-171.0	-521	-170	1
2.7	2015_May_26_1051	s	s	9	4	SIC	26	RC	2	0	02VD 02VO 09VC 02MD 02MO 02MC 02RD 02RO	1	0	1.47808599472	-334.0	-406.0	-338	-406	1
2.7	2015_May_26_1051	s	s	9	4	SIC	27	RC	0	2	02VD 02VO 02VC 02MD 02MO 02MC 09RD 02RO	1	0	0.905721187592	196.0	-305.0	191	-307	1
2.7	2015_May_26_1051	s	s	9	4	SIC	28	RC	1	0	02VD 02VO 02VC 02MD 02MO 09MC 02RD 02RO	1	0	0.84188914299	413.0	-158.0	410	-160	1
2.7	2015_May_26_1051	s	s	9	4	SIC	29	ABS	1	0	02VD 02VO 02VC 02MD 02MO 10MC 02RD 02RO	0	1	2.24278497696	None	None	None	None	1
2.7	2015_May_26_1051	s	s	9	4	SIC	30	ABS	2	1	02VD 10VO 02VC 02MD 02MO 02MC 02RD 02RO	0	1	2.61942815781	None	None	None	None	1
2.7	2015_May_26_1051	s	s	9	4	SIC	31	ABS	2	2	10VD 02VO 02VC 02MD 02MO 02MC 02RD 02RO	0	1	2.60067391396	None	None	None	None	1
2.7	2015_May_26_1051	s	s	9	4	SIC	32	RC	0	1	02VD 02VO 02VC 02MD 02MO 02MC 02RD 09RO	1	0	0.729036808014	-49.0	-176.0	-46	-174	1
2.7	2015_May_26_1051	s	s	9	4	SIC	33	RC	1	0	02VD 02VO 02VC 02MD 02MO 09MC 02RD 02RO	1	0	1.5688791275	-295.0	-333.0	-294	-329	1
2.7	2015_May_26_1051	s	s	9	4	SIC	34	ABS	1	2	02VD 02VO 02VC 10MD 02MO 02MC 02RD 02RO	0	1	1.74137377739	None	None	None	None	1
2.7	2015_May_26_1051	s	s	9	4	SIC	35	ABS	1	0	02VD 02VO 02VC 02MD 02MO 10MC 02RD 02RO	0	1	1.91799998283	None	None	None	None	1
2.7	2015_May_26_1051	s	s	9	4	SIC	36	RC	2	1	02VD 09VO 02VC 02MD 02MO 02MC 02RD 02RO	1	0	1.32194018364	353.0	-155.0	352	-148	1
2.7	2015_May_26_1051	s	s	9	4	SIC	37	ABS	0	1	02VD 02VO 02VC 02MD 02MO 02MC 02RD 10RO	0	1	3.45986104012	None	None	None	None	1
2.7	2015_May_26_1051	s	s	9	4	SIC	38	RC	2	0	02VD 02VO 09VC 02MD 02MO 02MC 02RD 02RO	1	0	1.34115219116	468.0	-233.0	470	-235	1
2.7	2015_May_26_1051	s	s	9	4	SIC	39	RC	1	2	02VD 02VO 02VC 09MD 02MO 02MC 02RD 02RO	1	0	1.77671599388	425.0	165.0	425	164	1
2.7	2015_May_26_1051	s	s	9	4	SIC	40	RC	1	1	02VD 02VO 02VC 02MD 09MO 02MC 02RD 02RO	1	0	1.14964199066	335.0	-289.0	338	-289	1
2.7	2015_May_26_1051	s	s	9	4	SIC	41	ABS	2	2	10VD 02VO 02VC 02MD 02MO 02MC 02RD 02RO	0	1	1.95371603966	None	None	None	None	1
2.7	2015_May_26_1051	s	s	9	4	SIC	42	RC	0	1	02VD 02VO 02VC 02MD 02MO 02MC 02RD 09RO	1	0	4.13785099983	188.0	-167.0	179	-168	1
2.7	2015_May_26_1051	s	s	9	4	SIC	43	ABS	0	2	02VD 02VO 02VC 02MD 02MO 02MC 10RD 02RO	0	1	2.18382096291	None	None	None	None	1
2.7	2015_May_26_1051	s	s	9	4	SIC	44	ABS	2	0	02VD 02VO 10VC 02MD 02MO 02MC 02RD 02RO	0	1	2.33027291298	None	None	None	None	1
2.7	2015_May_26_1051	s	s	9	4	SIC	45	RC	2	2	09VD 02VO 02VC 02MD 02MO 02MC 02RD 02RO	1	0	0.833367824554	107.0	-207.0	105	-204	1
2.7	2015_May_26_1051	s	s	9	4	SIC	46	RC	0	2	02VD 02VO 02VC 02MD 02MO 02MC 09RD 02RO	1	0	1.10578489304	482.0	-65.0	480	-56	1
2.7	2015_May_26_1051	s	s	9	4	SIC	47	ABS	2	1	02VD 10VO 02VC 02MD 02MO 02MC 02RD 02RO	0	1	2.19860816002	None	None	None	None	1
2.7	2015_May_26_1051	s	s	9	4	SIC	48	ABS	1	1	02VD 02VO 02VC 02MD 10MO 02MC 02RD 02RO	0	1	1.98552799225	None	None	None	None	1
2.7	2015_May_26_1051	s	s	9	4	SIC	49	RC	0	2	02VD 02VO 02VC 02MD 02MO 02MC 09RD 02RO	1	0	2.48877596855	460.0	-409.0	461	-404	1
2.7	2015_May_26_1051	s	s	9	4	SIC	50	RC	0	1	02VD 02VO 02VC 02MD 02MO 02MC 02RD 09RO	1	0	1.38432502747	-17.0	-60.0	-10	-57	1
2.7	2015_May_26_1051	s	s	9	4	SIC	51	RC	1	2	02VD 02VO 02VC 09MD 02MO 02MC 02RD 02RO	1	0	2.01913404465	-390.0	-271.0	-383	-276	1
2.7	2015_May_26_1051	s	s	9	4	SIC	52	ABS	2	2	10VD 02VO 02VC 02MD 02MO 02MC 02RD 02RO	0	1	1.57657408714	None	None	None	None	1
2.7	2015_May_26_1051	s	s	9	4	SIC	53	ABS	1	0	02VD 02VO 02VC 02MD 02MO 10MC 02RD 02RO	0	1	2.08110690117	None	None	None	None	1
2.7	2015_May_26_1051	s	s	9	4	SIC	54	RC	1	0	02VD 02VO 02VC 02MD 02MO 09MC 02RD 02RO	1	0	1.25923204422	-194.0	-324.0	-186	-315	1
2.7	2015_May_26_1051	s	s	9	4	SIC	55	ABS	1	1	02VD 02VO 02VC 02MD 10MO 02MC 02RD 02RO	0	1	2.20746707916	None	None	None	None	1
2.7	2015_May_26_1051	s	s	9	4	SIC	56	ABS	0	1	02VD 02VO 02VC 02MD 02MO 02MC 02RD 10RO	1	0	0.164066076279	None	None	-324	92	0
2.7	2015_May_26_1051	s	s	9	4	SIC	57	ABS	0	2	02VD 02VO 02VC 02MD 02MO 02MC 10RD 02RO	0	1	1.9650490284	None	None	None	None	1
2.7	2015_May_26_1051	s	s	9	4	SIC	58	ABS	1	2	02VD 02VO 02VC 10MD 02MO 02MC 02RD 02RO	0	1	2.49472808838	None	None	None	None	1
2.7	2015_May_26_1051	s	s	9	4	SIC	59	ABS	2	1	02VD 10VO 02VC 02MD 02MO 02MC 02RD 02RO	0	1	1.7131280899	None	None	None	None	1
2.7	2015_May_26_1051	s	s	9	4	SIC	60	RC	2	1	02VD 09VO 02VC 02MD 02MO 02MC 02RD 02RO	1	0	0.677733182907	-80.0	39.0	-84	42	1
2.7	2015_May_26_1051	s	s	9	4	SIC	61	ABS	2	0	02VD 02VO 10VC 02MD 02MO 02MC 02RD 02RO	0	1	1.56092810631	None	None	None	None	1
2.7	2015_May_26_1051	s	s	9	4	SIC	62	RC	2	2	09VD 02VO 02VC 02MD 02MO 02MC 02RD 02RO	1	0	1.44716501236	26.0	-52.0	34	-53	1
2.7	2015_May_26_1051	s	s	9	4	SIC	63	RC	1	1	02VD 02VO 02VC 02MD 09MO 02MC 02RD 02RO	1	0	1.20745801926	474.0	139.0	472	143	1
2.7	2015_May_26_1051	s	s	9	4	SIC	64	RC	2	0	02VD 02VO 09VC 02MD 02MO 02MC 02RD 02RO	1	0	2.05601000786	309.0	-140.0	301	-143	1
2.7	2015_May_26_1051	s	s	9	4	SIC	65	ABS	2	2	10VD 02VO 02VC 02MD 02MO 02MC 02RD 02RO	0	1	2.26620793343	None	None	None	None	1
2.7	2015_May_26_1051	s	s	9	4	SIC	66	ABS	0	1	02VD 02VO 02VC 02MD 02MO 02MC 02RD 10RO	0	1	3.50713300705	None	None	None	None	1
2.7	2015_May_26_1051	s	s	9	4	SIC	67	RC	2	1	02VD 09VO 02VC 02MD 02MO 02MC 02RD 02RO	1	0	0.740930080414	-343.0	92.0	-343	93	1
2.7	2015_May_26_1051	s	s	9	4	SIC	68	ABS	0	2	02VD 02VO 02VC 02MD 02MO 02MC 10RD 02RO	0	1	2.19244098663	None	None	None	None	1
2.7	2015_May_26_1051	s	s	9	4	SIC	69	RC	1	2	02VD 02VO 02VC 09MD 02MO 02MC 02RD 02RO	1	0	1.30315208435	-109.0	-210.0	-112	-205	1
2.7	2015_May_26_1051	s	s	9	4	SIC	70	RC	1	0	02VD 02VO 02VC 02MD 02MO 09MC 02RD 02RO	1	0	1.51773095131	-356.0	-15.0	-356	-11	1
2.7	2015_May_26_1051	s	s	9	4	SIC	71	RC	1	1	02VD 02VO 02VC 02MD 09MO 02MC 02RD 02RO	1	0	0.618850946426	217.0	29.0	221	31	1
2.7	2015_May_26_1051	s	s	9	4	SIC	72	RC	2	0	02VD 02VO 09VC 02MD 02MO 02MC 02RD 02RO	1	0	1.52443194389	-120.0	-245.0	-123	-242	1
2.7	2015_May_26_1051	s	s	9	4	SIC	73	ABS	2	0	02VD 02VO 10VC 02MD 02MO 02MC 02RD 02RO	1	0	1.76481604576	None	None	-41	43	0
2.7	2015_May_26_1051	s	s	9	4	SIC	74	ABS	1	2	02VD 02VO 02VC 10MD 02MO 02MC 02RD 02RO	0	1	2.90050888062	None	None	None	None	1
2.7	2015_May_26_1051	s	s	9	4	SIC	75	ABS	1	1	02VD 02VO 02VC 02MD 10MO 02MC 02RD 02RO	0	1	2.14876699448	None	None	None	None	1
2.7	2015_May_26_1051	s	s	9	4	SIC	76	RC	0	1	02VD 02VO 02VC 02MD 02MO 02MC 02RD 09RO	0	1	3.36099290848	498.0	-408.0	None	None	0
2.7	2015_May_26_1051	s	s	9	4	SIC	77	ABS	1	0	02VD 02VO 02VC 02MD 02MO 10MC 02RD 02RO	0	1	2.16106009483	None	None	None	None	1
2.7	2015_May_26_1051	s	s	9	4	SIC	78	ABS	2	1	02VD 10VO 02VC 02MD 02MO 02MC 02RD 02RO	0	1	1.55994796753	None	None	None	None	1
2.7	2015_May_26_1051	s	s	9	4	SIC	79	RC	0	2	02VD 02VO 02VC 02MD 02MO 02MC 09RD 02RO	1	0	1.39468407631	2.0	-313.0	1	-304	1
2.7	2015_May_26_1051	s	s	9	4	SIC	80	RC	2	2	09VD 02VO 02VC 02MD 02MO 02MC 02RD 02RO	1	0	1.97205400467	-428.0	350.0	-425	349	1
2.7	2015_May_26_1051	s	s	9	4	SIC	81	RC	2	2	09VD 02VO 02VC 02MD 02MO 02MC 02RD 02RO	1	0	1.60025596619	518.0	-300.0	512	-300	1
2.7	2015_May_26_1051	s	s	9	4	SIC	82	ABS	2	0	02VD 02VO 10VC 02MD 02MO 02MC 02RD 02RO	0	1	1.63535690308	None	None	None	None	1
2.7	2015_May_26_1051	s	s	9	4	SIC	83	ABS	2	2	10VD 02VO 02VC 02MD 02MO 02MC 02RD 02RO	0	1	1.07874894142	None	None	None	None	1
2.7	2015_May_26_1051	s	s	9	4	SIC	84	RC	2	0	02VD 02VO 09VC 02MD 02MO 02MC 02RD 02RO	1	0	1.90614199638	532.0	-191.0	530	-190	1
2.7	2015_May_26_1051	s	s	9	4	SIC	85	ABS	1	2	02VD 02VO 02VC 10MD 02MO 02MC 02RD 02RO	0	1	1.68252205849	None	None	None	None	1
2.7	2015_May_26_1051	s	s	9	4	SIC	86	ABS	2	1	02VD 10VO 02VC 02MD 02MO 02MC 02RD 02RO	0	1	1.59698700905	None	None	None	None	1
2.7	2015_May_26_1051	s	s	9	4	SIC	87	ABS	1	0	02VD 02VO 02VC 02MD 02MO 10MC 02RD 02RO	0	1	1.61195111275	None	None	None	None	1
2.7	2015_May_26_1051	s	s	9	4	SIC	88	ABS	0	2	02VD 02VO 02VC 02MD 02MO 02MC 10RD 02RO	0	1	1.72454094887	None	None	None	None	1
2.7	2015_May_26_1051	s	s	9	4	SIC	89	RC	1	0	02VD 02VO 02VC 02MD 02MO 09MC 02RD 02RO	1	0	2.41999077797	506.0	-378.0	509	-376	1
2.7	2015_May_26_1051	s	s	9	4	SIC	90	RC	0	2	02VD 02VO 02VC 02MD 02MO 02MC 09RD 02RO	1	0	0.682016134262	343.0	183.0	338	188	1
2.7	2015_May_26_1051	s	s	9	4	SIC	91	ABS	0	1	02VD 02VO 02VC 02MD 02MO 02MC 02RD 10RO	0	1	2.88311600685	None	None	None	None	1
2.7	2015_May_26_1051	s	s	9	4	SIC	92	RC	0	1	02VD 02VO 02VC 02MD 02MO 02MC 02RD 09RO	0	1	2.28674006462	-65.0	317.0	None	None	0
2.7	2015_May_26_1051	s	s	9	4	SIC	93	ABS	1	1	02VD 02VO 02VC 02MD 10MO 02MC 02RD 02RO	0	1	1.67791390419	None	None	None	None	1
2.7	2015_May_26_1051	s	s	9	4	SIC	94	RC	1	2	02VD 02VO 02VC 09MD 02MO 02MC 02RD 02RO	1	0	1.63544893265	59.0	-386.0	61	-382	1
2.7	2015_May_26_1051	s	s	9	4	SIC	95	RC	1	1	02VD 02VO 02VC 02MD 09MO 02MC 02RD 02RO	1	0	1.80724811554	-433.0	-157.0	-439	-154	1
2.7	2015_May_26_1051	s	s	9	4	SIC	96	RC	2	1	02VD 09VO 02VC 02MD 02MO 02MC 02RD 02RO	1	0	1.72729420662	-491.0	320.0	-486	321	1
2.7	2015_May_26_1051	s	s	9	4	SIC	97	ABS	1	2	02VD 02VO 02VC 10MD 02MO 02MC 02RD 02RO	0	1	1.98855900764	None	None	None	None	1
2.7	2015_May_26_1051	s	s	9	4	SIC	98	RC	1	2	02VD 02VO 02VC 09MD 02MO 02MC 02RD 02RO	1	0	1.08221411705	266.0	-208.0	264	-203	1
2.7	2015_May_26_1051	s	s	9	4	SIC	99	RC	1	0	02VD 02VO 02VC 02MD 02MO 09MC 02RD 02RO	1	0	0.807416915894	335.0	-4.0	335	-4	1
2.7	2015_May_26_1051	s	s	9	4	SIC	100	RC	0	2	02VD 02VO 02VC 02MD 02MO 02MC 09RD 02RO	1	0	1.25550913811	-387.0	366.0	-382	369	1
2.7	2015_May_26_1051	s	s	9	4	SIC	101	ABS	0	2	02VD 02VO 02VC 02MD 02MO 02MC 10RD 02RO	0	1	1.68936109543	None	None	None	None	1
2.7	2015_May_26_1051	s	s	9	4	SIC	102	RC	1	1	02VD 02VO 02VC 02MD 09MO 02MC 02RD 02RO	1	0	1.86751294136	77.0	-377.0	70	-378	1
2.7	2015_May_26_1051	s	s	9	4	SIC	103	RC	2	1	02VD 09VO 02VC 02MD 02MO 02MC 02RD 02RO	1	0	0.558923959732	102.0	293.0	100	288	1
2.7	2015_May_26_1051	s	s	9	4	SIC	104	RC	0	1	02VD 02VO 02VC 02MD 02MO 02MC 02RD 09RO	1	0	2.2710340023	-505.0	-160.0	-505	-162	1
2.7	2015_May_26_1051	s	s	9	4	SIC	105	RC	2	2	09VD 02VO 02VC 02MD 02MO 02MC 02RD 02RO	0	1	1.57660388947	508.0	-375.0	None	None	0
2.7	2015_May_26_1051	s	s	9	4	SIC	106	ABS	2	1	02VD 10VO 02VC 02MD 02MO 02MC 02RD 02RO	0	1	1.44225502014	None	None	None	None	1
2.7	2015_May_26_1051	s	s	9	4	SIC	107	ABS	1	1	02VD 02VO 02VC 02MD 10MO 02MC 02RD 02RO	0	1	1.77183413506	None	None	None	None	1
2.7	2015_May_26_1051	s	s	9	4	SIC	108	RC	2	0	02VD 02VO 09VC 02MD 02MO 02MC 02RD 02RO	1	0	1.17339205742	533.0	312.0	535	314	1
2.7	2015_May_26_1051	s	s	9	4	SIC	109	ABS	2	2	10VD 02VO 02VC 02MD 02MO 02MC 02RD 02RO	0	1	1.61863017082	None	None	None	None	1
2.7	2015_May_26_1051	s	s	9	4	SIC	110	ABS	2	0	02VD 02VO 10VC 02MD 02MO 02MC 02RD 02RO	0	1	2.12509608269	None	None	None	None	1
2.7	2015_May_26_1051	s	s	9	4	SIC	111	ABS	0	1	02VD 02VO 02VC 02MD 02MO 02MC 02RD 10RO	0	1	2.07091593742	None	None	None	None	1
2.7	2015_May_26_1051	s	s	9	4	SIC	112	ABS	1	0	02VD 02VO 02VC 02MD 02MO 10MC 02RD 02RO	0	1	2.07095599174	None	None	None	None	1
2.7	2015_May_26_1051	s	s	9	4	SIC	113	ABS	1	2	02VD 02VO 02VC 10MD 02MO 02MC 02RD 02RO	0	1	2.41932892799	None	None	None	None	1
2.7	2015_May_26_1051	s	s	9	4	SIC	114	RC	1	1	02VD 02VO 02VC 02MD 09MO 02MC 02RD 02RO	1	0	0.717726945877	201.0	1.0	207	2	1
2.7	2015_May_26_1051	s	s	9	4	SIC	115	ABS	2	0	02VD 02VO 10VC 02MD 02MO 02MC 02RD 02RO	0	1	1.61931109428	None	None	None	None	1
2.7	2015_May_26_1051	s	s	9	4	SIC	116	RC	0	1	02VD 02VO 02VC 02MD 02MO 02MC 02RD 09RO	1	0	1.96507096291	-46.0	-380.0	-51	-389	1
2.7	2015_May_26_1051	s	s	9	4	SIC	117	ABS	2	2	10VD 02VO 02VC 02MD 02MO 02MC 02RD 02RO	0	1	1.56010103226	None	None	None	None	1
2.7	2015_May_26_1051	s	s	9	4	SIC	118	RC	2	1	02VD 09VO 02VC 02MD 02MO 02MC 02RD 02RO	1	0	2.12651491165	1.0	-227.0	-7	-222	1
2.7	2015_May_26_1051	s	s	9	4	SIC	119	RC	1	2	02VD 02VO 02VC 09MD 02MO 02MC 02RD 02RO	1	0	2.14858484268	-157.0	-355.0	-158	-352	1
2.7	2015_May_26_1051	s	s	9	4	SIC	120	ABS	2	1	02VD 10VO 02VC 02MD 02MO 02MC 02RD 02RO	0	1	2.51351594925	None	None	None	None	1
2.7	2015_May_26_1051	s	s	9	4	SIC	121	ABS	0	1	02VD 02VO 02VC 02MD 02MO 02MC 02RD 10RO	0	1	3.28334093094	None	None	None	None	1
2.7	2015_May_26_1051	s	s	9	4	SIC	122	RC	2	2	09VD 02VO 02VC 02MD 02MO 02MC 02RD 02RO	1	0	1.28946900368	-275.0	130.0	-276	136	1
2.7	2015_May_26_1051	s	s	9	4	SIC	123	RC	2	0	02VD 02VO 09VC 02MD 02MO 02MC 02RD 02RO	1	0	0.823344945908	-324.0	38.0	-324	36	1
2.7	2015_May_26_1051	s	s	9	4	SIC	124	ABS	1	0	02VD 02VO 02VC 02MD 02MO 10MC 02RD 02RO	0	1	1.82375693321	None	None	None	None	1
2.7	2015_May_26_1051	s	s	9	4	SIC	125	RC	0	2	02VD 02VO 02VC 02MD 02MO 02MC 09RD 02RO	1	0	0.653443098068	6.0	252.0	3	257	1
2.7	2015_May_26_1051	s	s	9	4	SIC	126	ABS	1	1	02VD 02VO 02VC 02MD 10MO 02MC 02RD 02RO	0	1	1.62368202209	None	None	None	None	1
2.7	2015_May_26_1051	s	s	9	4	SIC	127	RC	1	0	02VD 02VO 02VC 02MD 02MO 09MC 02RD 02RO	1	0	1.03516983986	535.0	254.0	530	262	1
2.7	2015_May_26_1051	s	s	9	4	SIC	128	ABS	0	2	02VD 02VO 02VC 02MD 02MO 02MC 10RD 02RO	0	1	1.70131707191	None	None	None	None	1
2.7	2015_May_26_1051	s	s	9	4	SIC	129	RC	0	2	02VD 02VO 02VC 02MD 02MO 02MC 09RD 02RO	1	0	1.57144403458	411.0	376.0	412	382	1
2.7	2015_May_26_1051	s	s	9	4	SIC	130	ABS	0	1	02VD 02VO 02VC 02MD 02MO 02MC 02RD 10RO	0	1	2.9537820816	None	None	None	None	1
2.7	2015_May_26_1051	s	s	9	4	SIC	131	ABS	1	2	02VD 02VO 02VC 10MD 02MO 02MC 02RD 02RO	0	1	1.68256688118	None	None	None	None	1
2.7	2015_May_26_1051	s	s	9	4	SIC	132	RC	1	1	02VD 02VO 02VC 02MD 09MO 02MC 02RD 02RO	1	0	0.764435052872	116.0	-231.0	112	-232	1
2.7	2015_May_26_1051	s	s	9	4	SIC	133	ABS	0	2	02VD 02VO 02VC 02MD 02MO 02MC 10RD 02RO	0	1	1.91524910927	None	None	None	None	1
2.7	2015_May_26_1051	s	s	9	4	SIC	134	RC	1	0	02VD 02VO 02VC 02MD 02MO 09MC 02RD 02RO	1	0	1.39581203461	311.0	145.0	311	154	1
2.7	2015_May_26_1051	s	s	9	4	SIC	135	RC	0	1	02VD 02VO 02VC 02MD 02MO 02MC 02RD 09RO	1	0	2.5717959404	-341.0	174.0	-345	180	1
2.7	2015_May_26_1051	s	s	9	4	SIC	136	RC	1	2	02VD 02VO 02VC 09MD 02MO 02MC 02RD 02RO	1	0	1.17332601547	-61.0	5.0	-66	12	1
2.7	2015_May_26_1051	s	s	9	4	SIC	137	ABS	1	0	02VD 02VO 02VC 02MD 02MO 10MC 02RD 02RO	0	1	2.44575095177	None	None	None	None	1
2.7	2015_May_26_1051	s	s	9	4	SIC	138	RC	2	2	09VD 02VO 02VC 02MD 02MO 02MC 02RD 02RO	1	0	1.12935495377	109.0	-412.0	109	-409	1
2.7	2015_May_26_1051	s	s	9	4	SIC	139	ABS	1	1	02VD 02VO 02VC 02MD 10MO 02MC 02RD 02RO	0	1	2.1482758522	None	None	None	None	1
2.7	2015_May_26_1051	s	s	9	4	SIC	140	ABS	2	1	02VD 10VO 02VC 02MD 02MO 02MC 02RD 02RO	0	1	2.91355490685	None	None	None	None	1
2.7	2015_May_26_1051	s	s	9	4	SIC	141	RC	2	0	02VD 02VO 09VC 02MD 02MO 02MC 02RD 02RO	1	0	1.07739281654	-77.0	101.0	-80	107	1
2.7	2015_May_26_1051	s	s	9	4	SIC	142	ABS	2	0	02VD 02VO 10VC 02MD 02MO 02MC 02RD 02RO	0	1	1.67767119408	None	None	None	None	1
2.7	2015_May_26_1051	s	s	9	4	SIC	143	ABS	2	2	10VD 02VO 02VC 02MD 02MO 02MC 02RD 02RO	0	1	2.25930404663	None	None	None	None	1
2.7	2015_May_26_1051	s	s	9	4	SIC	144	RC	2	1	02VD 09VO 02VC 02MD 02MO 02MC 02RD 02RO	1	0	0.694087982178	201.0	292.0	200	291	1
2.7	2015_May_26_1051	s	s	9	4	SIC	145	ABS	1	1	02VD 02VO 02VC 02MD 10MO 02MC 02RD 02RO	0	1	1.44195103645	None	None	None	None	1
2.7	2015_May_26_1051	s	s	9	4	SIC	146	RC	1	0	02VD 02VO 02VC 02MD 02MO 09MC 02RD 02RO	1	0	0.88213300705	418.0	-43.0	421	-42	1
2.7	2015_May_26_1051	s	s	9	4	SIC	147	ABS	0	1	02VD 02VO 02VC 02MD 02MO 02MC 02RD 10RO	0	1	3.28380012512	None	None	None	None	1
2.7	2015_May_26_1051	s	s	9	4	SIC	148	ABS	1	0	02VD 02VO 02VC 02MD 02MO 10MC 02RD 02RO	0	1	2.13762903214	None	None	None	None	1
2.7	2015_May_26_1051	s	s	9	4	SIC	149	RC	2	0	02VD 02VO 09VC 02MD 02MO 02MC 02RD 02RO	1	0	0.935575008392	-390.0	323.0	-397	321	1
2.7	2015_May_26_1051	s	s	9	4	SIC	150	RC	0	1	02VD 02VO 02VC 02MD 02MO 02MC 02RD 09RO	1	0	0.893885135651	-401.0	274.0	-406	270	1
2.7	2015_May_26_1051	s	s	9	4	SIC	151	RC	2	2	09VD 02VO 02VC 02MD 02MO 02MC 02RD 02RO	1	0	1.43023180962	360.0	115.0	360	119	1
2.7	2015_May_26_1051	s	s	9	4	SIC	152	RC	1	2	02VD 02VO 02VC 09MD 02MO 02MC 02RD 02RO	1	0	1.26540207863	529.0	247.0	531	251	1
2.7	2015_May_26_1051	s	s	9	4	SIC	153	ABS	1	2	02VD 02VO 02VC 10MD 02MO 02MC 02RD 02RO	0	1	2.55167794228	None	None	None	None	1
2.7	2015_May_26_1051	s	s	9	4	SIC	154	RC	2	1	02VD 09VO 02VC 02MD 02MO 02MC 02RD 02RO	1	0	0.653017044067	-147.0	257.0	-148	265	1
2.7	2015_May_26_1051	s	s	9	4	SIC	155	ABS	0	2	02VD 02VO 02VC 02MD 02MO 02MC 10RD 02RO	0	1	1.43539404869	None	None	None	None	1
2.7	2015_May_26_1051	s	s	9	4	SIC	156	RC	1	1	02VD 02VO 02VC 02MD 09MO 02MC 02RD 02RO	1	0	2.01216506958	397.0	-284.0	395	-280	1
2.7	2015_May_26_1051	s	s	9	4	SIC	157	ABS	2	1	02VD 10VO 02VC 02MD 02MO 02MC 02RD 02RO	0	1	1.92412209511	None	None	None	None	1
2.7	2015_May_26_1051	s	s	9	4	SIC	158	ABS	2	0	02VD 02VO 10VC 02MD 02MO 02MC 02RD 02RO	0	1	2.09454202652	None	None	None	None	1
2.7	2015_May_26_1051	s	s	9	4	SIC	159	ABS	2	2	10VD 02VO 02VC 02MD 02MO 02MC 02RD 02RO	0	1	1.32468509674	None	None	None	None	1
2.7	2015_May_26_1051	s	s	9	4	SIC	160	RC	0	2	02VD 02VO 02VC 02MD 02MO 02MC 09RD 02RO	1	0	2.06312513351	-450.0	-252.0	-456	-248	1
2.7	2015_May_26_1051	s	s	9	4	SIC	161	RC	2	2	09VD 02VO 02VC 02MD 02MO 02MC 02RD 02RO	1	0	1.30108904839	450.0	-125.0	450	-124	1
2.7	2015_May_26_1051	s	s	9	4	SIC	162	RC	1	2	02VD 02VO 02VC 09MD 02MO 02MC 02RD 02RO	1	0	1.2187769413	-82.0	-88.0	-86	-84	1
2.7	2015_May_26_1051	s	s	9	4	SIC	163	ABS	0	1	02VD 02VO 02VC 02MD 02MO 02MC 02RD 10RO	0	1	2.76077198982	None	None	None	None	1
2.7	2015_May_26_1051	s	s	9	4	SIC	164	ABS	0	2	02VD 02VO 02VC 02MD 02MO 02MC 10RD 02RO	0	1	2.136977911	None	None	None	None	1
2.7	2015_May_26_1051	s	s	9	4	SIC	165	RC	2	1	02VD 09VO 02VC 02MD 02MO 02MC 02RD 02RO	1	0	0.700834989548	147.0	115.0	149	114	1
2.7	2015_May_26_1051	s	s	9	4	SIC	166	RC	2	0	02VD 02VO 09VC 02MD 02MO 02MC 02RD 02RO	1	0	1.21170687675	-221.0	-113.0	-217	-109	1
2.7	2015_May_26_1051	s	s	9	4	SIC	167	RC	1	0	02VD 02VO 02VC 02MD 02MO 09MC 02RD 02RO	1	0	1.08932185173	216.0	-133.0	221	-133	1
2.7	2015_May_26_1051	s	s	9	4	SIC	168	ABS	1	1	02VD 02VO 02VC 02MD 10MO 02MC 02RD 02RO	0	1	2.37706184387	None	None	None	None	1
2.7	2015_May_26_1051	s	s	9	4	SIC	169	ABS	2	1	02VD 10VO 02VC 02MD 02MO 02MC 02RD 02RO	0	1	1.45101094246	None	None	None	None	1
2.7	2015_May_26_1051	s	s	9	4	SIC	170	RC	0	2	02VD 02VO 02VC 02MD 02MO 02MC 09RD 02RO	1	0	1.14107608795	160.0	46.0	162	37	1
2.7	2015_May_26_1051	s	s	9	4	SIC	171	ABS	1	2	02VD 02VO 02VC 10MD 02MO 02MC 02RD 02RO	0	1	1.65423607826	None	None	None	None	1
2.7	2015_May_26_1051	s	s	9	4	SIC	172	ABS	2	0	02VD 02VO 10VC 02MD 02MO 02MC 02RD 02RO	0	1	1.61882090569	None	None	None	None	1
2.7	2015_May_26_1051	s	s	9	4	SIC	173	RC	0	1	02VD 02VO 02VC 02MD 02MO 02MC 02RD 09RO	1	0	1.3764500618	-463.0	76.0	-468	82	1
2.7	2015_May_26_1051	s	s	9	4	SIC	174	RC	1	1	02VD 02VO 02VC 02MD 09MO 02MC 02RD 02RO	1	0	0.72399187088	21.0	113.0	17	113	1
2.7	2015_May_26_1051	s	s	9	4	SIC	175	ABS	2	2	10VD 02VO 02VC 02MD 02MO 02MC 02RD 02RO	0	1	1.72956395149	None	None	None	None	1
2.7	2015_May_26_1051	s	s	9	4	SIC	176	ABS	1	0	02VD 02VO 02VC 02MD 02MO 10MC 02RD 02RO	0	1	2.23970913887	None	None	None	None	1
2.7	2015_May_26_1051	s	s	9	4	SIC	177	RC	1	2	02VD 02VO 02VC 09MD 02MO 02MC 02RD 02RO	1	0	0.59574508667	112.0	97.0	119	98	1
2.7	2015_May_26_1051	s	s	9	4	SIC	178	ABS	0	1	02VD 02VO 02VC 02MD 02MO 02MC 02RD 10RO	0	1	2.83012294769	None	None	None	None	1
2.7	2015_May_26_1051	s	s	9	4	SIC	179	RC	1	0	02VD 02VO 02VC 02MD 02MO 09MC 02RD 02RO	1	0	0.517210006714	33.0	219.0	33	220	1
2.7	2015_May_26_1051	s	s	9	4	SIC	180	RC	1	1	02VD 02VO 02VC 02MD 09MO 02MC 02RD 02RO	1	0	0.983196020126	-185.0	307.0	-176	306	1
2.7	2015_May_26_1051	s	s	9	4	SIC	181	ABS	1	0	02VD 02VO 02VC 02MD 02MO 10MC 02RD 02RO	0	1	1.65886998177	None	None	None	None	1
2.7	2015_May_26_1051	s	s	9	4	SIC	182	ABS	2	0	02VD 02VO 10VC 02MD 02MO 02MC 02RD 02RO	0	1	1.75961303711	None	None	None	None	1
2.7	2015_May_26_1051	s	s	9	4	SIC	183	RC	2	0	02VD 02VO 09VC 02MD 02MO 02MC 02RD 02RO	1	0	1.07744789124	-311.0	335.0	-314	327	1
2.7	2015_May_26_1051	s	s	9	4	SIC	184	ABS	2	1	02VD 10VO 02VC 02MD 02MO 02MC 02RD 02RO	0	1	1.93675899506	None	None	None	None	1
2.7	2015_May_26_1051	s	s	9	4	SIC	185	RC	0	1	02VD 02VO 02VC 02MD 02MO 02MC 02RD 09RO	1	0	2.33387207985	514.0	-404.0	518	-401	1
2.7	2015_May_26_1051	s	s	9	4	SIC	186	RC	0	2	02VD 02VO 02VC 02MD 02MO 02MC 09RD 02RO	1	0	1.62369298935	-396.0	-189.0	-388	-186	1
2.7	2015_May_26_1051	s	s	9	4	SIC	187	ABS	1	2	02VD 02VO 02VC 10MD 02MO 02MC 02RD 02RO	0	1	1.39535593987	None	None	None	None	1
2.7	2015_May_26_1051	s	s	9	4	SIC	188	RC	2	1	02VD 09VO 02VC 02MD 02MO 02MC 02RD 02RO	1	0	1.05867195129	188.0	320.0	197	322	1
2.7	2015_May_26_1051	s	s	9	4	SIC	189	RC	2	2	09VD 02VO 02VC 02MD 02MO 02MC 02RD 02RO	1	0	1.60017800331	-241.0	-375.0	-239	-381	1
2.7	2015_May_26_1051	s	s	9	4	SIC	190	ABS	0	2	02VD 02VO 02VC 02MD 02MO 02MC 10RD 02RO	0	1	2.45432591438	None	None	None	None	1
2.7	2015_May_26_1051	s	s	9	4	SIC	191	ABS	1	1	02VD 02VO 02VC 02MD 10MO 02MC 02RD 02RO	0	1	2.31810998917	None	None	None	None	1
2.7	2015_May_26_1051	s	s	9	4	SIC	192	ABS	2	2	10VD 02VO 02VC 02MD 02MO 02MC 02RD 02RO	0	1	1.88265013695	None	None	None	None	1
2.7	2015_May_26_1051	s	s	9	4	SIC	193	RC	1	2	02VD 02VO 02VC 09MD 02MO 02MC 02RD 02RO	1	0	1.17640805244	74.0	230.0	73	231	1
2.7	2015_May_26_1051	s	s	9	4	SIC	194	RC	2	2	09VD 02VO 02VC 02MD 02MO 02MC 02RD 02RO	1	0	1.74147105217	48.0	386.0	46	382	1
2.7	2015_May_26_1051	s	s	9	4	SIC	195	RC	1	0	02VD 02VO 02VC 02MD 02MO 09MC 02RD 02RO	1	0	1.52492785454	18.0	-266.0	14	-262	1
2.7	2015_May_26_1051	s	s	9	4	SIC	196	ABS	1	1	02VD 02VO 02VC 02MD 10MO 02MC 02RD 02RO	0	1	2.03565216064	None	None	None	None	1
2.7	2015_May_26_1051	s	s	9	4	SIC	197	ABS	2	2	10VD 02VO 02VC 02MD 02MO 02MC 02RD 02RO	0	1	2.10630393028	None	None	None	None	1
2.7	2015_May_26_1051	s	s	9	4	SIC	198	RC	2	0	02VD 02VO 09VC 02MD 02MO 02MC 02RD 02RO	1	0	1.30587792397	2.0	-296.0	0	-300	1
2.7	2015_May_26_1051	s	s	9	4	SIC	199	ABS	0	1	02VD 02VO 02VC 02MD 02MO 02MC 02RD 10RO	0	1	2.67836499214	None	None	None	None	1
2.7	2015_May_26_1051	s	s	9	4	SIC	200	RC	2	1	02VD 09VO 02VC 02MD 02MO 02MC 02RD 02RO	1	0	0.675551176071	-117.0	71.0	-119	75	1
2.7	2015_May_26_1051	s	s	9	4	SIC	201	RC	0	2	02VD 02VO 02VC 02MD 02MO 02MC 09RD 02RO	1	0	1.84249591827	524.0	350.0	528	352	1
2.7	2015_May_26_1051	s	s	9	4	SIC	202	ABS	2	1	02VD 10VO 02VC 02MD 02MO 02MC 02RD 02RO	0	1	1.7008330822	None	None	None	None	1
2.7	2015_May_26_1051	s	s	9	4	SIC	203	ABS	0	2	02VD 02VO 02VC 02MD 02MO 02MC 10RD 02RO	0	1	1.89447212219	None	None	None	None	1
2.7	2015_May_26_1051	s	s	9	4	SIC	204	ABS	1	2	02VD 02VO 02VC 10MD 02MO 02MC 02RD 02RO	0	1	1.84231591225	None	None	None	None	1
2.7	2015_May_26_1051	s	s	9	4	SIC	205	RC	1	1	02VD 02VO 02VC 02MD 09MO 02MC 02RD 02RO	1	0	1.89438605309	-245.0	50.0	-245	48	1
2.7	2015_May_26_1051	s	s	9	4	SIC	206	RC	0	1	02VD 02VO 02VC 02MD 02MO 02MC 02RD 09RO	1	0	1.71775889397	175.0	-309.0	167	-310	1
2.7	2015_May_26_1051	s	s	9	4	SIC	207	ABS	2	0	02VD 02VO 10VC 02MD 02MO 02MC 02RD 02RO	0	1	1.9597530365	None	None	None	None	1
2.7	2015_May_26_1051	s	s	9	4	SIC	208	ABS	1	0	02VD 02VO 02VC 02MD 02MO 10MC 02RD 02RO	0	1	2.2320561409	None	None	None	None	1
2.7	2015_May_26_1051	s	s	9	4	SIC	209	RC	0	1	02VD 02VO 02VC 02MD 02MO 02MC 02RD 09RO	1	0	2.2441110611	294.0	-378.0	291	-377	1
2.7	2015_May_26_1051	s	s	9	4	SIC	210	ABS	1	1	02VD 02VO 02VC 02MD 10MO 02MC 02RD 02RO	0	1	1.98293304443	None	None	None	None	1
2.7	2015_May_26_1051	s	s	9	4	SIC	211	RC	1	1	02VD 02VO 02VC 02MD 09MO 02MC 02RD 02RO	1	0	1.46651697159	260.0	64.0	260	66	1
2.7	2015_May_26_1051	s	s	9	4	SIC	212	ABS	2	2	10VD 02VO 02VC 02MD 02MO 02MC 02RD 02RO	0	1	1.50597596169	None	None	None	None	1
2.7	2015_May_26_1051	s	s	9	4	SIC	213	ABS	2	0	02VD 02VO 10VC 02MD 02MO 02MC 02RD 02RO	0	1	1.62063503265	None	None	None	None	1
2.7	2015_May_26_1051	s	s	9	4	SIC	214	ABS	1	2	02VD 02VO 02VC 10MD 02MO 02MC 02RD 02RO	0	1	1.81752109528	None	None	None	None	1
2.7	2015_May_26_1051	s	s	9	4	SIC	215	ABS	1	0	02VD 02VO 02VC 02MD 02MO 10MC 02RD 02RO	0	1	2.09094810486	None	None	None	None	1
2.7	2015_May_26_1051	s	s	9	4	SIC	216	RC	0	2	02VD 02VO 02VC 02MD 02MO 02MC 09RD 02RO	1	0	0.700715065002	89.0	227.0	87	223	1
2.7	2015_May_26_1051	s	s	9	4	SIC	217	RC	2	0	02VD 02VO 09VC 02MD 02MO 02MC 02RD 02RO	1	0	1.3132610321	-77.0	355.0	-77	351	1
2.7	2015_May_26_1051	s	s	9	4	SIC	218	ABS	2	1	02VD 10VO 02VC 02MD 02MO 02MC 02RD 02RO	0	1	1.80885696411	None	None	None	None	1
2.7	2015_May_26_1051	s	s	9	4	SIC	219	ABS	0	1	02VD 02VO 02VC 02MD 02MO 02MC 02RD 10RO	0	1	2.65947389603	None	None	None	None	1
2.7	2015_May_26_1051	s	s	9	4	SIC	220	RC	1	0	02VD 02VO 02VC 02MD 02MO 09MC 02RD 02RO	1	0	1.52486109734	502.0	-352.0	506	-354	1
2.7	2015_May_26_1051	s	s	9	4	SIC	221	ABS	0	2	02VD 02VO 02VC 02MD 02MO 02MC 10RD 02RO	0	1	1.79548501968	None	None	None	None	1
2.7	2015_May_26_1051	s	s	9	4	SIC	222	RC	1	2	02VD 02VO 02VC 09MD 02MO 02MC 02RD 02RO	1	0	0.924476861954	452.0	35.0	455	37	1
2.7	2015_May_26_1051	s	s	9	4	SIC	223	RC	2	1	02VD 09VO 02VC 02MD 02MO 02MC 02RD 02RO	1	0	0.670331001282	236.0	-3.0	231	-3	1
2.7	2015_May_26_1051	s	s	9	4	SIC	224	RC	2	2	09VD 02VO 02VC 02MD 02MO 02MC 02RD 02RO	1	0	1.48245692253	-67.0	-396.0	-75	-390	1
2.7	2015_May_26_1051	s	s	9	4	SIC	225	RC	1	2	02VD 02VO 02VC 09MD 02MO 02MC 02RD 02RO	1	0	1.00619602203	-135.0	-48.0	-138	-46	1
2.7	2015_May_26_1051	s	s	9	4	SIC	226	RC	0	2	02VD 02VO 02VC 02MD 02MO 02MC 09RD 02RO	1	0	1.58835411072	376.0	-410.0	372	-403	1
2.7	2015_May_26_1051	s	s	9	4	SIC	227	RC	1	0	02VD 02VO 02VC 02MD 02MO 09MC 02RD 02RO	1	0	2.15367102623	-540.0	309.0	-545	318	1
2.7	2015_May_26_1051	s	s	9	4	SIC	228	RC	2	0	02VD 02VO 09VC 02MD 02MO 02MC 02RD 02RO	1	0	1.55300402641	327.0	-360.0	327	-354	1
2.7	2015_May_26_1051	s	s	9	4	SIC	229	ABS	2	0	02VD 02VO 10VC 02MD 02MO 02MC 02RD 02RO	0	1	2.31341814995	None	None	None	None	1
2.7	2015_May_26_1051	s	s	9	4	SIC	230	ABS	1	1	02VD 02VO 02VC 02MD 10MO 02MC 02RD 02RO	0	1	2.24752902985	None	None	None	None	1
2.7	2015_May_26_1051	s	s	9	4	SIC	231	ABS	1	0	02VD 02VO 02VC 02MD 02MO 10MC 02RD 02RO	0	1	2.14164805412	None	None	None	None	1
2.7	2015_May_26_1051	s	s	9	4	SIC	232	ABS	0	1	02VD 02VO 02VC 02MD 02MO 02MC 02RD 10RO	0	1	2.70180392265	None	None	None	None	1
2.7	2015_May_26_1051	s	s	9	4	SIC	233	RC	2	1	02VD 09VO 02VC 02MD 02MO 02MC 02RD 02RO	1	0	2.06302404404	-511.0	-336.0	-509	-343	1
2.7	2015_May_26_1051	s	s	9	4	SIC	234	ABS	2	1	02VD 10VO 02VC 02MD 02MO 02MC 02RD 02RO	0	1	2.05444383621	None	None	None	None	1
2.7	2015_May_26_1051	s	s	9	4	SIC	235	ABS	2	2	10VD 02VO 02VC 02MD 02MO 02MC 02RD 02RO	0	1	2.43106985092	None	None	None	None	1
2.7	2015_May_26_1051	s	s	9	4	SIC	236	ABS	0	2	02VD 02VO 02VC 02MD 02MO 02MC 10RD 02RO	0	1	2.20048713684	None	None	None	None	1
2.7	2015_May_26_1051	s	s	9	4	SIC	237	RC	2	2	09VD 02VO 02VC 02MD 02MO 02MC 02RD 02RO	1	0	0.865529060364	32.0	-108.0	39	-108	1
2.7	2015_May_26_1051	s	s	9	4	SIC	238	RC	1	1	02VD 02VO 02VC 02MD 09MO 02MC 02RD 02RO	1	0	1.159979105	-159.0	302.0	-156	301	1
2.7	2015_May_26_1051	s	s	9	4	SIC	239	RC	0	1	02VD 02VO 02VC 02MD 02MO 02MC 02RD 09RO	1	0	1.37438607216	-336.0	-134.0	-333	-130	1
2.7	2015_May_26_1051	s	s	9	4	SIC	240	ABS	1	2	02VD 02VO 02VC 10MD 02MO 02MC 02RD 02RO	0	1	2.10139608383	None	None	None	None	1
2.7	2015_May_26_1051	s	s	9	4	SIC	241	ABS	2	0	02VD 02VO 10VC 02MD 02MO 02MC 02RD 02RO	0	1	2.11805200577	None	None	None	None	1
2.7	2015_May_26_1051	s	s	9	4	SIC	242	RC	2	0	02VD 02VO 09VC 02MD 02MO 02MC 02RD 02RO	0	1	2.30164980888	-102.0	372.0	None	None	0
2.7	2015_May_26_1051	s	s	9	4	SIC	243	RC	2	1	02VD 09VO 02VC 02MD 02MO 02MC 02RD 02RO	1	0	1.09401512146	120.0	-187.0	130	-188	1
2.7	2015_May_26_1051	s	s	9	4	SIC	244	ABS	1	2	02VD 02VO 02VC 10MD 02MO 02MC 02RD 02RO	0	1	1.71783781052	None	None	None	None	1
2.7	2015_May_26_1051	s	s	9	4	SIC	245	ABS	1	1	02VD 02VO 02VC 02MD 10MO 02MC 02RD 02RO	0	1	2.05456018448	None	None	None	None	1
2.7	2015_May_26_1051	s	s	9	4	SIC	246	RC	2	2	09VD 02VO 02VC 02MD 02MO 02MC 02RD 02RO	1	0	0.771463871002	-101.0	330.0	-100	330	1
2.7	2015_May_26_1051	s	s	9	4	SIC	247	ABS	2	2	10VD 02VO 02VC 02MD 02MO 02MC 02RD 02RO	0	1	1.92704892159	None	None	None	None	1
2.7	2015_May_26_1051	s	s	9	4	SIC	248	ABS	2	1	02VD 10VO 02VC 02MD 02MO 02MC 02RD 02RO	0	1	1.6569981575	None	None	None	None	1
2.7	2015_May_26_1051	s	s	9	4	SIC	249	ABS	0	1	02VD 02VO 02VC 02MD 02MO 02MC 02RD 10RO	0	1	2.41230916977	None	None	None	None	1
2.7	2015_May_26_1051	s	s	9	4	SIC	250	RC	0	2	02VD 02VO 02VC 02MD 02MO 02MC 09RD 02RO	1	0	1.64743494987	-526.0	17.0	-529	15	1
2.7	2015_May_26_1051	s	s	9	4	SIC	251	RC	0	1	02VD 02VO 02VC 02MD 02MO 02MC 02RD 09RO	1	0	2.39593410492	-211.0	5.0	-209	3	1
2.7	2015_May_26_1051	s	s	9	4	SIC	252	ABS	0	2	02VD 02VO 02VC 02MD 02MO 02MC 10RD 02RO	0	1	2.05404901505	None	None	None	None	1
2.7	2015_May_26_1051	s	s	9	4	SIC	253	RC	1	1	02VD 02VO 02VC 02MD 09MO 02MC 02RD 02RO	1	0	1.15921592712	408.0	34.0	402	37	1
2.7	2015_May_26_1051	s	s	9	4	SIC	254	ABS	1	0	02VD 02VO 02VC 02MD 02MO 10MC 02RD 02RO	0	1	2.83428621292	None	None	None	None	1
2.7	2015_May_26_1051	s	s	9	4	SIC	255	RC	1	2	02VD 02VO 02VC 09MD 02MO 02MC 02RD 02RO	1	0	1.77195310593	417.0	-131.0	417	-123	1
2.7	2015_May_26_1051	s	s	9	4	SIC	256	RC	1	0	02VD 02VO 02VC 02MD 02MO 09MC 02RD 02RO	1	0	2.40768790245	45.0	-361.0	44	-357	1
2.7	2015_May_26_1051	s	s	9	4	SIC	257	ABS	1	1	02VD 02VO 02VC 02MD 10MO 02MC 02RD 02RO	0	1	1.8944170475	None	None	None	None	1
2.7	2015_May_26_1051	s	s	9	4	SIC	258	RC	1	1	02VD 02VO 02VC 02MD 09MO 02MC 02RD 02RO	1	0	0.982287168503	338.0	18.0	343	22	1
2.7	2015_May_26_1051	s	s	9	4	SIC	259	ABS	1	0	02VD 02VO 02VC 02MD 02MO 10MC 02RD 02RO	0	1	2.2191901207	None	None	None	None	1
2.7	2015_May_26_1051	s	s	9	4	SIC	260	RC	1	2	02VD 02VO 02VC 09MD 02MO 02MC 02RD 02RO	1	0	1.03015089035	82.0	284.0	79	287	1
2.7	2015_May_26_1051	s	s	9	4	SIC	261	ABS	2	0	02VD 02VO 10VC 02MD 02MO 02MC 02RD 02RO	0	1	1.85603785515	None	None	None	None	1
2.7	2015_May_26_1051	s	s	9	4	SIC	262	RC	2	2	09VD 02VO 02VC 02MD 02MO 02MC 02RD 02RO	1	0	0.783718824387	440.0	-272.0	441	-275	1
2.7	2015_May_26_1051	s	s	9	4	SIC	263	ABS	0	1	02VD 02VO 02VC 02MD 02MO 02MC 02RD 10RO	0	1	3.47167515755	None	None	None	None	1
2.7	2015_May_26_1051	s	s	9	4	SIC	264	RC	0	2	02VD 02VO 02VC 02MD 02MO 02MC 09RD 02RO	1	0	1.54130005836	-466.0	213.0	-474	209	1
2.7	2015_May_26_1051	s	s	9	4	SIC	265	ABS	2	2	10VD 02VO 02VC 02MD 02MO 02MC 02RD 02RO	0	1	1.48246002197	None	None	None	None	1
2.7	2015_May_26_1051	s	s	9	4	SIC	266	RC	2	0	02VD 02VO 09VC 02MD 02MO 02MC 02RD 02RO	1	0	1.11754512787	223.0	399.0	222	394	1
2.7	2015_May_26_1051	s	s	9	4	SIC	267	RC	1	0	02VD 02VO 02VC 02MD 02MO 09MC 02RD 02RO	1	0	2.63113093376	0.0	329.0	2	332	1
2.7	2015_May_26_1051	s	s	9	4	SIC	268	RC	0	1	02VD 02VO 02VC 02MD 02MO 02MC 02RD 09RO	1	0	2.46638202667	529.0	238.0	533	238	1
2.7	2015_May_26_1051	s	s	9	4	SIC	269	RC	2	1	02VD 09VO 02VC 02MD 02MO 02MC 02RD 02RO	1	0	0.717274188995	-149.0	-94.0	-152	-93	1
2.7	2015_May_26_1051	s	s	9	4	SIC	270	ABS	1	2	02VD 02VO 02VC 10MD 02MO 02MC 02RD 02RO	0	1	1.85365700722	None	None	None	None	1
2.7	2015_May_26_1051	s	s	9	4	SIC	271	ABS	0	2	02VD 02VO 02VC 02MD 02MO 02MC 10RD 02RO	0	1	1.85564994812	None	None	None	None	1
2.7	2015_May_26_1051	s	s	9	4	SIC	272	ABS	2	1	02VD 10VO 02VC 02MD 02MO 02MC 02RD 02RO	0	1	1.40861105919	None	None	None	None	1
2.7	2015_May_26_1051	s	s	9	4	SIC	273	ABS	1	0	02VD 02VO 02VC 02MD 02MO 10MC 02RD 02RO	0	1	1.81179499626	None	None	None	None	1
2.7	2015_May_26_1051	s	s	9	4	SIC	274	ABS	2	2	10VD 02VO 02VC 02MD 02MO 02MC 02RD 02RO	0	1	1.73642683029	None	None	None	None	1
2.7	2015_May_26_1051	s	s	9	4	SIC	275	ABS	2	0	02VD 02VO 10VC 02MD 02MO 02MC 02RD 02RO	0	1	1.85437321663	None	None	None	None	1
2.7	2015_May_26_1051	s	s	9	4	SIC	276	RC	1	0	02VD 02VO 02VC 02MD 02MO 09MC 02RD 02RO	1	0	0.587911128998	124.0	128.0	120	134	1
2.7	2015_May_26_1051	s	s	9	4	SIC	277	RC	0	2	02VD 02VO 02VC 02MD 02MO 02MC 09RD 02RO	1	0	0.759634017944	89.0	-83.0	87	-91	1
2.7	2015_May_26_1051	s	s	9	4	SIC	278	ABS	0	1	02VD 02VO 02VC 02MD 02MO 02MC 02RD 10RO	0	1	2.3770160675	None	None	None	None	1
2.7	2015_May_26_1051	s	s	9	4	SIC	279	RC	0	1	02VD 02VO 02VC 02MD 02MO 02MC 02RD 09RO	1	0	1.92960810661	518.0	179.0	521	180	1
2.7	2015_May_26_1051	s	s	9	4	SIC	280	RC	2	1	02VD 09VO 02VC 02MD 02MO 02MC 02RD 02RO	1	0	2.11322712898	292.0	-284.0	294	-285	1
2.7	2015_May_26_1051	s	s	9	4	SIC	281	ABS	1	2	02VD 02VO 02VC 10MD 02MO 02MC 02RD 02RO	0	1	1.75317406654	None	None	None	None	1
2.7	2015_May_26_1051	s	s	9	4	SIC	282	ABS	2	1	02VD 10VO 02VC 02MD 02MO 02MC 02RD 02RO	0	1	1.06574702263	None	None	None	None	1
2.7	2015_May_26_1051	s	s	9	4	SIC	283	RC	1	1	02VD 02VO 02VC 02MD 09MO 02MC 02RD 02RO	1	0	1.07046890259	-232.0	-82.0	-238	-83	1
2.7	2015_May_26_1051	s	s	9	4	SIC	284	ABS	1	1	02VD 02VO 02VC 02MD 10MO 02MC 02RD 02RO	0	1	1.66309595108	None	None	None	None	1
2.7	2015_May_26_1051	s	s	9	4	SIC	285	RC	2	0	02VD 02VO 09VC 02MD 02MO 02MC 02RD 02RO	1	0	0.782905101776	198.0	403.0	199	404	1
2.7	2015_May_26_1051	s	s	9	4	SIC	286	RC	2	2	09VD 02VO 02VC 02MD 02MO 02MC 02RD 02RO	1	0	1.60764503479	-484.0	-325.0	-486	-322	1
2.7	2015_May_26_1051	s	s	9	4	SIC	287	ABS	0	2	02VD 02VO 02VC 02MD 02MO 02MC 10RD 02RO	0	1	2.0003631115	None	None	None	None	1
2.7	2015_May_26_1051	s	s	9	4	SIC	288	RC	1	2	02VD 02VO 02VC 09MD 02MO 02MC 02RD 02RO	1	0	1.60015392303	481.0	-115.0	486	-119	1
2.7	2015_May_26_1051	s	s	9	4	SIC	289	ABS	2	0	02VD 02VO 10VC 02MD 02MO 02MC 02RD 02RO	0	1	1.48247098923	None	None	None	None	1
2.7	2015_May_26_1051	s	s	9	4	SIC	290	RC	2	0	02VD 02VO 09VC 02MD 02MO 02MC 02RD 02RO	1	0	0.988075971603	-131.0	-195.0	-135	-193	1
2.7	2015_May_26_1051	s	s	9	4	SIC	291	RC	2	2	09VD 02VO 02VC 02MD 02MO 02MC 02RD 02RO	1	0	1.40002202988	512.0	401.0	513	402	1
2.7	2015_May_26_1051	s	s	9	4	SIC	292	RC	0	1	02VD 02VO 02VC 02MD 02MO 02MC 02RD 09RO	0	1	3.12706398964	282.0	388.0	None	None	0
2.7	2015_May_26_1051	s	s	9	4	SIC	293	ABS	0	2	02VD 02VO 02VC 02MD 02MO 02MC 10RD 02RO	0	1	1.80027914047	None	None	None	None	1
2.7	2015_May_26_1051	s	s	9	4	SIC	294	RC	0	2	02VD 02VO 02VC 02MD 02MO 02MC 09RD 02RO	1	0	0.996842861176	68.0	-228.0	66	-230	1
2.7	2015_May_26_1051	s	s	9	4	SIC	295	RC	1	2	02VD 02VO 02VC 09MD 02MO 02MC 02RD 02RO	1	0	0.752711057663	-142.0	-49.0	-142	-43	1
2.7	2015_May_26_1051	s	s	9	4	SIC	296	ABS	2	1	02VD 10VO 02VC 02MD 02MO 02MC 02RD 02RO	0	1	1.47770404816	None	None	None	None	1
2.7	2015_May_26_1051	s	s	9	4	SIC	297	ABS	0	1	02VD 02VO 02VC 02MD 02MO 02MC 02RD 10RO	0	1	2.97725892067	None	None	None	None	1
2.7	2015_May_26_1051	s	s	9	4	SIC	298	RC	2	1	02VD 09VO 02VC 02MD 02MO 02MC 02RD 02RO	1	0	1.53571796417	-202.0	-292.0	-205	-290	1
2.7	2015_May_26_1051	s	s	9	4	SIC	299	ABS	1	1	02VD 02VO 02VC 02MD 10MO 02MC 02RD 02RO	0	1	1.76495695114	None	None	None	None	1
2.7	2015_May_26_1051	s	s	9	4	SIC	300	RC	1	0	02VD 02VO 02VC 02MD 02MO 09MC 02RD 02RO	1	0	1.14107489586	-94.0	222.0	-95	224	1
2.7	2015_May_26_1051	s	s	9	4	SIC	301	ABS	2	2	10VD 02VO 02VC 02MD 02MO 02MC 02RD 02RO	0	1	1.32466721535	None	None	None	None	1
2.7	2015_May_26_1051	s	s	9	4	SIC	302	ABS	1	0	02VD 02VO 02VC 02MD 02MO 10MC 02RD 02RO	0	1	2.08273100853	None	None	None	None	1
2.7	2015_May_26_1051	s	s	9	4	SIC	303	RC	1	1	02VD 02VO 02VC 02MD 09MO 02MC 02RD 02RO	0	1	1.03500890732	507.0	-266.0	None	None	0
2.7	2015_May_26_1051	s	s	9	4	SIC	304	ABS	1	2	02VD 02VO 02VC 10MD 02MO 02MC 02RD 02RO	0	1	1.18340611458	None	None	None	None	1
2.7	2015_May_26_1051	s	s	9	4	SIC	305	RC	0	1	02VD 02VO 02VC 02MD 02MO 02MC 02RD 09RO	1	0	2.98903989792	-317.0	187.0	-312	187	1
2.7	2015_May_26_1051	s	s	9	4	SIC	306	ABS	2	0	02VD 02VO 10VC 02MD 02MO 02MC 02RD 02RO	0	1	1.54127311707	None	None	None	None	1
2.7	2015_May_26_1051	s	s	9	4	SIC	307	RC	2	1	02VD 09VO 02VC 02MD 02MO 02MC 02RD 02RO	1	0	0.787978172302	-42.0	376.0	-40	373	1
2.7	2015_May_26_1051	s	s	9	4	SIC	308	ABS	2	1	02VD 10VO 02VC 02MD 02MO 02MC 02RD 02RO	0	1	1.51781892776	None	None	None	None	1
2.7	2015_May_26_1051	s	s	9	4	SIC	309	RC	2	2	09VD 02VO 02VC 02MD 02MO 02MC 02RD 02RO	1	0	0.795170068741	-197.0	233.0	-189	238	1
2.7	2015_May_26_1051	s	s	9	4	SIC	310	RC	1	2	02VD 02VO 02VC 09MD 02MO 02MC 02RD 02RO	1	0	0.77619600296	4.0	-102.0	1	-97	1
2.7	2015_May_26_1051	s	s	9	4	SIC	311	RC	2	0	02VD 02VO 09VC 02MD 02MO 02MC 02RD 02RO	1	0	1.2194609642	5.0	-308.0	-2	-299	1
2.7	2015_May_26_1051	s	s	9	4	SIC	312	ABS	0	2	02VD 02VO 02VC 02MD 02MO 02MC 10RD 02RO	0	1	1.51300120354	None	None	None	None	1
2.7	2015_May_26_1051	s	s	9	4	SIC	313	ABS	1	0	02VD 02VO 02VC 02MD 02MO 10MC 02RD 02RO	0	1	2.07813405991	None	None	None	None	1
2.7	2015_May_26_1051	s	s	9	4	SIC	314	RC	1	1	02VD 02VO 02VC 02MD 09MO 02MC 02RD 02RO	1	0	1.91789698601	21.0	-334.0	21	-338	1
2.7	2015_May_26_1051	s	s	9	4	SIC	315	ABS	0	1	02VD 02VO 02VC 02MD 02MO 02MC 02RD 10RO	0	1	3.35214495659	None	None	None	None	1
2.7	2015_May_26_1051	s	s	9	4	SIC	316	RC	0	2	02VD 02VO 02VC 02MD 02MO 02MC 09RD 02RO	1	0	1.67855501175	451.0	-272.0	453	-276	1
2.7	2015_May_26_1051	s	s	9	4	SIC	317	ABS	1	1	02VD 02VO 02VC 02MD 10MO 02MC 02RD 02RO	0	1	1.55991411209	None	None	None	None	1
2.7	2015_May_26_1051	s	s	9	4	SIC	318	ABS	2	2	10VD 02VO 02VC 02MD 02MO 02MC 02RD 02RO	0	1	1.5742020607	None	None	None	None	1
2.7	2015_May_26_1051	s	s	9	4	SIC	319	RC	1	0	02VD 02VO 02VC 02MD 02MO 09MC 02RD 02RO	1	0	1.1239669323	-334.0	-66.0	-329	-63	1
2.7	2015_May_26_1051	s	s	9	4	SIC	320	ABS	1	2	02VD 02VO 02VC 10MD 02MO 02MC 02RD 02RO	0	1	1.56876015663	None	None	None	None	1
2.7	2015_May_26_1051	s	s	9	4	SIC	321	ABS	2	2	10VD 02VO 02VC 02MD 02MO 02MC 02RD 02RO	0	1	1.71783709526	None	None	None	None	1
2.7	2015_May_26_1051	s	s	9	4	SIC	322	RC	1	1	02VD 02VO 02VC 02MD 09MO 02MC 02RD 02RO	1	0	1.312926054	439.0	261.0	436	261	1
2.7	2015_May_26_1051	s	s	9	4	SIC	323	ABS	2	0	02VD 02VO 10VC 02MD 02MO 02MC 02RD 02RO	0	1	1.64520692825	None	None	None	None	1
2.7	2015_May_26_1051	s	s	9	4	SIC	324	ABS	1	2	02VD 02VO 02VC 10MD 02MO 02MC 02RD 02RO	0	1	1.52952003479	None	None	None	None	1
2.7	2015_May_26_1051	s	s	9	4	SIC	325	ABS	2	1	02VD 10VO 02VC 02MD 02MO 02MC 02RD 02RO	0	1	1.67735505104	None	None	None	None	1
2.7	2015_May_26_1051	s	s	9	4	SIC	326	RC	2	0	02VD 02VO 09VC 02MD 02MO 02MC 02RD 02RO	1	0	2.11332297325	417.0	-116.0	406	-110	1
2.7	2015_May_26_1051	s	s	9	4	SIC	327	ABS	0	1	02VD 02VO 02VC 02MD 02MO 02MC 02RD 10RO	0	1	2.4690618515	None	None	None	None	1
2.7	2015_May_26_1051	s	s	9	4	SIC	328	RC	0	2	02VD 02VO 02VC 02MD 02MO 02MC 09RD 02RO	1	0	1.86689805984	450.0	-54.0	450	-49	1
2.7	2015_May_26_1051	s	s	9	4	SIC	329	RC	2	1	02VD 09VO 02VC 02MD 02MO 02MC 02RD 02RO	1	0	0.912813186646	-348.0	206.0	-346	206	1
2.7	2015_May_26_1051	s	s	9	4	SIC	330	ABS	0	2	02VD 02VO 02VC 02MD 02MO 02MC 10RD 02RO	0	1	2.0944890976	None	None	None	None	1
2.7	2015_May_26_1051	s	s	9	4	SIC	331	RC	1	2	02VD 02VO 02VC 09MD 02MO 02MC 02RD 02RO	1	0	0.293626070023	86.0	232.0	8	132	0
2.7	2015_May_26_1051	s	s	9	4	SIC	332	RC	2	2	09VD 02VO 02VC 02MD 02MO 02MC 02RD 02RO	1	0	1.02340602875	437.0	-56.0	438	-57	1
2.7	2015_May_26_1051	s	s	9	4	SIC	333	ABS	1	0	02VD 02VO 02VC 02MD 02MO 10MC 02RD 02RO	0	1	1.97168517113	None	None	None	None	1
2.7	2015_May_26_1051	s	s	9	4	SIC	334	RC	0	1	02VD 02VO 02VC 02MD 02MO 02MC 02RD 09RO	1	0	0.797623157501	-177.0	161.0	-169	159	1
2.7	2015_May_26_1051	s	s	9	4	SIC	335	RC	1	0	02VD 02VO 02VC 02MD 02MO 09MC 02RD 02RO	1	0	0.670474052429	19.0	-44.0	16	-48	1
2.7	2015_May_26_1051	s	s	9	4	SIC	336	ABS	1	1	02VD 02VO 02VC 02MD 10MO 02MC 02RD 02RO	0	1	2.25454306602	None	None	None	None	1
2.7	2015_May_26_1051	s	s	9	4	SIC	337	ABS	1	2	02VD 02VO 02VC 10MD 02MO 02MC 02RD 02RO	0	1	1.91320014	None	None	None	None	1
2.7	2015_May_26_1051	s	s	9	4	SIC	338	ABS	2	2	10VD 02VO 02VC 02MD 02MO 02MC 02RD 02RO	0	1	1.50596690178	None	None	None	None	1
2.7	2015_May_26_1051	s	s	9	4	SIC	339	RC	0	1	02VD 02VO 02VC 02MD 02MO 02MC 02RD 09RO	1	0	1.90214395523	-114.0	-247.0	-120	-246	1
2.7	2015_May_26_1051	s	s	9	4	SIC	340	RC	2	1	02VD 09VO 02VC 02MD 02MO 02MC 02RD 02RO	1	0	1.18332600594	-192.0	58.0	-196	59	1
2.7	2015_May_26_1051	s	s	9	4	SIC	341	RC	2	2	09VD 02VO 02VC 02MD 02MO 02MC 02RD 02RO	1	0	0.99985408783	-75.0	-322.0	-70	-317	1
2.7	2015_May_26_1051	s	s	9	4	SIC	342	ABS	1	0	02VD 02VO 02VC 02MD 02MO 10MC 02RD 02RO	0	1	1.87091398239	None	None	None	None	1
2.7	2015_May_26_1051	s	s	9	4	SIC	343	RC	0	2	02VD 02VO 02VC 02MD 02MO 02MC 09RD 02RO	1	0	0.841667890549	-127.0	297.0	-125	299	1
2.7	2015_May_26_1051	s	s	9	4	SIC	344	RC	1	0	02VD 02VO 02VC 02MD 02MO 09MC 02RD 02RO	1	0	1.9767138958	-493.0	-147.0	-496	-144	1
2.7	2015_May_26_1051	s	s	9	4	SIC	345	RC	1	2	02VD 02VO 02VC 09MD 02MO 02MC 02RD 02RO	0	1	1.56477284431	-386.0	-170.0	None	None	0
2.7	2015_May_26_1051	s	s	9	4	SIC	346	ABS	0	2	02VD 02VO 02VC 02MD 02MO 02MC 10RD 02RO	0	1	2.36520886421	None	None	None	None	1
2.7	2015_May_26_1051	s	s	9	4	SIC	347	ABS	2	0	02VD 02VO 10VC 02MD 02MO 02MC 02RD 02RO	0	1	1.9767870903	None	None	None	None	1
2.7	2015_May_26_1051	s	s	9	4	SIC	348	ABS	0	1	02VD 02VO 02VC 02MD 02MO 02MC 02RD 10RO	0	1	3.00944304466	None	None	None	None	1
2.7	2015_May_26_1051	s	s	9	4	SIC	349	ABS	1	1	02VD 02VO 02VC 02MD 10MO 02MC 02RD 02RO	0	1	1.83597588539	None	None	None	None	1
2.7	2015_May_26_1051	s	s	9	4	SIC	350	RC	1	1	02VD 02VO 02VC 02MD 09MO 02MC 02RD 02RO	1	0	1.10602593422	-277.0	-159.0	-270	-155	1
2.7	2015_May_26_1051	s	s	9	4	SIC	351	RC	2	0	02VD 02VO 09VC 02MD 02MO 02MC 02RD 02RO	1	0	1.29407310486	84.0	361.0	85	362	1
2.7	2015_May_26_1051	s	s	9	4	SIC	352	ABS	2	1	02VD 10VO 02VC 02MD 02MO 02MC 02RD 02RO	0	1	1.54134893417	None	None	None	None	1
2.7	2015_May_26_1051	s	s	9	4	SIC	353	ABS	2	0	02VD 02VO 10VC 02MD 02MO 02MC 02RD 02RO	0	1	1.47064900398	None	None	None	None	1
2.7	2015_May_26_1051	s	s	9	4	SIC	354	RC	2	2	09VD 02VO 02VC 02MD 02MO 02MC 02RD 02RO	1	0	0.646755218506	152.0	193.0	150	200	1
2.7	2015_May_26_1051	s	s	9	4	SIC	355	RC	1	1	02VD 02VO 02VC 02MD 09MO 02MC 02RD 02RO	1	0	1.05667519569	377.0	-85.0	379	-81	1
2.7	2015_May_26_1051	s	s	9	4	SIC	356	ABS	2	2	10VD 02VO 02VC 02MD 02MO 02MC 02RD 02RO	0	1	1.7647600174	None	None	None	None	1
2.7	2015_May_26_1051	s	s	9	4	SIC	357	RC	2	1	02VD 09VO 02VC 02MD 02MO 02MC 02RD 02RO	1	0	1.06543016434	-75.0	-85.0	-84	-80	1
2.7	2015_May_26_1051	s	s	9	4	SIC	358	ABS	2	1	02VD 10VO 02VC 02MD 02MO 02MC 02RD 02RO	0	1	1.63541102409	None	None	None	None	1
2.7	2015_May_26_1051	s	s	9	4	SIC	359	ABS	0	1	02VD 02VO 02VC 02MD 02MO 02MC 02RD 10RO	0	1	2.93017411232	None	None	None	None	1
2.7	2015_May_26_1051	s	s	9	4	SIC	360	RC	2	0	02VD 02VO 09VC 02MD 02MO 02MC 02RD 02RO	1	0	0.917506933212	411.0	43.0	412	44	1
2.7	2015_May_26_1051	s	s	9	4	SIC	361	ABS	1	2	02VD 02VO 02VC 10MD 02MO 02MC 02RD 02RO	0	1	1.25571703911	None	None	None	None	1
2.7	2015_May_26_1051	s	s	9	4	SIC	362	RC	1	0	02VD 02VO 02VC 02MD 02MO 09MC 02RD 02RO	1	0	1.50124597549	-98.0	-410.0	-102	-404	1
2.7	2015_May_26_1051	s	s	9	4	SIC	363	RC	0	2	02VD 02VO 02VC 02MD 02MO 02MC 09RD 02RO	1	0	0.929289102554	-330.0	405.0	-329	407	1
2.7	2015_May_26_1051	s	s	9	4	SIC	364	RC	0	1	02VD 02VO 02VC 02MD 02MO 02MC 02RD 09RO	1	0	2.50143790245	121.0	-320.0	114	-320	1
2.7	2015_May_26_1051	s	s	9	4	SIC	365	ABS	1	1	02VD 02VO 02VC 02MD 10MO 02MC 02RD 02RO	0	1	1.76019406319	None	None	None	None	1
2.7	2015_May_26_1051	s	s	9	4	SIC	366	RC	1	2	02VD 02VO 02VC 09MD 02MO 02MC 02RD 02RO	1	0	0.926242113113	-85.0	382.0	-85	377	1
2.7	2015_May_26_1051	s	s	9	4	SIC	367	ABS	1	0	02VD 02VO 02VC 02MD 02MO 10MC 02RD 02RO	0	1	1.7356698513	None	None	None	None	1
2.7	2015_May_26_1051	s	s	9	4	SIC	368	ABS	0	2	02VD 02VO 02VC 02MD 02MO 02MC 10RD 02RO	0	1	1.72481989861	None	None	None	None	1
2.7	2015_May_26_1051	s	s	9	4	SIC	369	RC	1	1	02VD 02VO 02VC 02MD 09MO 02MC 02RD 02RO	1	0	1.82381796837	-375.0	-350.0	-372	-348	1
2.7	2015_May_26_1051	s	s	9	4	SIC	370	ABS	0	1	02VD 02VO 02VC 02MD 02MO 02MC 02RD 10RO	0	1	2.85961604118	None	None	None	None	1
2.7	2015_May_26_1051	s	s	9	4	SIC	371	RC	2	2	09VD 02VO 02VC 02MD 02MO 02MC 02RD 02RO	1	0	1.64253807068	441.0	-20.0	440	-21	1
2.7	2015_May_26_1051	s	s	9	4	SIC	372	RC	1	0	02VD 02VO 02VC 02MD 02MO 09MC 02RD 02RO	1	0	1.08228206635	-166.0	53.0	-165	53	1
2.7	2015_May_26_1051	s	s	9	4	SIC	373	ABS	1	2	02VD 02VO 02VC 10MD 02MO 02MC 02RD 02RO	0	1	1.35323190689	None	None	None	None	1
2.7	2015_May_26_1051	s	s	9	4	SIC	374	ABS	1	0	02VD 02VO 02VC 02MD 02MO 10MC 02RD 02RO	0	1	2.01213097572	None	None	None	None	1
2.7	2015_May_26_1051	s	s	9	4	SIC	375	RC	0	2	02VD 02VO 02VC 02MD 02MO 02MC 09RD 02RO	1	0	2.25916004181	-300.0	175.0	-305	175	1
2.7	2015_May_26_1051	s	s	9	4	SIC	376	ABS	2	2	10VD 02VO 02VC 02MD 02MO 02MC 02RD 02RO	0	1	1.72493100166	None	None	None	None	1
2.7	2015_May_26_1051	s	s	9	4	SIC	377	ABS	2	1	02VD 10VO 02VC 02MD 02MO 02MC 02RD 02RO	0	1	2.05445981026	None	None	None	None	1
2.7	2015_May_26_1051	s	s	9	4	SIC	378	RC	2	0	02VD 02VO 09VC 02MD 02MO 02MC 02RD 02RO	1	0	1.4942150116	459.0	-34.0	463	-30	1
2.7	2015_May_26_1051	s	s	9	4	SIC	379	RC	1	2	02VD 02VO 02VC 09MD 02MO 02MC 02RD 02RO	1	0	1.63160610199	348.0	-230.0	348	-223	1
2.7	2015_May_26_1051	s	s	9	4	SIC	380	RC	2	1	02VD 09VO 02VC 02MD 02MO 02MC 02RD 02RO	1	0	1.96500301361	23.0	60.0	23	65	1
2.7	2015_May_26_1051	s	s	9	4	SIC	381	ABS	1	1	02VD 02VO 02VC 02MD 10MO 02MC 02RD 02RO	0	1	2.1533408165	None	None	None	None	1
2.7	2015_May_26_1051	s	s	9	4	SIC	382	RC	0	1	02VD 02VO 02VC 02MD 02MO 02MC 02RD 09RO	1	0	3.84833788872	-531.0	344.0	-542	346	1
2.7	2015_May_26_1051	s	s	9	4	SIC	383	ABS	2	0	02VD 02VO 10VC 02MD 02MO 02MC 02RD 02RO	0	1	2.13684105873	None	None	None	None	1
2.7	2015_May_26_1051	s	s	9	4	SIC	384	ABS	0	2	02VD 02VO 02VC 02MD 02MO 02MC 10RD 02RO	0	1	1.4313659668	None	None	None	None	1
2.7	2015_May_26_1051	s	s	9	4	SIC	385	ABS	0	1	02VD 02VO 02VC 02MD 02MO 02MC 02RD 10RO	0	1	2.22952508926	None	None	None	None	1
2.7	2015_May_26_1051	s	s	9	4	SIC	386	ABS	2	2	10VD 02VO 02VC 02MD 02MO 02MC 02RD 02RO	0	1	1.23095107079	None	None	None	None	1
2.7	2015_May_26_1051	s	s	9	4	SIC	387	RC	1	0	02VD 02VO 02VC 02MD 02MO 09MC 02RD 02RO	1	0	1.41973805428	-77.0	-201.0	-72	-205	1
2.7	2015_May_26_1051	s	s	9	4	SIC	388	RC	1	1	02VD 02VO 02VC 02MD 09MO 02MC 02RD 02RO	1	0	1.4235970974	396.0	-24.0	398	-26	1
2.7	2015_May_26_1051	s	s	9	4	SIC	389	ABS	0	2	02VD 02VO 02VC 02MD 02MO 02MC 10RD 02RO	0	1	1.50121283531	None	None	None	None	1
2.7	2015_May_26_1051	s	s	9	4	SIC	390	ABS	1	0	02VD 02VO 02VC 02MD 02MO 10MC 02RD 02RO	0	1	1.67950582504	None	None	None	None	1
2.7	2015_May_26_1051	s	s	9	4	SIC	391	RC	2	2	09VD 02VO 02VC 02MD 02MO 02MC 02RD 02RO	1	0	0.870325088501	-250.0	242.0	-251	245	1
2.7	2015_May_26_1051	s	s	9	4	SIC	392	RC	2	0	02VD 02VO 09VC 02MD 02MO 02MC 02RD 02RO	1	0	0.806437969208	-265.0	52.0	-277	57	1
2.7	2015_May_26_1051	s	s	9	4	SIC	393	RC	1	2	02VD 02VO 02VC 09MD 02MO 02MC 02RD 02RO	1	0	1.17126107216	188.0	-64.0	198	-60	1
2.7	2015_May_26_1051	s	s	9	4	SIC	394	RC	0	2	02VD 02VO 02VC 02MD 02MO 02MC 09RD 02RO	1	0	0.653566122055	277.0	203.0	278	209	1
2.7	2015_May_26_1051	s	s	9	4	SIC	395	ABS	1	1	02VD 02VO 02VC 02MD 10MO 02MC 02RD 02RO	0	1	1.62375593185	None	None	None	None	1
2.7	2015_May_26_1051	s	s	9	4	SIC	396	ABS	2	0	02VD 02VO 10VC 02MD 02MO 02MC 02RD 02RO	0	1	1.67614507675	None	None	None	None	1
2.7	2015_May_26_1051	s	s	9	4	SIC	397	ABS	1	2	02VD 02VO 02VC 10MD 02MO 02MC 02RD 02RO	0	1	1.63544106483	None	None	None	None	1
2.7	2015_May_26_1051	s	s	9	4	SIC	398	ABS	2	1	02VD 10VO 02VC 02MD 02MO 02MC 02RD 02RO	0	1	2.05135393143	None	None	None	None	1
2.7	2015_May_26_1051	s	s	9	4	SIC	399	RC	0	1	02VD 02VO 02VC 02MD 02MO 02MC 02RD 09RO	1	0	0.773195028305	63.0	123.0	64	120	1
2.7	2015_May_26_1051	s	s	9	4	SIC	400	RC	2	1	02VD 09VO 02VC 02MD 02MO 02MC 02RD 02RO	1	0	1.2538330555	-217.0	-121.0	-216	-121	1
2.7	2015_May_26_1051	s	s	9	4	SIC	401	RC	2	2	09VD 02VO 02VC 02MD 02MO 02MC 02RD 02RO	1	0	0.764446973801	350.0	-47.0	350	-44	1
2.7	2015_May_26_1051	s	s	9	4	SIC	402	ABS	2	1	02VD 10VO 02VC 02MD 02MO 02MC 02RD 02RO	0	1	1.53596901894	None	None	None	None	1
2.7	2015_May_26_1051	s	s	9	4	SIC	403	RC	1	2	02VD 02VO 02VC 09MD 02MO 02MC 02RD 02RO	1	0	0.653828859329	-9.0	201.0	-10	203	1
2.7	2015_May_26_1051	s	s	9	4	SIC	404	ABS	2	2	10VD 02VO 02VC 02MD 02MO 02MC 02RD 02RO	0	1	1.65430021286	None	None	None	None	1
2.7	2015_May_26_1051	s	s	9	4	SIC	405	RC	2	1	02VD 09VO 02VC 02MD 02MO 02MC 02RD 02RO	1	0	1.14821982384	219.0	-333.0	221	-335	1
2.7	2015_May_26_1051	s	s	9	4	SIC	406	ABS	0	1	02VD 02VO 02VC 02MD 02MO 02MC 02RD 10RO	0	1	2.57237386703	None	None	None	None	1
2.7	2015_May_26_1051	s	s	9	4	SIC	407	RC	2	0	02VD 02VO 09VC 02MD 02MO 02MC 02RD 02RO	1	0	1.45892500877	-417.0	384.0	-416	386	1
2.7	2015_May_26_1051	s	s	9	4	SIC	408	ABS	2	0	02VD 02VO 10VC 02MD 02MO 02MC 02RD 02RO	0	1	1.50179290771	None	None	None	None	1
2.7	2015_May_26_1051	s	s	9	4	SIC	409	ABS	1	0	02VD 02VO 02VC 02MD 02MO 10MC 02RD 02RO	0	1	2.00749492645	None	None	None	None	1
2.7	2015_May_26_1051	s	s	9	4	SIC	410	ABS	0	2	02VD 02VO 02VC 02MD 02MO 02MC 10RD 02RO	0	1	2.01871109009	None	None	None	None	1
2.7	2015_May_26_1051	s	s	9	4	SIC	411	RC	1	0	02VD 02VO 02VC 02MD 02MO 09MC 02RD 02RO	1	0	0.999827861786	260.0	25.0	258	27	1
2.7	2015_May_26_1051	s	s	9	4	SIC	412	ABS	1	2	02VD 02VO 02VC 10MD 02MO 02MC 02RD 02RO	0	1	1.65900707245	None	None	None	None	1
2.7	2015_May_26_1051	s	s	9	4	SIC	413	ABS	1	1	02VD 02VO 02VC 02MD 10MO 02MC 02RD 02RO	0	1	1.63006687164	None	None	None	None	1
2.7	2015_May_26_1051	s	s	9	4	SIC	414	RC	1	1	02VD 02VO 02VC 02MD 09MO 02MC 02RD 02RO	1	0	1.05085778236	-150.0	143.0	-153	141	1
2.7	2015_May_26_1051	s	s	9	4	SIC	415	RC	0	2	02VD 02VO 02VC 02MD 02MO 02MC 09RD 02RO	1	0	1.04693603516	358.0	-205.0	367	-202	1
2.7	2015_May_26_1051	s	s	9	4	SIC	416	RC	0	1	02VD 02VO 02VC 02MD 02MO 02MC 02RD 09RO	1	0	0.665527820587	86.0	180.0	86	186	1
2.7	2015_May_26_1051	s	s	9	4	SIC	417	RC	1	1	02VD 02VO 02VC 02MD 09MO 02MC 02RD 02RO	1	0	1.71326899529	-178.0	-362.0	-179	-365	1
2.7	2015_May_26_1051	s	s	9	4	SIC	418	RC	1	2	02VD 02VO 02VC 09MD 02MO 02MC 02RD 02RO	1	0	0.941012144089	327.0	-171.0	329	-172	1
2.7	2015_May_26_1051	s	s	9	4	SIC	419	ABS	1	1	02VD 02VO 02VC 02MD 10MO 02MC 02RD 02RO	0	1	1.17641687393	None	None	None	None	1
2.7	2015_May_26_1051	s	s	9	4	SIC	420	RC	0	2	02VD 02VO 02VC 02MD 02MO 02MC 09RD 02RO	1	0	0.830175876617	434.0	180.0	437	186	1
2.7	2015_May_26_1051	s	s	9	4	SIC	421	ABS	0	1	02VD 02VO 02VC 02MD 02MO 02MC 02RD 10RO	0	1	3.14212393761	None	None	None	None	1
2.7	2015_May_26_1051	s	s	9	4	SIC	422	ABS	0	2	02VD 02VO 02VC 02MD 02MO 02MC 10RD 02RO	0	1	1.57169008255	None	None	None	None	1
2.7	2015_May_26_1051	s	s	9	4	SIC	423	ABS	2	2	10VD 02VO 02VC 02MD 02MO 02MC 02RD 02RO	0	1	1.71260595322	None	None	None	None	1
2.7	2015_May_26_1051	s	s	9	4	SIC	424	ABS	1	0	02VD 02VO 02VC 02MD 02MO 10MC 02RD 02RO	0	1	1.55313611031	None	None	None	None	1
2.7	2015_May_26_1051	s	s	9	4	SIC	425	RC	2	0	02VD 02VO 09VC 02MD 02MO 02MC 02RD 02RO	0	1	0.92426609993	310.0	385.0	None	None	0
2.7	2015_May_26_1051	s	s	9	4	SIC	426	RC	2	2	09VD 02VO 02VC 02MD 02MO 02MC 02RD 02RO	1	0	1.93840479851	232.0	-276.0	229	-270	1
2.7	2015_May_26_1051	s	s	9	4	SIC	427	ABS	2	1	02VD 10VO 02VC 02MD 02MO 02MC 02RD 02RO	0	1	1.92499995232	None	None	None	None	1
2.7	2015_May_26_1051	s	s	9	4	SIC	428	RC	2	1	02VD 09VO 02VC 02MD 02MO 02MC 02RD 02RO	1	0	1.40721201897	-428.0	46.0	-429	49	1
2.7	2015_May_26_1051	s	s	9	4	SIC	429	ABS	1	2	02VD 02VO 02VC 10MD 02MO 02MC 02RD 02RO	0	1	1.60719108582	None	None	None	None	1
2.7	2015_May_26_1051	s	s	9	4	SIC	430	ABS	2	0	02VD 02VO 10VC 02MD 02MO 02MC 02RD 02RO	0	1	1.94187402725	None	None	None	None	1
2.7	2015_May_26_1051	s	s	9	4	SIC	431	RC	0	1	02VD 02VO 02VC 02MD 02MO 02MC 02RD 09RO	1	0	2.08989715576	-337.0	112.0	-332	112	1
2.7	2015_May_26_1051	s	s	9	4	SIC	432	RC	1	0	02VD 02VO 02VC 02MD 02MO 09MC 02RD 02RO	1	0	0.583218097687	-121.0	208.0	-122	216	1
2.7	2015_May_26_1051	s	s	9	4	SIC	433	ABS	2	2	10VD 02VO 02VC 02MD 02MO 02MC 02RD 02RO	0	1	1.57184505463	None	None	None	None	1
2.7	2015_May_26_1051	s	s	9	4	SIC	434	ABS	0	2	02VD 02VO 02VC 02MD 02MO 02MC 10RD 02RO	0	1	1.60714197159	None	None	None	None	1
2.7	2015_May_26_1051	s	s	9	4	SIC	435	RC	1	1	02VD 02VO 02VC 02MD 09MO 02MC 02RD 02RO	1	0	0.653768777847	86.0	2.0	84	9	1
2.7	2015_May_26_1051	s	s	9	4	SIC	436	ABS	2	1	02VD 10VO 02VC 02MD 02MO 02MC 02RD 02RO	0	1	1.14820194244	None	None	None	None	1
2.7	2015_May_26_1051	s	s	9	4	SIC	437	RC	1	0	02VD 02VO 02VC 02MD 02MO 09MC 02RD 02RO	1	0	0.60679602623	25.0	272.0	22	281	1
2.7	2015_May_26_1051	s	s	9	4	SIC	438	ABS	2	0	02VD 02VO 10VC 02MD 02MO 02MC 02RD 02RO	0	1	1.15287804604	None	None	None	None	1
2.7	2015_May_26_1051	s	s	9	4	SIC	439	RC	2	2	09VD 02VO 02VC 02MD 02MO 02MC 02RD 02RO	1	0	0.92277097702	494.0	52.0	488	50	1
2.7	2015_May_26_1051	s	s	9	4	SIC	440	RC	2	0	02VD 02VO 09VC 02MD 02MO 02MC 02RD 02RO	1	0	1.63548207283	-103.0	-362.0	-104	-365	1
2.7	2015_May_26_1051	s	s	9	4	SIC	441	RC	1	2	02VD 02VO 02VC 09MD 02MO 02MC 02RD 02RO	1	0	0.682217121124	241.0	100.0	244	105	1
2.7	2015_May_26_1051	s	s	9	4	SIC	442	ABS	1	1	02VD 02VO 02VC 02MD 10MO 02MC 02RD 02RO	0	1	2.18359017372	None	None	None	None	1
2.7	2015_May_26_1051	s	s	9	4	SIC	443	RC	2	1	02VD 09VO 02VC 02MD 02MO 02MC 02RD 02RO	1	0	1.66602015495	181.0	-266.0	182	-264	1
2.7	2015_May_26_1051	s	s	9	4	SIC	444	RC	0	2	02VD 02VO 02VC 02MD 02MO 02MC 09RD 02RO	1	0	1.60009884834	-468.0	-91.0	-471	-88	1
2.7	2015_May_26_1051	s	s	9	4	SIC	445	ABS	0	1	02VD 02VO 02VC 02MD 02MO 02MC 02RD 10RO	0	1	2.634070158	None	None	None	None	1
2.7	2015_May_26_1051	s	s	9	4	SIC	446	ABS	1	2	02VD 02VO 02VC 10MD 02MO 02MC 02RD 02RO	0	1	1.17154812813	None	None	None	None	1
2.7	2015_May_26_1051	s	s	9	4	SIC	447	RC	0	1	02VD 02VO 02VC 02MD 02MO 02MC 02RD 09RO	1	0	1.62371087074	18.0	-404.0	16	-398	1
2.7	2015_May_26_1051	s	s	9	4	SIC	448	ABS	1	0	02VD 02VO 02VC 02MD 02MO 10MC 02RD 02RO	0	1	1.90150690079	None	None	None	None	1
2.7	2015_May_26_1051	s	s	9	4	SIC	449	RC	1	2	02VD 02VO 02VC 09MD 02MO 02MC 02RD 02RO	0	1	1.38816714287	514.0	-6.0	None	None	0
2.7	2015_May_26_1051	s	s	9	4	SIC	450	RC	2	0	02VD 02VO 09VC 02MD 02MO 02MC 02RD 02RO	1	0	1.08220791817	410.0	-146.0	408	-148	1
2.7	2015_May_26_1051	s	s	9	4	SIC	451	RC	0	2	02VD 02VO 02VC 02MD 02MO 02MC 09RD 02RO	1	0	0.711625099182	-379.0	18.0	-373	12	1
2.7	2015_May_26_1051	s	s	9	4	SIC	452	RC	1	1	02VD 02VO 02VC 02MD 09MO 02MC 02RD 02RO	1	0	0.611423969269	-75.0	223.0	-73	219	1
2.7	2015_May_26_1051	s	s	9	4	SIC	453	RC	1	0	02VD 02VO 02VC 02MD 02MO 09MC 02RD 02RO	1	0	0.893970012665	359.0	8.0	368	16	1
2.7	2015_May_26_1051	s	s	9	4	SIC	454	ABS	0	1	02VD 02VO 02VC 02MD 02MO 02MC 02RD 10RO	0	1	2.72807908058	None	None	None	None	1
2.7	2015_May_26_1051	s	s	9	4	SIC	455	ABS	1	0	02VD 02VO 02VC 02MD 02MO 10MC 02RD 02RO	0	1	1.57649803162	None	None	None	None	1
2.7	2015_May_26_1051	s	s	9	4	SIC	456	RC	2	2	09VD 02VO 02VC 02MD 02MO 02MC 02RD 02RO	1	0	0.964582920074	287.0	-97.0	292	-93	1
2.7	2015_May_26_1051	s	s	9	4	SIC	457	ABS	2	0	02VD 02VO 10VC 02MD 02MO 02MC 02RD 02RO	0	1	2.00037097931	None	None	None	None	1
2.7	2015_May_26_1051	s	s	9	4	SIC	458	RC	0	1	02VD 02VO 02VC 02MD 02MO 02MC 02RD 09RO	1	0	1.11427998543	274.0	403.0	277	406	1
2.7	2015_May_26_1051	s	s	9	4	SIC	459	ABS	1	1	02VD 02VO 02VC 02MD 10MO 02MC 02RD 02RO	0	1	1.38829112053	None	None	None	None	1
2.7	2015_May_26_1051	s	s	9	4	SIC	460	ABS	0	2	02VD 02VO 02VC 02MD 02MO 02MC 10RD 02RO	0	1	1.88261198997	None	None	None	None	1
2.7	2015_May_26_1051	s	s	9	4	SIC	461	ABS	2	2	10VD 02VO 02VC 02MD 02MO 02MC 02RD 02RO	0	1	1.57364606857	None	None	None	None	1
2.7	2015_May_26_1051	s	s	9	4	SIC	462	ABS	1	2	02VD 02VO 02VC 10MD 02MO 02MC 02RD 02RO	0	1	1.52473783493	None	None	None	None	1
2.7	2015_May_26_1051	s	s	9	4	SIC	463	RC	2	1	02VD 09VO 02VC 02MD 02MO 02MC 02RD 02RO	1	0	1.69001698494	401.0	-382.0	408	-380	1
2.7	2015_May_26_1051	s	s	9	4	SIC	464	ABS	2	1	02VD 10VO 02VC 02MD 02MO 02MC 02RD 02RO	0	1	1.25871419907	None	None	None	None	1
2.7	2015_May_26_1051	s	s	9	4	SIC	465	RC	0	2	02VD 02VO 02VC 02MD 02MO 02MC 09RD 02RO	1	0	0.670271873474	76.0	149.0	81	145	1
2.7	2015_May_26_1051	s	s	9	4	SIC	466	ABS	2	1	02VD 10VO 02VC 02MD 02MO 02MC 02RD 02RO	0	1	1.62367916107	None	None	None	None	1
2.7	2015_May_26_1051	s	s	9	4	SIC	467	ABS	1	1	02VD 02VO 02VC 02MD 10MO 02MC 02RD 02RO	0	1	1.32454705238	None	None	None	None	1
2.7	2015_May_26_1051	s	s	9	4	SIC	468	ABS	1	2	02VD 02VO 02VC 10MD 02MO 02MC 02RD 02RO	0	1	1.16460609436	None	None	None	None	1
2.7	2015_May_26_1051	s	s	9	4	SIC	469	RC	0	1	02VD 02VO 02VC 02MD 02MO 02MC 02RD 09RO	1	0	1.98417901993	-294.0	199.0	-301	201	1
2.7	2015_May_26_1051	s	s	9	4	SIC	470	RC	2	2	09VD 02VO 02VC 02MD 02MO 02MC 02RD 02RO	1	0	0.917470932007	-304.0	333.0	-308	332	1
2.7	2015_May_26_1051	s	s	9	4	SIC	471	ABS	2	0	02VD 02VO 10VC 02MD 02MO 02MC 02RD 02RO	0	1	1.24066495895	None	None	None	None	1
2.7	2015_May_26_1051	s	s	9	4	SIC	472	RC	2	0	02VD 02VO 09VC 02MD 02MO 02MC 02RD 02RO	1	0	1.05866193771	-173.0	-280.0	-167	-277	1
2.7	2015_May_26_1051	s	s	9	4	SIC	473	ABS	2	2	10VD 02VO 02VC 02MD 02MO 02MC 02RD 02RO	0	1	1.43531608582	None	None	None	None	1
2.7	2015_May_26_1051	s	s	9	4	SIC	474	RC	1	1	02VD 02VO 02VC 02MD 09MO 02MC 02RD 02RO	1	0	0.776167869568	-149.0	-72.0	-155	-71	1
2.7	2015_May_26_1051	s	s	9	4	SIC	475	ABS	1	0	02VD 02VO 02VC 02MD 02MO 10MC 02RD 02RO	0	1	1.22146606445	None	None	None	None	1
2.7	2015_May_26_1051	s	s	9	4	SIC	476	RC	1	2	02VD 02VO 02VC 09MD 02MO 02MC 02RD 02RO	0	1	1.19572591782	514.0	-355.0	None	None	0
2.7	2015_May_26_1051	s	s	9	4	SIC	477	RC	2	1	02VD 09VO 02VC 02MD 02MO 02MC 02RD 02RO	1	0	0.735751152039	-212.0	237.0	-218	239	1
2.7	2015_May_26_1051	s	s	9	4	SIC	478	ABS	0	2	02VD 02VO 02VC 02MD 02MO 02MC 10RD 02RO	0	1	1.67779302597	None	None	None	None	1
2.7	2015_May_26_1051	s	s	9	4	SIC	479	ABS	0	1	02VD 02VO 02VC 02MD 02MO 02MC 02RD 10RO	0	1	2.3018348217	None	None	None	None	1
2.7	2015_May_26_1051	s	s	9	4	SIC	480	RC	1	0	02VD 02VO 02VC 02MD 02MO 09MC 02RD 02RO	0	1	1.93689918518	-345.0	387.0	None	None	0
