Version	Date	Stimuli	Method	Subject	Session	Condition	Trial	Target	Channel1	Channel2	Distractors	LMouseButton	RMouseButton	RT	TargetX	TargetY	ResponseX	ResponseY	Correct
2.7	2015_May_27_1055	s	s	9	5	Capacity	1	RC	0	2	15RD 08RO	1	0	2.41863584518	-464.0	-54.0	-459	-49	1
2.7	2015_May_27_1055	s	s	9	5	Capacity	2	ABS	0	1	08RD 16RO	0	1	4.01310181618	None	None	None	None	1
2.7	2015_May_27_1055	s	s	9	5	Capacity	3	ABS	0	2	16RD 08RO	0	1	2.91350913048	None	None	None	None	1
2.7	2015_May_27_1055	s	s	9	5	Capacity	4	RC	0	1	08RD 15RO	1	0	1.48246216774	-335.0	190.0	-337	189	1
2.7	2015_May_27_1055	s	s	9	5	Capacity	5	ABS	0	2	16RD 08RO	0	1	2.4476749897	None	None	None	None	1
2.7	2015_May_27_1055	s	s	9	5	Capacity	6	RC	0	2	15RD 08RO	1	0	1.47071695328	217.0	147.0	223	145	1
2.7	2015_May_27_1055	s	s	9	5	Capacity	7	RC	0	1	08RD 15RO	1	0	2.71861195564	-454.0	-399.0	-456	-401	1
2.7	2015_May_27_1055	s	s	9	5	Capacity	8	ABS	0	1	08RD 16RO	0	1	2.5839779377	None	None	None	None	1
2.7	2015_May_27_1055	s	s	9	5	Capacity	9	ABS	0	1	08RD 16RO	0	1	3.36311388016	None	None	None	None	1
2.7	2015_May_27_1055	s	s	9	5	Capacity	10	ABS	0	2	16RD 08RO	0	1	2.56527686119	None	None	None	None	1
2.7	2015_May_27_1055	s	s	9	5	Capacity	11	RC	0	1	08RD 15RO	1	0	3.20098996162	-216.0	-127.0	-219	-119	1
2.7	2015_May_27_1055	s	s	9	5	Capacity	12	RC	0	2	15RD 08RO	1	0	2.87977004051	-156.0	-19.0	-155	-18	1
2.7	2015_May_27_1055	s	s	9	5	Capacity	13	RC	0	2	15RD 08RO	1	0	1.68913578987	-468.0	-410.0	-470	-415	1
2.7	2015_May_27_1055	s	s	9	5	Capacity	14	ABS	0	2	16RD 08RO	0	1	2.20046401024	None	None	None	None	1
2.7	2015_May_27_1055	s	s	9	5	Capacity	15	RC	0	1	08RD 15RO	1	0	1.58839797974	163.0	390.0	166	386	1
2.7	2015_May_27_1055	s	s	9	5	Capacity	16	ABS	0	1	08RD 16RO	0	1	4.64874601364	None	None	None	None	1
2.7	2015_May_27_1055	s	s	9	5	Capacity	17	RC	0	1	08RD 15RO	1	0	2.40044903755	-297.0	283.0	-302	288	1
2.7	2015_May_27_1055	s	s	9	5	Capacity	18	RC	0	2	15RD 08RO	1	0	1.37155413628	349.0	-212.0	347	-208	1
2.7	2015_May_27_1055	s	s	9	5	Capacity	19	ABS	0	1	08RD 16RO	0	1	3.94002008438	None	None	None	None	1
2.7	2015_May_27_1055	s	s	9	5	Capacity	20	ABS	0	2	16RD 08RO	0	1	2.60041904449	None	None	None	None	1
2.7	2015_May_27_1055	s	s	9	5	Capacity	21	ABS	0	2	16RD 08RO	0	1	2.19577503204	None	None	None	None	1
2.7	2015_May_27_1055	s	s	9	5	Capacity	22	RC	0	1	08RD 15RO	1	0	0.994616985321	-60.0	290.0	-56	289	1
2.7	2015_May_27_1055	s	s	9	5	Capacity	23	RC	0	2	15RD 08RO	1	0	1.15946102142	413.0	-88.0	412	-83	1
2.7	2015_May_27_1055	s	s	9	5	Capacity	24	ABS	0	1	08RD 16RO	0	1	3.00086402893	None	None	None	None	1
2.7	2015_May_27_1055	s	s	9	5	Capacity	25	RC	0	1	08RD 15RO	1	0	3.45999288559	-226.0	-401.0	-226	-397	1
2.7	2015_May_27_1055	s	s	9	5	Capacity	26	RC	0	2	15RD 08RO	1	0	2.17206716537	-421.0	201.0	-428	208	1
2.7	2015_May_27_1055	s	s	9	5	Capacity	27	ABS	0	1	08RD 16RO	0	1	3.40988707542	None	None	None	None	1
2.7	2015_May_27_1055	s	s	9	5	Capacity	28	ABS	0	2	16RD 08RO	0	1	2.26839399338	None	None	None	None	1
2.7	2015_May_27_1055	s	s	9	5	Capacity	29	ABS	0	2	16RD 08RO	0	1	1.81208705902	None	None	None	None	1
2.7	2015_May_27_1055	s	s	9	5	Capacity	30	ABS	0	1	08RD 16RO	0	1	3.47169709206	None	None	None	None	1
2.7	2015_May_27_1055	s	s	9	5	Capacity	31	RC	0	1	08RD 15RO	1	0	1.37647390366	-317.0	254.0	-315	256	1
2.7	2015_May_27_1055	s	s	9	5	Capacity	32	RC	0	2	15RD 08RO	1	0	0.937712907791	2.0	66.0	6	57	1
2.7	2015_May_27_1055	s	s	9	5	Capacity	33	ABS	0	2	16RD 08RO	0	1	2.20730519295	None	None	None	None	1
2.7	2015_May_27_1055	s	s	9	5	Capacity	34	RC	0	2	15RD 08RO	1	0	2.75368309021	-133.0	-374.0	-141	-370	1
2.7	2015_May_27_1055	s	s	9	5	Capacity	35	RC	0	1	08RD 15RO	1	0	0.723829030991	-17.0	28.0	-12	27	1
2.7	2015_May_27_1055	s	s	9	5	Capacity	36	ABS	0	1	08RD 16RO	0	1	3.06695199013	None	None	None	None	1
2.7	2015_May_27_1055	s	s	9	5	Capacity	37	ABS	0	1	08RD 16RO	0	1	3.96606302261	None	None	None	None	1
2.7	2015_May_27_1055	s	s	9	5	Capacity	38	RC	0	1	08RD 15RO	1	0	4.05597805977	390.0	18.0	388	18	1
2.7	2015_May_27_1055	s	s	9	5	Capacity	39	RC	0	2	15RD 08RO	1	0	1.58837103844	-252.0	52.0	-258	57	1
2.7	2015_May_27_1055	s	s	9	5	Capacity	40	ABS	0	2	16RD 08RO	0	1	1.8706870079	None	None	None	None	1
2.7	2015_May_27_1055	s	s	9	5	Capacity	41	RC	0	2	15RD 08RO	1	0	0.599673032761	176.0	284.0	181	291	1
2.7	2015_May_27_1055	s	s	9	5	Capacity	42	RC	0	1	08RD 15RO	1	0	2.38596916199	-93.0	-219.0	-98	-219	1
2.7	2015_May_27_1055	s	s	9	5	Capacity	43	ABS	0	2	16RD 08RO	0	1	2.30146813393	None	None	None	None	1
2.7	2015_May_27_1055	s	s	9	5	Capacity	44	ABS	0	1	08RD 16RO	0	1	2.93070411682	None	None	None	None	1
2.7	2015_May_27_1055	s	s	9	5	Capacity	45	RC	0	1	08RD 15RO	1	0	1.14107584953	436.0	58.0	438	64	1
2.7	2015_May_27_1055	s	s	9	5	Capacity	46	RC	0	2	15RD 08RO	1	0	2.34852910042	351.0	-318.0	355	-314	1
2.7	2015_May_27_1055	s	s	9	5	Capacity	47	ABS	0	2	16RD 08RO	0	1	2.32488703728	None	None	None	None	1
2.7	2015_May_27_1055	s	s	9	5	Capacity	48	ABS	0	1	08RD 16RO	0	1	3.20898914337	None	None	None	None	1
2.7	2015_May_27_1055	s	s	9	5	Capacity	49	ABS	0	2	16RD 08RO	0	1	2.42406606674	None	None	None	None	1
2.7	2015_May_27_1055	s	s	9	5	Capacity	50	RC	0	2	15RD 08RO	1	0	2.55969309807	500.0	208.0	504	215	1
2.7	2015_May_27_1055	s	s	9	5	Capacity	51	RC	0	1	08RD 15RO	1	0	3.45420598984	-343.0	401.0	-344	406	1
2.7	2015_May_27_1055	s	s	9	5	Capacity	52	ABS	0	1	08RD 16RO	0	1	3.76086902618	None	None	None	None	1
2.7	2015_May_27_1055	s	s	9	5	Capacity	53	RC	0	2	15RD 08RO	1	0	2.31822085381	358.0	403.0	367	411	1
2.7	2015_May_27_1055	s	s	9	5	Capacity	54	ABS	0	2	16RD 08RO	0	1	3.08363103867	None	None	None	None	1
2.7	2015_May_27_1055	s	s	9	5	Capacity	55	ABS	0	1	08RD 16RO	0	1	4.08377194405	None	None	None	None	1
2.7	2015_May_27_1055	s	s	9	5	Capacity	56	RC	0	1	08RD 15RO	1	0	3.74904584885	320.0	-397.0	318	-388	1
2.7	2015_May_27_1055	s	s	9	5	Capacity	57	ABS	0	1	08RD 16RO	0	1	3.51247191429	None	None	None	None	1
2.7	2015_May_27_1055	s	s	9	5	Capacity	58	ABS	0	2	16RD 08RO	0	1	2.39574313164	None	None	None	None	1
2.7	2015_May_27_1055	s	s	9	5	Capacity	59	RC	0	2	15RD 08RO	1	0	1.25886893272	127.0	-256.0	126	-256	1
2.7	2015_May_27_1055	s	s	9	5	Capacity	60	RC	0	1	08RD 15RO	1	0	1.01848506927	85.0	37.0	87	46	1
2.7	2015_May_27_1055	s	s	9	5	Capacity	61	RC	0	2	15RD 08RO	1	0	1.69434785843	-294.0	67.0	-301	68	1
2.7	2015_May_27_1055	s	s	9	5	Capacity	62	ABS	0	2	16RD 08RO	0	1	2.55727100372	None	None	None	None	1
2.7	2015_May_27_1055	s	s	9	5	Capacity	63	RC	0	1	08RD 15RO	1	0	0.941385030746	108.0	311.0	111	305	1
2.7	2015_May_27_1055	s	s	9	5	Capacity	64	ABS	0	1	08RD 16RO	0	1	3.20103001595	None	None	None	None	1
2.7	2015_May_27_1055	s	s	9	5	Capacity	1	RC	1	0	08VC 15MC	1	0	0.941051006317	526.0	311.0	532	307	1
2.7	2015_May_27_1055	s	s	9	5	Capacity	2	ABS	2	0	16VC 08MC	0	1	1.78286290169	None	None	None	None	1
2.7	2015_May_27_1055	s	s	9	5	Capacity	3	RC	2	0	15VC 08MC	1	0	0.529069185257	256.0	168.0	250	168	1
2.7	2015_May_27_1055	s	s	9	5	Capacity	4	ABS	1	0	08VC 16MC	0	1	1.06546497345	None	None	None	None	1
2.7	2015_May_27_1055	s	s	9	5	Capacity	5	RC	1	0	08VC 15MC	1	0	0.587949037552	-148.0	108.0	-142	104	1
2.7	2015_May_27_1055	s	s	9	5	Capacity	6	ABS	1	0	08VC 16MC	0	1	1.04442501068	None	None	None	None	1
2.7	2015_May_27_1055	s	s	9	5	Capacity	7	RC	2	0	15VC 08MC	1	0	0.858660936356	512.0	-193.0	513	-194	1
2.7	2015_May_27_1055	s	s	9	5	Capacity	8	ABS	2	0	16VC 08MC	0	1	1.4674179554	None	None	None	None	1
2.7	2015_May_27_1055	s	s	9	5	Capacity	9	RC	1	0	08VC 15MC	1	0	1.13646197319	-467.0	-281.0	-471	-282	1
2.7	2015_May_27_1055	s	s	9	5	Capacity	10	ABS	2	0	16VC 08MC	0	1	0.972722053528	None	None	None	None	1
2.7	2015_May_27_1055	s	s	9	5	Capacity	11	ABS	1	0	08VC 16MC	0	1	0.91243314743	None	None	None	None	1
2.7	2015_May_27_1055	s	s	9	5	Capacity	12	RC	2	0	15VC 08MC	1	0	0.630084037781	293.0	-70.0	295	-62	1
2.7	2015_May_27_1055	s	s	9	5	Capacity	13	RC	1	0	08VC 15MC	1	0	0.599680185318	376.0	257.0	371	258	1
2.7	2015_May_27_1055	s	s	9	5	Capacity	14	RC	2	0	15VC 08MC	1	0	0.952832937241	-201.0	409.0	-201	406	1
2.7	2015_May_27_1055	s	s	9	5	Capacity	15	ABS	1	0	08VC 16MC	0	1	0.75644993782	None	None	None	None	1
2.7	2015_May_27_1055	s	s	9	5	Capacity	16	ABS	2	0	16VC 08MC	0	1	0.747789144516	None	None	None	None	1
2.7	2015_May_27_1055	s	s	9	5	Capacity	17	RC	1	0	08VC 15MC	1	0	0.552568912506	-89.0	129.0	-90	134	1
2.7	2015_May_27_1055	s	s	9	5	Capacity	18	ABS	1	0	08VC 16MC	0	1	1.03561210632	None	None	None	None	1
2.7	2015_May_27_1055	s	s	9	5	Capacity	19	RC	2	0	15VC 08MC	1	0	0.600011825562	395.0	388.0	395	388	1
2.7	2015_May_27_1055	s	s	9	5	Capacity	20	ABS	2	0	16VC 08MC	0	1	0.900943040848	None	None	None	None	1
2.7	2015_May_27_1055	s	s	9	5	Capacity	21	RC	2	0	15VC 08MC	1	0	0.53582906723	-95.0	382.0	-97	387	1
2.7	2015_May_27_1055	s	s	9	5	Capacity	22	ABS	1	0	08VC 16MC	0	1	0.870419979095	None	None	None	None	1
2.7	2015_May_27_1055	s	s	9	5	Capacity	23	RC	1	0	08VC 15MC	1	0	0.481975078583	99.0	376.0	95	381	1
2.7	2015_May_27_1055	s	s	9	5	Capacity	24	ABS	2	0	16VC 08MC	0	1	1.2774078846	None	None	None	None	1
2.7	2015_May_27_1055	s	s	9	5	Capacity	25	RC	1	0	08VC 15MC	1	0	0.717367887497	492.0	-6.0	490	-1	1
2.7	2015_May_27_1055	s	s	9	5	Capacity	26	ABS	1	0	08VC 16MC	0	1	0.797410011292	None	None	None	None	1
2.7	2015_May_27_1055	s	s	9	5	Capacity	27	RC	2	0	15VC 08MC	1	0	0.571112155914	346.0	257.0	340	263	1
2.7	2015_May_27_1055	s	s	9	5	Capacity	28	ABS	2	0	16VC 08MC	0	1	1.02343297005	None	None	None	None	1
2.7	2015_May_27_1055	s	s	9	5	Capacity	29	RC	1	0	08VC 15MC	1	0	1.05364108086	-6.0	-158.0	-9	-156	1
2.7	2015_May_27_1055	s	s	9	5	Capacity	30	ABS	2	0	16VC 08MC	0	1	1.21874904633	None	None	None	None	1
2.7	2015_May_27_1055	s	s	9	5	Capacity	31	ABS	1	0	08VC 16MC	0	1	1.42118215561	None	None	None	None	1
2.7	2015_May_27_1055	s	s	9	5	Capacity	32	RC	2	0	15VC 08MC	1	0	0.616973161697	387.0	255.0	385	260	1
2.7	2015_May_27_1055	s	s	9	5	Capacity	33	ABS	1	0	08VC 16MC	0	1	0.817008018494	None	None	None	None	1
2.7	2015_May_27_1055	s	s	9	5	Capacity	34	ABS	2	0	16VC 08MC	0	1	1.74144077301	None	None	None	None	1
2.7	2015_May_27_1055	s	s	9	5	Capacity	35	RC	2	0	15VC 08MC	1	0	0.879590988159	368.0	352.0	368	358	1
2.7	2015_May_27_1055	s	s	9	5	Capacity	36	RC	1	0	08VC 15MC	1	0	0.972838878632	-203.0	-107.0	-207	-100	1
2.7	2015_May_27_1055	s	s	9	5	Capacity	37	RC	1	0	08VC 15MC	1	0	0.576171875	-317.0	168.0	-318	169	1
2.7	2015_May_27_1055	s	s	9	5	Capacity	38	RC	2	0	15VC 08MC	1	0	0.724263906479	38.0	-69.0	41	-62	1
2.7	2015_May_27_1055	s	s	9	5	Capacity	39	ABS	1	0	08VC 16MC	0	1	1.45383501053	None	None	None	None	1
2.7	2015_May_27_1055	s	s	9	5	Capacity	40	ABS	2	0	16VC 08MC	0	1	0.807869911194	None	None	None	None	1
2.7	2015_May_27_1055	s	s	9	5	Capacity	41	RC	2	0	15VC 08MC	1	0	0.630086898804	231.0	281.0	230	290	1
2.7	2015_May_27_1055	s	s	9	5	Capacity	42	RC	1	0	08VC 15MC	1	0	0.806509971619	-91.0	15.0	-94	17	1
2.7	2015_May_27_1055	s	s	9	5	Capacity	43	ABS	2	0	16VC 08MC	0	1	0.893784999847	None	None	None	None	1
2.7	2015_May_27_1055	s	s	9	5	Capacity	44	ABS	1	0	08VC 16MC	0	1	0.811394929886	None	None	None	None	1
2.7	2015_May_27_1055	s	s	9	5	Capacity	45	RC	1	0	08VC 15MC	1	0	0.912200927734	224.0	-341.0	223	-337	1
2.7	2015_May_27_1055	s	s	9	5	Capacity	46	RC	2	0	15VC 08MC	1	0	0.51730298996	-73.0	40.0	-78	45	1
2.7	2015_May_27_1055	s	s	9	5	Capacity	47	ABS	1	0	08VC 16MC	0	1	0.842432022095	None	None	None	None	1
2.7	2015_May_27_1055	s	s	9	5	Capacity	48	ABS	2	0	16VC 08MC	0	1	1.09386491776	None	None	None	None	1
2.7	2015_May_27_1055	s	s	9	5	Capacity	49	RC	2	0	15VC 08MC	1	0	0.835400104523	227.0	-295.0	234	-295	1
2.7	2015_May_27_1055	s	s	9	5	Capacity	50	ABS	1	0	08VC 16MC	0	1	1.4889960289	None	None	None	None	1
2.7	2015_May_27_1055	s	s	9	5	Capacity	51	RC	1	0	08VC 15MC	1	0	0.618328094482	-174.0	299.0	-170	302	1
2.7	2015_May_27_1055	s	s	9	5	Capacity	52	ABS	2	0	16VC 08MC	0	1	1.85529518127	None	None	None	None	1
2.7	2015_May_27_1055	s	s	9	5	Capacity	53	ABS	2	0	16VC 08MC	0	1	1.43540787697	None	None	None	None	1
2.7	2015_May_27_1055	s	s	9	5	Capacity	54	RC	2	0	15VC 08MC	1	0	1.67075681686	-532.0	-388.0	-531	-390	1
2.7	2015_May_27_1055	s	s	9	5	Capacity	55	ABS	1	0	08VC 16MC	0	1	2.0781481266	None	None	None	None	1
2.7	2015_May_27_1055	s	s	9	5	Capacity	56	RC	1	0	08VC 15MC	1	0	0.635025978088	-146.0	156.0	-141	164	1
2.7	2015_May_27_1055	s	s	9	5	Capacity	57	RC	2	0	15VC 08MC	1	0	0.552554130554	-418.0	208.0	-418	213	1
2.7	2015_May_27_1055	s	s	9	5	Capacity	58	RC	1	0	08VC 15MC	1	0	0.944797992706	84.0	-234.0	85	-227	1
2.7	2015_May_27_1055	s	s	9	5	Capacity	59	ABS	1	0	08VC 16MC	0	1	1.21879887581	None	None	None	None	1
2.7	2015_May_27_1055	s	s	9	5	Capacity	60	ABS	2	0	16VC 08MC	0	1	0.912545919418	None	None	None	None	1
2.7	2015_May_27_1055	s	s	9	5	Capacity	61	RC	2	0	15VC 08MC	1	0	0.599667072296	-11.0	10.0	-7	17	1
2.7	2015_May_27_1055	s	s	9	5	Capacity	62	RC	1	0	08VC 15MC	1	0	0.658514976501	95.0	-227.0	91	-219	1
2.7	2015_May_27_1055	s	s	9	5	Capacity	63	ABS	1	0	08VC 16MC	0	1	1.73631095886	None	None	None	None	1
2.7	2015_May_27_1055	s	s	9	5	Capacity	64	ABS	2	0	16VC 08MC	0	1	3.17741012573	None	None	None	None	1
2.7	2015_May_27_1055	s	s	9	5	SIC	1	RC	0	1	02VD 02VO 02VC 02MD 02MO 02MC 02RD 09RO	1	0	1.44716596603	518.0	-33.0	508	-29	1
2.7	2015_May_27_1055	s	s	9	5	SIC	2	RC	1	2	02VD 02VO 02VC 09MD 02MO 02MC 02RD 02RO	1	0	1.73644995689	-403.0	116.0	-409	122	1
2.7	2015_May_27_1055	s	s	9	5	SIC	3	ABS	1	1	02VD 02VO 02VC 02MD 10MO 02MC 02RD 02RO	0	1	1.60010910034	None	None	None	None	1
2.7	2015_May_27_1055	s	s	9	5	SIC	4	ABS	2	2	10VD 02VO 02VC 02MD 02MO 02MC 02RD 02RO	0	1	1.61203098297	None	None	None	None	1
2.7	2015_May_27_1055	s	s	9	5	SIC	5	RC	1	0	02VD 02VO 02VC 02MD 02MO 09MC 02RD 02RO	1	0	2.05661916733	-111.0	-378.0	-118	-370	1
2.7	2015_May_27_1055	s	s	9	5	SIC	6	RC	2	2	09VD 02VO 02VC 02MD 02MO 02MC 02RD 02RO	1	0	1.15969181061	-76.0	-408.0	-81	-402	1
2.7	2015_May_27_1055	s	s	9	5	SIC	7	ABS	2	0	02VD 02VO 10VC 02MD 02MO 02MC 02RD 02RO	0	1	1.48246216774	None	None	None	None	1
2.7	2015_May_27_1055	s	s	9	5	SIC	8	ABS	1	2	02VD 02VO 02VC 10MD 02MO 02MC 02RD 02RO	0	1	1.75328803062	None	None	None	None	1
2.7	2015_May_27_1055	s	s	9	5	SIC	9	ABS	2	1	02VD 10VO 02VC 02MD 02MO 02MC 02RD 02RO	0	1	1.74732208252	None	None	None	None	1
2.7	2015_May_27_1055	s	s	9	5	SIC	10	RC	2	1	02VD 09VO 02VC 02MD 02MO 02MC 02RD 02RO	1	0	0.646696090698	59.0	-88.0	56	-83	1
2.7	2015_May_27_1055	s	s	9	5	SIC	11	RC	1	1	02VD 02VO 02VC 02MD 09MO 02MC 02RD 02RO	1	0	0.929300069809	492.0	179.0	488	185	1
2.7	2015_May_27_1055	s	s	9	5	SIC	12	ABS	0	2	02VD 02VO 02VC 02MD 02MO 02MC 10RD 02RO	0	1	1.65904712677	None	None	None	None	1
2.7	2015_May_27_1055	s	s	9	5	SIC	13	ABS	1	0	02VD 02VO 02VC 02MD 02MO 10MC 02RD 02RO	0	1	1.72962880135	None	None	None	None	1
2.7	2015_May_27_1055	s	s	9	5	SIC	14	ABS	0	1	02VD 02VO 02VC 02MD 02MO 02MC 02RD 10RO	0	1	2.89485621452	None	None	None	None	1
2.7	2015_May_27_1055	s	s	9	5	SIC	15	RC	0	2	02VD 02VO 02VC 02MD 02MO 02MC 09RD 02RO	1	0	0.823148965836	-16.0	-16.0	-14	-18	1
2.7	2015_May_27_1055	s	s	9	5	SIC	16	RC	2	0	02VD 02VO 09VC 02MD 02MO 02MC 02RD 02RO	1	0	1.00664615631	481.0	195.0	474	199	1
2.7	2015_May_27_1055	s	s	9	5	SIC	17	ABS	0	2	02VD 02VO 02VC 02MD 02MO 02MC 10RD 02RO	0	1	1.490847826	None	None	None	None	1
2.7	2015_May_27_1055	s	s	9	5	SIC	18	RC	1	1	02VD 02VO 02VC 02MD 09MO 02MC 02RD 02RO	1	0	1.19998311996	-319.0	294.0	-316	293	1
2.7	2015_May_27_1055	s	s	9	5	SIC	19	ABS	2	1	02VD 10VO 02VC 02MD 02MO 02MC 02RD 02RO	0	1	2.17692399025	None	None	None	None	1
2.7	2015_May_27_1055	s	s	9	5	SIC	20	RC	1	0	02VD 02VO 02VC 02MD 02MO 09MC 02RD 02RO	1	0	1.11253190041	378.0	314.0	374	319	1
2.7	2015_May_27_1055	s	s	9	5	SIC	21	RC	2	0	02VD 02VO 09VC 02MD 02MO 02MC 02RD 02RO	1	0	1.56009721756	129.0	-356.0	128	-352	1
2.7	2015_May_27_1055	s	s	9	5	SIC	22	RC	1	2	02VD 02VO 02VC 09MD 02MO 02MC 02RD 02RO	1	0	0.688961982727	-18.0	107.0	-19	109	1
2.7	2015_May_27_1055	s	s	9	5	SIC	23	RC	0	2	02VD 02VO 02VC 02MD 02MO 02MC 09RD 02RO	1	0	0.912555932999	445.0	329.0	443	327	1
2.7	2015_May_27_1055	s	s	9	5	SIC	24	ABS	1	0	02VD 02VO 02VC 02MD 02MO 10MC 02RD 02RO	0	1	2.40073013306	None	None	None	None	1
2.7	2015_May_27_1055	s	s	9	5	SIC	25	ABS	1	2	02VD 02VO 02VC 10MD 02MO 02MC 02RD 02RO	0	1	2.02391004562	None	None	None	None	1
2.7	2015_May_27_1055	s	s	9	5	SIC	26	ABS	2	2	10VD 02VO 02VC 02MD 02MO 02MC 02RD 02RO	0	1	1.94519782066	None	None	None	None	1
2.7	2015_May_27_1055	s	s	9	5	SIC	27	ABS	1	1	02VD 02VO 02VC 02MD 10MO 02MC 02RD 02RO	0	1	1.94137501717	None	None	None	None	1
2.7	2015_May_27_1055	s	s	9	5	SIC	28	RC	2	2	09VD 02VO 02VC 02MD 02MO 02MC 02RD 02RO	1	0	1.57187509537	409.0	-371.0	409	-380	1
2.7	2015_May_27_1055	s	s	9	5	SIC	29	ABS	0	1	02VD 02VO 02VC 02MD 02MO 02MC 02RD 10RO	0	1	3.54909491539	None	None	None	None	1
2.7	2015_May_27_1055	s	s	9	5	SIC	30	ABS	2	0	02VD 02VO 10VC 02MD 02MO 02MC 02RD 02RO	0	1	1.39495110512	None	None	None	None	1
2.7	2015_May_27_1055	s	s	9	5	SIC	31	RC	2	1	02VD 09VO 02VC 02MD 02MO 02MC 02RD 02RO	1	0	0.771445989609	215.0	327.0	219	331	1
2.7	2015_May_27_1055	s	s	9	5	SIC	32	RC	0	1	02VD 02VO 02VC 02MD 02MO 02MC 02RD 09RO	1	0	2.27792596817	-50.0	-213.0	-49	-212	1
2.7	2015_May_27_1055	s	s	9	5	SIC	33	ABS	2	1	02VD 10VO 02VC 02MD 02MO 02MC 02RD 02RO	0	1	1.35297298431	None	None	None	None	1
2.7	2015_May_27_1055	s	s	9	5	SIC	34	RC	1	0	02VD 02VO 02VC 02MD 02MO 09MC 02RD 02RO	1	0	0.811547040939	-111.0	240.0	-111	245	1
2.7	2015_May_27_1055	s	s	9	5	SIC	35	RC	2	1	02VD 09VO 02VC 02MD 02MO 02MC 02RD 02RO	1	0	0.86568903923	422.0	199.0	412	203	1
2.7	2015_May_27_1055	s	s	9	5	SIC	36	ABS	1	0	02VD 02VO 02VC 02MD 02MO 10MC 02RD 02RO	0	1	1.62017321587	None	None	None	None	1
2.7	2015_May_27_1055	s	s	9	5	SIC	37	RC	2	0	02VD 02VO 09VC 02MD 02MO 02MC 02RD 02RO	1	0	1.6943590641	-64.0	-252.0	-66	-247	1
2.7	2015_May_27_1055	s	s	9	5	SIC	38	RC	1	2	02VD 02VO 02VC 09MD 02MO 02MC 02RD 02RO	1	0	1.23562502861	-409.0	326.0	-408	332	1
2.7	2015_May_27_1055	s	s	9	5	SIC	39	ABS	0	2	02VD 02VO 02VC 02MD 02MO 02MC 10RD 02RO	0	1	1.59530210495	None	None	None	None	1
2.7	2015_May_27_1055	s	s	9	5	SIC	40	ABS	1	1	02VD 02VO 02VC 02MD 10MO 02MC 02RD 02RO	0	1	1.15905594826	None	None	None	None	1
2.7	2015_May_27_1055	s	s	9	5	SIC	41	RC	2	2	09VD 02VO 02VC 02MD 02MO 02MC 02RD 02RO	1	0	1.52966594696	-449.0	-230.0	-454	-224	1
2.7	2015_May_27_1055	s	s	9	5	SIC	42	ABS	2	2	10VD 02VO 02VC 02MD 02MO 02MC 02RD 02RO	0	1	1.30591201782	None	None	None	None	1
2.7	2015_May_27_1055	s	s	9	5	SIC	43	ABS	1	2	02VD 02VO 02VC 10MD 02MO 02MC 02RD 02RO	0	1	1.49459600449	None	None	None	None	1
2.7	2015_May_27_1055	s	s	9	5	SIC	44	RC	0	2	02VD 02VO 02VC 02MD 02MO 02MC 09RD 02RO	1	0	1.3009750843	-333.0	-84.0	-333	-77	1
2.7	2015_May_27_1055	s	s	9	5	SIC	45	RC	0	1	02VD 02VO 02VC 02MD 02MO 02MC 02RD 09RO	1	0	2.08635616302	240.0	-69.0	244	-72	1
2.7	2015_May_27_1055	s	s	9	5	SIC	46	ABS	2	0	02VD 02VO 10VC 02MD 02MO 02MC 02RD 02RO	0	1	1.74143409729	None	None	None	None	1
2.7	2015_May_27_1055	s	s	9	5	SIC	47	ABS	0	1	02VD 02VO 02VC 02MD 02MO 02MC 02RD 10RO	0	1	2.53867697716	None	None	None	None	1
2.7	2015_May_27_1055	s	s	9	5	SIC	48	RC	1	1	02VD 02VO 02VC 02MD 09MO 02MC 02RD 02RO	1	0	1.95327210426	282.0	-257.0	280	-253	1
2.7	2015_May_27_1055	s	s	9	5	SIC	49	RC	1	0	02VD 02VO 02VC 02MD 02MO 09MC 02RD 02RO	1	0	1.71299886703	509.0	240.0	503	243	1
2.7	2015_May_27_1055	s	s	9	5	SIC	50	RC	0	1	02VD 02VO 02VC 02MD 02MO 02MC 02RD 09RO	1	0	2.36520409584	432.0	-254.0	433	-250	1
2.7	2015_May_27_1055	s	s	9	5	SIC	51	ABS	2	2	10VD 02VO 02VC 02MD 02MO 02MC 02RD 02RO	0	1	1.5481979847	None	None	None	None	1
2.7	2015_May_27_1055	s	s	9	5	SIC	52	RC	2	0	02VD 02VO 09VC 02MD 02MO 02MC 02RD 02RO	1	0	1.18365812302	-92.0	-166.0	-97	-157	1
2.7	2015_May_27_1055	s	s	9	5	SIC	53	RC	1	2	02VD 02VO 02VC 09MD 02MO 02MC 02RD 02RO	1	0	1.1057908535	-321.0	-269.0	-320	-270	1
2.7	2015_May_27_1055	s	s	9	5	SIC	54	RC	1	1	02VD 02VO 02VC 02MD 09MO 02MC 02RD 02RO	1	0	0.882186889648	487.0	83.0	490	87	1
2.7	2015_May_27_1055	s	s	9	5	SIC	55	ABS	0	2	02VD 02VO 02VC 02MD 02MO 02MC 10RD 02RO	0	1	1.44151902199	None	None	None	None	1
2.7	2015_May_27_1055	s	s	9	5	SIC	56	RC	2	2	09VD 02VO 02VC 02MD 02MO 02MC 02RD 02RO	1	0	0.67019200325	-121.0	-1.0	-128	5	1
2.7	2015_May_27_1055	s	s	9	5	SIC	57	ABS	1	1	02VD 02VO 02VC 02MD 10MO 02MC 02RD 02RO	0	1	2.10118913651	None	None	None	None	1
2.7	2015_May_27_1055	s	s	9	5	SIC	58	ABS	1	0	02VD 02VO 02VC 02MD 02MO 10MC 02RD 02RO	0	1	2.0895280838	None	None	None	None	1
2.7	2015_May_27_1055	s	s	9	5	SIC	59	RC	2	1	02VD 09VO 02VC 02MD 02MO 02MC 02RD 02RO	1	0	1.08870601654	493.0	212.0	488	217	1
2.7	2015_May_27_1055	s	s	9	5	SIC	60	ABS	2	0	02VD 02VO 10VC 02MD 02MO 02MC 02RD 02RO	0	1	1.71786999702	None	None	None	None	1
2.7	2015_May_27_1055	s	s	9	5	SIC	61	ABS	2	1	02VD 10VO 02VC 02MD 02MO 02MC 02RD 02RO	0	1	1.59503388405	None	None	None	None	1
2.7	2015_May_27_1055	s	s	9	5	SIC	62	RC	0	2	02VD 02VO 02VC 02MD 02MO 02MC 09RD 02RO	1	0	0.797199010849	242.0	-113.0	235	-106	1
2.7	2015_May_27_1055	s	s	9	5	SIC	63	ABS	0	1	02VD 02VO 02VC 02MD 02MO 02MC 02RD 10RO	0	1	3.73448586464	None	None	None	None	1
2.7	2015_May_27_1055	s	s	9	5	SIC	64	ABS	1	2	02VD 02VO 02VC 10MD 02MO 02MC 02RD 02RO	0	1	1.60012888908	None	None	None	None	1
2.7	2015_May_27_1055	s	s	9	5	SIC	65	ABS	0	1	02VD 02VO 02VC 02MD 02MO 02MC 02RD 10RO	0	1	2.48968982697	None	None	None	None	1
2.7	2015_May_27_1055	s	s	9	5	SIC	66	RC	1	1	02VD 02VO 02VC 02MD 09MO 02MC 02RD 02RO	1	0	1.22346901894	-253.0	342.0	-256	349	1
2.7	2015_May_27_1055	s	s	9	5	SIC	67	ABS	1	2	02VD 02VO 02VC 10MD 02MO 02MC 02RD 02RO	0	1	1.31769490242	None	None	None	None	1
2.7	2015_May_27_1055	s	s	9	5	SIC	68	ABS	0	2	02VD 02VO 02VC 02MD 02MO 02MC 10RD 02RO	0	1	1.41848397255	None	None	None	None	1
2.7	2015_May_27_1055	s	s	9	5	SIC	69	ABS	1	1	02VD 02VO 02VC 02MD 10MO 02MC 02RD 02RO	0	1	1.51784300804	None	None	None	None	1
2.7	2015_May_27_1055	s	s	9	5	SIC	70	ABS	2	0	02VD 02VO 10VC 02MD 02MO 02MC 02RD 02RO	0	1	1.32436013222	None	None	None	None	1
2.7	2015_May_27_1055	s	s	9	5	SIC	71	ABS	2	2	10VD 02VO 02VC 02MD 02MO 02MC 02RD 02RO	0	1	1.5883398056	None	None	None	None	1
2.7	2015_May_27_1055	s	s	9	5	SIC	72	RC	0	1	02VD 02VO 02VC 02MD 02MO 02MC 02RD 09RO	1	0	3.90723896027	-520.0	-136.0	-524	-127	1
2.7	2015_May_27_1055	s	s	9	5	SIC	73	RC	1	0	02VD 02VO 02VC 02MD 02MO 09MC 02RD 02RO	1	0	1.75316286087	-299.0	155.0	-303	164	1
2.7	2015_May_27_1055	s	s	9	5	SIC	74	ABS	2	1	02VD 10VO 02VC 02MD 02MO 02MC 02RD 02RO	0	1	2.00734591484	None	None	None	None	1
2.7	2015_May_27_1055	s	s	9	5	SIC	75	RC	2	0	02VD 02VO 09VC 02MD 02MO 02MC 02RD 02RO	1	0	1.08903193474	333.0	-216.0	327	-209	1
2.7	2015_May_27_1055	s	s	9	5	SIC	76	RC	0	2	02VD 02VO 02VC 02MD 02MO 02MC 09RD 02RO	1	0	1.84741592407	-426.0	369.0	-432	374	1
2.7	2015_May_27_1055	s	s	9	5	SIC	77	ABS	1	0	02VD 02VO 02VC 02MD 02MO 10MC 02RD 02RO	0	1	2.07892513275	None	None	None	None	1
2.7	2015_May_27_1055	s	s	9	5	SIC	78	RC	2	2	09VD 02VO 02VC 02MD 02MO 02MC 02RD 02RO	1	0	1.27729701996	228.0	-163.0	225	-156	1
2.7	2015_May_27_1055	s	s	9	5	SIC	79	RC	1	2	02VD 02VO 02VC 09MD 02MO 02MC 02RD 02RO	1	0	1.30030894279	-357.0	310.0	-357	318	1
2.7	2015_May_27_1055	s	s	9	5	SIC	80	RC	2	1	02VD 09VO 02VC 02MD 02MO 02MC 02RD 02RO	1	0	1.33618783951	43.0	-109.0	36	-102	1
2.7	2015_May_27_1055	s	s	9	5	SIC	81	RC	2	2	09VD 02VO 02VC 02MD 02MO 02MC 02RD 02RO	1	0	1.04693484306	-251.0	389.0	-257	395	1
2.7	2015_May_27_1055	s	s	9	5	SIC	82	ABS	1	0	02VD 02VO 02VC 02MD 02MO 10MC 02RD 02RO	0	1	1.68254804611	None	None	None	None	1
2.7	2015_May_27_1055	s	s	9	5	SIC	83	RC	0	1	02VD 02VO 02VC 02MD 02MO 02MC 02RD 09RO	1	0	0.68205499649	81.0	92.0	77	96	1
2.7	2015_May_27_1055	s	s	9	5	SIC	84	RC	2	0	02VD 02VO 09VC 02MD 02MO 02MC 02RD 02RO	1	0	1.19999599457	85.0	-55.0	75	-50	1
2.7	2015_May_27_1055	s	s	9	5	SIC	85	ABS	0	2	02VD 02VO 02VC 02MD 02MO 02MC 10RD 02RO	0	1	1.98881793022	None	None	None	None	1
2.7	2015_May_27_1055	s	s	9	5	SIC	86	RC	1	1	02VD 02VO 02VC 02MD 09MO 02MC 02RD 02RO	1	0	1.47744607925	-100.0	-232.0	-102	-230	1
2.7	2015_May_27_1055	s	s	9	5	SIC	87	ABS	2	1	02VD 10VO 02VC 02MD 02MO 02MC 02RD 02RO	0	1	1.84492492676	None	None	None	None	1
2.7	2015_May_27_1055	s	s	9	5	SIC	88	RC	0	2	02VD 02VO 02VC 02MD 02MO 02MC 09RD 02RO	1	0	1.07725214958	390.0	52.0	387	56	1
2.7	2015_May_27_1055	s	s	9	5	SIC	89	ABS	2	0	02VD 02VO 10VC 02MD 02MO 02MC 02RD 02RO	0	1	1.33623385429	None	None	None	None	1
2.7	2015_May_27_1055	s	s	9	5	SIC	90	ABS	2	2	10VD 02VO 02VC 02MD 02MO 02MC 02RD 02RO	0	1	1.77061700821	None	None	None	None	1
2.7	2015_May_27_1055	s	s	9	5	SIC	91	RC	1	0	02VD 02VO 02VC 02MD 02MO 09MC 02RD 02RO	1	0	1.349162817	63.0	-37.0	66	-40	1
2.7	2015_May_27_1055	s	s	9	5	SIC	92	RC	1	2	02VD 02VO 02VC 09MD 02MO 02MC 02RD 02RO	1	0	0.725260972977	96.0	344.0	96	345	1
2.7	2015_May_27_1055	s	s	9	5	SIC	93	ABS	1	1	02VD 02VO 02VC 02MD 10MO 02MC 02RD 02RO	0	1	1.77693986893	None	None	None	None	1
2.7	2015_May_27_1055	s	s	9	5	SIC	94	ABS	0	1	02VD 02VO 02VC 02MD 02MO 02MC 02RD 10RO	0	1	2.56535696983	None	None	None	None	1
2.7	2015_May_27_1055	s	s	9	5	SIC	95	RC	2	1	02VD 09VO 02VC 02MD 02MO 02MC 02RD 02RO	1	0	1.70015001297	-286.0	-324.0	-288	-318	1
2.7	2015_May_27_1055	s	s	9	5	SIC	96	ABS	1	2	02VD 02VO 02VC 10MD 02MO 02MC 02RD 02RO	0	1	1.89172911644	None	None	None	None	1
2.7	2015_May_27_1055	s	s	9	5	SIC	97	ABS	1	0	02VD 02VO 02VC 02MD 02MO 10MC 02RD 02RO	0	1	2.11299800873	None	None	None	None	1
2.7	2015_May_27_1055	s	s	9	5	SIC	98	ABS	0	1	02VD 02VO 02VC 02MD 02MO 02MC 02RD 10RO	0	1	3.6598610878	None	None	None	None	1
2.7	2015_May_27_1055	s	s	9	5	SIC	99	ABS	1	2	02VD 02VO 02VC 10MD 02MO 02MC 02RD 02RO	0	1	1.41829991341	None	None	None	None	1
2.7	2015_May_27_1055	s	s	9	5	SIC	100	ABS	2	0	02VD 02VO 10VC 02MD 02MO 02MC 02RD 02RO	0	1	1.69436979294	None	None	None	None	1
2.7	2015_May_27_1055	s	s	9	5	SIC	101	RC	1	1	02VD 02VO 02VC 02MD 09MO 02MC 02RD 02RO	1	0	0.747072935104	190.0	55.0	187	62	1
2.7	2015_May_27_1055	s	s	9	5	SIC	102	RC	0	2	02VD 02VO 02VC 02MD 02MO 02MC 09RD 02RO	0	1	1.48922300339	-384.0	-325.0	None	None	0
2.7	2015_May_27_1055	s	s	9	5	SIC	103	ABS	0	2	02VD 02VO 02VC 02MD 02MO 02MC 10RD 02RO	0	1	1.79697799683	None	None	None	None	1
2.7	2015_May_27_1055	s	s	9	5	SIC	104	ABS	2	2	10VD 02VO 02VC 02MD 02MO 02MC 02RD 02RO	0	1	2.21907114983	None	None	None	None	1
2.7	2015_May_27_1055	s	s	9	5	SIC	105	ABS	2	1	02VD 10VO 02VC 02MD 02MO 02MC 02RD 02RO	0	1	1.8422460556	None	None	None	None	1
2.7	2015_May_27_1055	s	s	9	5	SIC	106	RC	0	1	02VD 02VO 02VC 02MD 02MO 02MC 02RD 09RO	1	0	2.96926784515	405.0	-332.0	405	-326	1
2.7	2015_May_27_1055	s	s	9	5	SIC	107	ABS	1	1	02VD 02VO 02VC 02MD 10MO 02MC 02RD 02RO	0	1	2.37202596664	None	None	None	None	1
2.7	2015_May_27_1055	s	s	9	5	SIC	108	RC	2	1	02VD 09VO 02VC 02MD 02MO 02MC 02RD 02RO	1	0	1.50117993355	-532.0	-289.0	-536	-280	1
2.7	2015_May_27_1055	s	s	9	5	SIC	109	RC	2	0	02VD 02VO 09VC 02MD 02MO 02MC 02RD 02RO	1	0	0.740942001343	61.0	104.0	58	112	1
2.7	2015_May_27_1055	s	s	9	5	SIC	110	RC	2	2	09VD 02VO 02VC 02MD 02MO 02MC 02RD 02RO	1	0	1.78855705261	-413.0	359.0	-421	366	1
2.7	2015_May_27_1055	s	s	9	5	SIC	111	RC	1	0	02VD 02VO 02VC 02MD 02MO 09MC 02RD 02RO	1	0	1.40004992485	-333.0	-290.0	-336	-286	1
2.7	2015_May_27_1055	s	s	9	5	SIC	112	RC	1	2	02VD 02VO 02VC 09MD 02MO 02MC 02RD 02RO	1	0	1.08593392372	-361.0	79.0	-366	85	1
2.7	2015_May_27_1055	s	s	9	5	SIC	113	ABS	2	1	02VD 10VO 02VC 02MD 02MO 02MC 02RD 02RO	0	1	1.06239390373	None	None	None	None	1
2.7	2015_May_27_1055	s	s	9	5	SIC	114	RC	1	1	02VD 02VO 02VC 02MD 09MO 02MC 02RD 02RO	1	0	1.77755999565	-503.0	351.0	-506	354	1
2.7	2015_May_27_1055	s	s	9	5	SIC	115	ABS	1	0	02VD 02VO 02VC 02MD 02MO 10MC 02RD 02RO	0	1	1.64725804329	None	None	None	None	1
2.7	2015_May_27_1055	s	s	9	5	SIC	116	ABS	2	2	10VD 02VO 02VC 02MD 02MO 02MC 02RD 02RO	0	1	1.5299141407	None	None	None	None	1
2.7	2015_May_27_1055	s	s	9	5	SIC	117	RC	0	2	02VD 02VO 02VC 02MD 02MO 02MC 09RD 02RO	1	0	0.976297855377	-443.0	-232.0	-450	-223	1
2.7	2015_May_27_1055	s	s	9	5	SIC	118	RC	1	2	02VD 02VO 02VC 09MD 02MO 02MC 02RD 02RO	1	0	0.96443104744	-453.0	-94.0	-456	-91	1
2.7	2015_May_27_1055	s	s	9	5	SIC	119	ABS	1	1	02VD 02VO 02VC 02MD 10MO 02MC 02RD 02RO	0	1	2.05437803268	None	None	None	None	1
2.7	2015_May_27_1055	s	s	9	5	SIC	120	ABS	0	1	02VD 02VO 02VC 02MD 02MO 02MC 02RD 10RO	0	1	3.36268496513	None	None	None	None	1
2.7	2015_May_27_1055	s	s	9	5	SIC	121	ABS	1	2	02VD 02VO 02VC 10MD 02MO 02MC 02RD 02RO	0	1	1.67075800896	None	None	None	None	1
2.7	2015_May_27_1055	s	s	9	5	SIC	122	RC	1	0	02VD 02VO 02VC 02MD 02MO 09MC 02RD 02RO	1	0	0.768568992615	190.0	264.0	184	268	1
2.7	2015_May_27_1055	s	s	9	5	SIC	123	RC	0	1	02VD 02VO 02VC 02MD 02MO 02MC 02RD 09RO	1	0	2.74191308022	178.0	-386.0	177	-377	1
2.7	2015_May_27_1055	s	s	9	5	SIC	124	RC	2	0	02VD 02VO 09VC 02MD 02MO 02MC 02RD 02RO	1	0	1.36482596397	-389.0	29.0	-390	34	1
2.7	2015_May_27_1055	s	s	9	5	SIC	125	ABS	0	2	02VD 02VO 02VC 02MD 02MO 02MC 10RD 02RO	0	1	2.17245602608	None	None	None	None	1
2.7	2015_May_27_1055	s	s	9	5	SIC	126	RC	2	2	09VD 02VO 02VC 02MD 02MO 02MC 02RD 02RO	1	0	1.07048988342	405.0	-187.0	409	-193	1
2.7	2015_May_27_1055	s	s	9	5	SIC	127	RC	2	1	02VD 09VO 02VC 02MD 02MO 02MC 02RD 02RO	1	0	0.870256900787	-71.0	313.0	-71	315	1
2.7	2015_May_27_1055	s	s	9	5	SIC	128	ABS	2	0	02VD 02VO 10VC 02MD 02MO 02MC 02RD 02RO	0	1	1.10582900047	None	None	None	None	1
2.7	2015_May_27_1055	s	s	9	5	SIC	129	RC	2	0	02VD 02VO 09VC 02MD 02MO 02MC 02RD 02RO	1	0	1.78852319717	513.0	-328.0	518	-322	1
2.7	2015_May_27_1055	s	s	9	5	SIC	130	ABS	2	2	10VD 02VO 02VC 02MD 02MO 02MC 02RD 02RO	0	1	1.17637395859	None	None	None	None	1
2.7	2015_May_27_1055	s	s	9	5	SIC	131	RC	2	2	09VD 02VO 02VC 02MD 02MO 02MC 02RD 02RO	1	0	1.21176791191	59.0	-275.0	57	-273	1
2.7	2015_May_27_1055	s	s	9	5	SIC	132	ABS	2	0	02VD 02VO 10VC 02MD 02MO 02MC 02RD 02RO	0	1	1.61185693741	None	None	None	None	1
2.7	2015_May_27_1055	s	s	9	5	SIC	133	ABS	1	0	02VD 02VO 02VC 02MD 02MO 10MC 02RD 02RO	0	1	1.57173705101	None	None	None	None	1
2.7	2015_May_27_1055	s	s	9	5	SIC	134	ABS	0	1	02VD 02VO 02VC 02MD 02MO 02MC 02RD 10RO	0	1	1.96239185333	None	None	None	None	1
2.7	2015_May_27_1055	s	s	9	5	SIC	135	ABS	0	2	02VD 02VO 02VC 02MD 02MO 02MC 10RD 02RO	0	1	1.87695097923	None	None	None	None	1
2.7	2015_May_27_1055	s	s	9	5	SIC	136	ABS	1	1	02VD 02VO 02VC 02MD 10MO 02MC 02RD 02RO	0	1	1.78849506378	None	None	None	None	1
2.7	2015_May_27_1055	s	s	9	5	SIC	137	ABS	2	1	02VD 10VO 02VC 02MD 02MO 02MC 02RD 02RO	0	1	0.858646154404	None	None	None	None	1
2.7	2015_May_27_1055	s	s	9	5	SIC	138	RC	0	1	02VD 02VO 02VC 02MD 02MO 02MC 02RD 09RO	1	0	4.04360485077	-237.0	-83.0	-242	-74	1
2.7	2015_May_27_1055	s	s	9	5	SIC	139	RC	0	2	02VD 02VO 02VC 02MD 02MO 02MC 09RD 02RO	1	0	1.88268303871	250.0	130.0	254	127	1
2.7	2015_May_27_1055	s	s	9	5	SIC	140	ABS	1	2	02VD 02VO 02VC 10MD 02MO 02MC 02RD 02RO	0	1	1.9361538887	None	None	None	None	1
2.7	2015_May_27_1055	s	s	9	5	SIC	141	RC	1	2	02VD 02VO 02VC 09MD 02MO 02MC 02RD 02RO	1	0	1.2470459938	-274.0	260.0	-275	262	1
2.7	2015_May_27_1055	s	s	9	5	SIC	142	RC	1	1	02VD 02VO 02VC 02MD 09MO 02MC 02RD 02RO	1	0	1.02709197998	-177.0	321.0	-171	328	1
2.7	2015_May_27_1055	s	s	9	5	SIC	143	RC	2	1	02VD 09VO 02VC 02MD 02MO 02MC 02RD 02RO	1	0	0.752639055252	110.0	182.0	115	184	1
2.7	2015_May_27_1055	s	s	9	5	SIC	144	RC	1	0	02VD 02VO 02VC 02MD 02MO 09MC 02RD 02RO	1	0	0.853428840637	-9.0	403.0	-5	412	1
2.7	2015_May_27_1055	s	s	9	5	SIC	145	ABS	2	1	02VD 10VO 02VC 02MD 02MO 02MC 02RD 02RO	0	1	1.23528599739	None	None	None	None	1
2.7	2015_May_27_1055	s	s	9	5	SIC	146	RC	1	1	02VD 02VO 02VC 02MD 09MO 02MC 02RD 02RO	1	0	1.07047080994	398.0	104.0	400	96	1
2.7	2015_May_27_1055	s	s	9	5	SIC	147	ABS	1	0	02VD 02VO 02VC 02MD 02MO 10MC 02RD 02RO	0	1	2.31320309639	None	None	None	None	1
2.7	2015_May_27_1055	s	s	9	5	SIC	148	ABS	1	2	02VD 02VO 02VC 10MD 02MO 02MC 02RD 02RO	0	1	1.46570205688	None	None	None	None	1
2.7	2015_May_27_1055	s	s	9	5	SIC	149	ABS	2	0	02VD 02VO 10VC 02MD 02MO 02MC 02RD 02RO	0	1	1.43048214912	None	None	None	None	1
2.7	2015_May_27_1055	s	s	9	5	SIC	150	ABS	0	1	02VD 02VO 02VC 02MD 02MO 02MC 02RD 10RO	0	1	3.10164999962	None	None	None	None	1
2.7	2015_May_27_1055	s	s	9	5	SIC	151	ABS	2	2	10VD 02VO 02VC 02MD 02MO 02MC 02RD 02RO	0	1	1.42366790771	None	None	None	None	1
2.7	2015_May_27_1055	s	s	9	5	SIC	152	RC	2	2	09VD 02VO 02VC 02MD 02MO 02MC 02RD 02RO	1	0	1.19992804527	-507.0	23.0	-501	23	1
2.7	2015_May_27_1055	s	s	9	5	SIC	153	RC	1	2	02VD 02VO 02VC 09MD 02MO 02MC 02RD 02RO	1	0	1.60019683838	-193.0	-348.0	-201	-344	1
2.7	2015_May_27_1055	s	s	9	5	SIC	154	RC	2	0	02VD 02VO 09VC 02MD 02MO 02MC 02RD 02RO	1	0	1.32993221283	453.0	-111.0	451	-108	1
2.7	2015_May_27_1055	s	s	9	5	SIC	155	ABS	1	1	02VD 02VO 02VC 02MD 10MO 02MC 02RD 02RO	0	1	2.71333789825	None	None	None	None	1
2.7	2015_May_27_1055	s	s	9	5	SIC	156	ABS	0	2	02VD 02VO 02VC 02MD 02MO 02MC 10RD 02RO	0	1	2.94813418388	None	None	None	None	1
2.7	2015_May_27_1055	s	s	9	5	SIC	157	RC	0	2	02VD 02VO 02VC 02MD 02MO 02MC 09RD 02RO	1	0	0.867332935333	392.0	228.0	387	233	1
2.7	2015_May_27_1055	s	s	9	5	SIC	158	RC	1	0	02VD 02VO 02VC 02MD 02MO 09MC 02RD 02RO	1	0	2.3486700058	117.0	386.0	118	393	1
2.7	2015_May_27_1055	s	s	9	5	SIC	159	RC	0	1	02VD 02VO 02VC 02MD 02MO 02MC 02RD 09RO	1	0	0.712383031845	264.0	102.0	265	111	1
2.7	2015_May_27_1055	s	s	9	5	SIC	160	RC	2	1	02VD 09VO 02VC 02MD 02MO 02MC 02RD 02RO	1	0	1.35049700737	-446.0	-14.0	-450	-10	1
2.7	2015_May_27_1055	s	s	9	5	SIC	161	ABS	2	0	02VD 02VO 10VC 02MD 02MO 02MC 02RD 02RO	0	1	1.52956986427	None	None	None	None	1
2.7	2015_May_27_1055	s	s	9	5	SIC	162	RC	2	1	02VD 09VO 02VC 02MD 02MO 02MC 02RD 02RO	1	0	0.98167514801	377.0	313.0	375	316	1
2.7	2015_May_27_1055	s	s	9	5	SIC	163	ABS	0	1	02VD 02VO 02VC 02MD 02MO 02MC 02RD 10RO	0	1	3.25982904434	None	None	None	None	1
2.7	2015_May_27_1055	s	s	9	5	SIC	164	RC	2	0	02VD 02VO 09VC 02MD 02MO 02MC 02RD 02RO	1	0	0.924197912216	79.0	-137.0	74	-134	1
2.7	2015_May_27_1055	s	s	9	5	SIC	165	RC	0	2	02VD 02VO 02VC 02MD 02MO 02MC 09RD 02RO	1	0	1.21176195145	-220.0	3.0	-225	10	1
2.7	2015_May_27_1055	s	s	9	5	SIC	166	RC	1	1	02VD 02VO 02VC 02MD 09MO 02MC 02RD 02RO	1	0	1.11239886284	214.0	-251.0	209	-244	1
2.7	2015_May_27_1055	s	s	9	5	SIC	167	ABS	1	2	02VD 02VO 02VC 10MD 02MO 02MC 02RD 02RO	0	1	1.25397205353	None	None	None	None	1
2.7	2015_May_27_1055	s	s	9	5	SIC	168	ABS	2	1	02VD 10VO 02VC 02MD 02MO 02MC 02RD 02RO	0	1	1.67751502991	None	None	None	None	1
2.7	2015_May_27_1055	s	s	9	5	SIC	169	ABS	0	2	02VD 02VO 02VC 02MD 02MO 02MC 10RD 02RO	0	1	1.85404109955	None	None	None	None	1
2.7	2015_May_27_1055	s	s	9	5	SIC	170	RC	1	0	02VD 02VO 02VC 02MD 02MO 09MC 02RD 02RO	1	0	0.571020126343	75.0	-5.0	72	4	1
2.7	2015_May_27_1055	s	s	9	5	SIC	171	ABS	1	1	02VD 02VO 02VC 02MD 10MO 02MC 02RD 02RO	0	1	1.9365401268	None	None	None	None	1
2.7	2015_May_27_1055	s	s	9	5	SIC	172	RC	2	2	09VD 02VO 02VC 02MD 02MO 02MC 02RD 02RO	1	0	0.964514970779	-33.0	291.0	-44	295	1
2.7	2015_May_27_1055	s	s	9	5	SIC	173	ABS	2	2	10VD 02VO 02VC 02MD 02MO 02MC 02RD 02RO	0	1	1.89149904251	None	None	None	None	1
2.7	2015_May_27_1055	s	s	9	5	SIC	174	RC	1	2	02VD 02VO 02VC 09MD 02MO 02MC 02RD 02RO	1	0	0.658576011658	97.0	231.0	96	238	1
2.7	2015_May_27_1055	s	s	9	5	SIC	175	ABS	1	0	02VD 02VO 02VC 02MD 02MO 10MC 02RD 02RO	0	1	1.8947031498	None	None	None	None	1
2.7	2015_May_27_1055	s	s	9	5	SIC	176	RC	0	1	02VD 02VO 02VC 02MD 02MO 02MC 02RD 09RO	1	0	2.63081789017	-404.0	-39.0	-406	-34	1
2.7	2015_May_27_1055	s	s	9	5	SIC	177	ABS	1	2	02VD 02VO 02VC 10MD 02MO 02MC 02RD 02RO	0	1	1.77108597755	None	None	None	None	1
2.7	2015_May_27_1055	s	s	9	5	SIC	178	ABS	0	1	02VD 02VO 02VC 02MD 02MO 02MC 02RD 10RO	0	1	2.84793806076	None	None	None	None	1
2.7	2015_May_27_1055	s	s	9	5	SIC	179	RC	2	2	09VD 02VO 02VC 02MD 02MO 02MC 02RD 02RO	0	1	1.12438416481	497.0	-331.0	None	None	0
2.7	2015_May_27_1055	s	s	9	5	SIC	180	ABS	2	0	02VD 02VO 10VC 02MD 02MO 02MC 02RD 02RO	0	1	1.529515028	None	None	None	None	1
2.7	2015_May_27_1055	s	s	9	5	SIC	181	RC	1	2	02VD 02VO 02VC 09MD 02MO 02MC 02RD 02RO	1	0	1.48244595528	-206.0	29.0	-210	33	1
2.7	2015_May_27_1055	s	s	9	5	SIC	182	RC	1	1	02VD 02VO 02VC 02MD 09MO 02MC 02RD 02RO	1	0	0.782315015793	69.0	307.0	67	314	1
2.7	2015_May_27_1055	s	s	9	5	SIC	183	RC	0	1	02VD 02VO 02VC 02MD 02MO 02MC 02RD 09RO	1	0	0.858606100082	-171.0	282.0	-174	288	1
2.7	2015_May_27_1055	s	s	9	5	SIC	184	ABS	0	2	02VD 02VO 02VC 02MD 02MO 02MC 10RD 02RO	0	1	1.63059592247	None	None	None	None	1
2.7	2015_May_27_1055	s	s	9	5	SIC	185	RC	1	0	02VD 02VO 02VC 02MD 02MO 09MC 02RD 02RO	1	0	1.23528695107	-15.0	-360.0	-18	-354	1
2.7	2015_May_27_1055	s	s	9	5	SIC	186	ABS	2	2	10VD 02VO 02VC 02MD 02MO 02MC 02RD 02RO	0	1	1.67771220207	None	None	None	None	1
2.7	2015_May_27_1055	s	s	9	5	SIC	187	RC	2	1	02VD 09VO 02VC 02MD 02MO 02MC 02RD 02RO	1	0	1.66729998589	349.0	408.0	342	417	1
2.7	2015_May_27_1055	s	s	9	5	SIC	188	ABS	2	1	02VD 10VO 02VC 02MD 02MO 02MC 02RD 02RO	0	1	1.20639705658	None	None	None	None	1
2.7	2015_May_27_1055	s	s	9	5	SIC	189	ABS	1	1	02VD 02VO 02VC 02MD 10MO 02MC 02RD 02RO	0	1	1.9830160141	None	None	None	None	1
2.7	2015_May_27_1055	s	s	9	5	SIC	190	RC	2	0	02VD 02VO 09VC 02MD 02MO 02MC 02RD 02RO	1	0	1.85564303398	413.0	-281.0	409	-275	1
2.7	2015_May_27_1055	s	s	9	5	SIC	191	ABS	1	0	02VD 02VO 02VC 02MD 02MO 10MC 02RD 02RO	0	1	1.81204414368	None	None	None	None	1
2.7	2015_May_27_1055	s	s	9	5	SIC	192	RC	0	2	02VD 02VO 02VC 02MD 02MO 02MC 09RD 02RO	1	0	0.735258817673	-104.0	383.0	-109	390	1
2.7	2015_May_27_1055	s	s	9	5	SIC	193	ABS	0	2	02VD 02VO 02VC 02MD 02MO 02MC 10RD 02RO	0	1	1.88262295723	None	None	None	None	1
2.7	2015_May_27_1055	s	s	9	5	SIC	194	ABS	2	0	02VD 02VO 10VC 02MD 02MO 02MC 02RD 02RO	0	1	1.97194004059	None	None	None	None	1
2.7	2015_May_27_1055	s	s	9	5	SIC	195	RC	2	1	02VD 09VO 02VC 02MD 02MO 02MC 02RD 02RO	1	0	2.07102584839	207.0	-377.0	201	-371	1
2.7	2015_May_27_1055	s	s	9	5	SIC	196	ABS	0	1	02VD 02VO 02VC 02MD 02MO 02MC 02RD 10RO	0	1	2.76050806046	None	None	None	None	1
2.7	2015_May_27_1055	s	s	9	5	SIC	197	RC	1	1	02VD 02VO 02VC 02MD 09MO 02MC 02RD 02RO	1	0	0.988091945648	-123.0	386.0	-126	391	1
2.7	2015_May_27_1055	s	s	9	5	SIC	198	RC	1	2	02VD 02VO 02VC 09MD 02MO 02MC 02RD 02RO	1	0	1.92406892776	-423.0	217.0	-430	225	1
2.7	2015_May_27_1055	s	s	9	5	SIC	199	RC	2	0	02VD 02VO 09VC 02MD 02MO 02MC 02RD 02RO	1	0	0.712447881699	-43.0	148.0	-43	157	1
2.7	2015_May_27_1055	s	s	9	5	SIC	200	RC	0	2	02VD 02VO 02VC 02MD 02MO 02MC 09RD 02RO	1	0	1.55314087868	-125.0	-331.0	-125	-326	1
2.7	2015_May_27_1055	s	s	9	5	SIC	201	ABS	1	1	02VD 02VO 02VC 02MD 10MO 02MC 02RD 02RO	0	1	1.40618801117	None	None	None	None	1
2.7	2015_May_27_1055	s	s	9	5	SIC	202	RC	1	0	02VD 02VO 02VC 02MD 02MO 09MC 02RD 02RO	1	0	0.630399942398	86.0	351.0	84	356	1
2.7	2015_May_27_1055	s	s	9	5	SIC	203	RC	2	2	09VD 02VO 02VC 02MD 02MO 02MC 02RD 02RO	1	0	0.737859964371	100.0	128.0	91	124	1
2.7	2015_May_27_1055	s	s	9	5	SIC	204	ABS	2	2	10VD 02VO 02VC 02MD 02MO 02MC 02RD 02RO	0	1	1.12411308289	None	None	None	None	1
2.7	2015_May_27_1055	s	s	9	5	SIC	205	ABS	1	2	02VD 02VO 02VC 10MD 02MO 02MC 02RD 02RO	0	1	1.32412290573	None	None	None	None	1
2.7	2015_May_27_1055	s	s	9	5	SIC	206	ABS	2	1	02VD 10VO 02VC 02MD 02MO 02MC 02RD 02RO	0	1	1.28912210464	None	None	None	None	1
2.7	2015_May_27_1055	s	s	9	5	SIC	207	RC	0	1	02VD 02VO 02VC 02MD 02MO 02MC 02RD 09RO	1	0	2.34170794487	-452.0	-29.0	-454	-33	1
2.7	2015_May_27_1055	s	s	9	5	SIC	208	ABS	1	0	02VD 02VO 02VC 02MD 02MO 10MC 02RD 02RO	0	1	1.57238006592	None	None	None	None	1
2.7	2015_May_27_1055	s	s	9	5	SIC	209	ABS	1	1	02VD 02VO 02VC 02MD 10MO 02MC 02RD 02RO	0	1	1.7149078846	None	None	None	None	1
2.7	2015_May_27_1055	s	s	9	5	SIC	210	ABS	2	1	02VD 10VO 02VC 02MD 02MO 02MC 02RD 02RO	0	1	1.21173501015	None	None	None	None	1
2.7	2015_May_27_1055	s	s	9	5	SIC	211	ABS	2	2	10VD 02VO 02VC 02MD 02MO 02MC 02RD 02RO	0	1	1.55309820175	None	None	None	None	1
2.7	2015_May_27_1055	s	s	9	5	SIC	212	RC	1	0	02VD 02VO 02VC 02MD 02MO 09MC 02RD 02RO	1	0	1.31770801544	355.0	-184.0	356	-176	1
2.7	2015_May_27_1055	s	s	9	5	SIC	213	RC	0	2	02VD 02VO 02VC 02MD 02MO 02MC 09RD 02RO	1	0	2.14161610603	-501.0	-402.0	-505	-399	1
2.7	2015_May_27_1055	s	s	9	5	SIC	214	ABS	0	1	02VD 02VO 02VC 02MD 02MO 02MC 02RD 10RO	0	1	3.02443385124	None	None	None	None	1
2.7	2015_May_27_1055	s	s	9	5	SIC	215	RC	1	2	02VD 02VO 02VC 09MD 02MO 02MC 02RD 02RO	1	0	0.937985181808	-197.0	102.0	-200	108	1
2.7	2015_May_27_1055	s	s	9	5	SIC	216	ABS	0	2	02VD 02VO 02VC 02MD 02MO 02MC 10RD 02RO	0	1	1.55309295654	None	None	None	None	1
2.7	2015_May_27_1055	s	s	9	5	SIC	217	RC	2	1	02VD 09VO 02VC 02MD 02MO 02MC 02RD 02RO	1	0	1.52996301651	-378.0	-98.0	-379	-89	1
2.7	2015_May_27_1055	s	s	9	5	SIC	218	RC	0	1	02VD 02VO 02VC 02MD 02MO 02MC 02RD 09RO	1	0	2.37258601189	526.0	-83.0	522	-78	1
2.7	2015_May_27_1055	s	s	9	5	SIC	219	RC	2	2	09VD 02VO 02VC 02MD 02MO 02MC 02RD 02RO	1	0	1.04694986343	-188.0	226.0	-191	233	1
2.7	2015_May_27_1055	s	s	9	5	SIC	220	ABS	1	0	02VD 02VO 02VC 02MD 02MO 10MC 02RD 02RO	0	1	2.3535130024	None	None	None	None	1
2.7	2015_May_27_1055	s	s	9	5	SIC	221	RC	1	1	02VD 02VO 02VC 02MD 09MO 02MC 02RD 02RO	1	0	1.21175909042	257.0	406.0	254	415	1
2.7	2015_May_27_1055	s	s	9	5	SIC	222	ABS	1	2	02VD 02VO 02VC 10MD 02MO 02MC 02RD 02RO	0	1	1.53709697723	None	None	None	None	1
2.7	2015_May_27_1055	s	s	9	5	SIC	223	ABS	2	0	02VD 02VO 10VC 02MD 02MO 02MC 02RD 02RO	0	1	1.52956295013	None	None	None	None	1
2.7	2015_May_27_1055	s	s	9	5	SIC	224	RC	2	0	02VD 02VO 09VC 02MD 02MO 02MC 02RD 02RO	1	0	1.21174883842	-399.0	9.0	-401	16	1
2.7	2015_May_27_1055	s	s	9	5	SIC	225	ABS	1	2	02VD 02VO 02VC 10MD 02MO 02MC 02RD 02RO	0	1	1.18816494942	None	None	None	None	1
2.7	2015_May_27_1055	s	s	9	5	SIC	226	RC	0	1	02VD 02VO 02VC 02MD 02MO 02MC 02RD 09RO	1	0	1.32426905632	-81.0	-362.0	-89	-358	1
2.7	2015_May_27_1055	s	s	9	5	SIC	227	ABS	2	1	02VD 10VO 02VC 02MD 02MO 02MC 02RD 02RO	0	1	1.5374341011	None	None	None	None	1
2.7	2015_May_27_1055	s	s	9	5	SIC	228	ABS	0	1	02VD 02VO 02VC 02MD 02MO 02MC 02RD 10RO	0	1	2.97735500336	None	None	None	None	1
2.7	2015_May_27_1055	s	s	9	5	SIC	229	RC	1	1	02VD 02VO 02VC 02MD 09MO 02MC 02RD 02RO	1	0	1.41186189651	-146.0	37.0	-150	45	1
2.7	2015_May_27_1055	s	s	9	5	SIC	230	RC	0	2	02VD 02VO 02VC 02MD 02MO 02MC 09RD 02RO	1	0	1.67517590523	-319.0	410.0	-323	413	1
2.7	2015_May_27_1055	s	s	9	5	SIC	231	RC	1	0	02VD 02VO 02VC 02MD 02MO 09MC 02RD 02RO	1	0	2.04297709465	427.0	175.0	425	183	1
2.7	2015_May_27_1055	s	s	9	5	SIC	232	ABS	1	0	02VD 02VO 02VC 02MD 02MO 10MC 02RD 02RO	0	1	1.76252698898	None	None	None	None	1
2.7	2015_May_27_1055	s	s	9	5	SIC	233	RC	2	1	02VD 09VO 02VC 02MD 02MO 02MC 02RD 02RO	1	0	0.858675003052	497.0	-122.0	494	-113	1
2.7	2015_May_27_1055	s	s	9	5	SIC	234	RC	2	2	09VD 02VO 02VC 02MD 02MO 02MC 02RD 02RO	1	0	0.670415878296	338.0	263.0	336	266	1
2.7	2015_May_27_1055	s	s	9	5	SIC	235	ABS	2	0	02VD 02VO 10VC 02MD 02MO 02MC 02RD 02RO	0	1	1.77685904503	None	None	None	None	1
2.7	2015_May_27_1055	s	s	9	5	SIC	236	ABS	0	2	02VD 02VO 02VC 02MD 02MO 02MC 10RD 02RO	0	1	1.75683188438	None	None	None	None	1
2.7	2015_May_27_1055	s	s	9	5	SIC	237	RC	2	0	02VD 02VO 09VC 02MD 02MO 02MC 02RD 02RO	1	0	0.700857162476	318.0	14.0	319	22	1
2.7	2015_May_27_1055	s	s	9	5	SIC	238	ABS	1	1	02VD 02VO 02VC 02MD 10MO 02MC 02RD 02RO	0	1	1.65267491341	None	None	None	None	1
2.7	2015_May_27_1055	s	s	9	5	SIC	239	ABS	2	2	10VD 02VO 02VC 02MD 02MO 02MC 02RD 02RO	0	1	1.51297211647	None	None	None	None	1
2.7	2015_May_27_1055	s	s	9	5	SIC	240	RC	1	2	02VD 02VO 02VC 09MD 02MO 02MC 02RD 02RO	1	0	0.846834897995	229.0	125.0	226	129	1
2.7	2015_May_27_1055	s	s	9	5	SIC	241	ABS	0	2	02VD 02VO 02VC 02MD 02MO 02MC 10RD 02RO	0	1	2.33676791191	None	None	None	None	1
2.7	2015_May_27_1055	s	s	9	5	SIC	242	ABS	1	2	02VD 02VO 02VC 10MD 02MO 02MC 02RD 02RO	0	1	1.82381510735	None	None	None	None	1
2.7	2015_May_27_1055	s	s	9	5	SIC	243	RC	0	2	02VD 02VO 02VC 02MD 02MO 02MC 09RD 02RO	1	0	2.27153420448	-526.0	201.0	-527	201	1
2.7	2015_May_27_1055	s	s	9	5	SIC	244	ABS	2	1	02VD 10VO 02VC 02MD 02MO 02MC 02RD 02RO	0	1	1.61882090569	None	None	None	None	1
2.7	2015_May_27_1055	s	s	9	5	SIC	245	ABS	1	1	02VD 02VO 02VC 02MD 10MO 02MC 02RD 02RO	0	1	2.23081088066	None	None	None	None	1
2.7	2015_May_27_1055	s	s	9	5	SIC	246	ABS	1	0	02VD 02VO 02VC 02MD 02MO 10MC 02RD 02RO	0	1	1.78285980225	None	None	None	None	1
2.7	2015_May_27_1055	s	s	9	5	SIC	247	RC	1	2	02VD 02VO 02VC 09MD 02MO 02MC 02RD 02RO	1	0	1.92589092255	482.0	325.0	484	321	1
2.7	2015_May_27_1055	s	s	9	5	SIC	248	ABS	2	2	10VD 02VO 02VC 02MD 02MO 02MC 02RD 02RO	0	1	1.87965798378	None	None	None	None	1
2.7	2015_May_27_1055	s	s	9	5	SIC	249	RC	2	1	02VD 09VO 02VC 02MD 02MO 02MC 02RD 02RO	1	0	2.3186249733	271.0	-405.0	269	-397	1
2.7	2015_May_27_1055	s	s	9	5	SIC	250	RC	2	0	02VD 02VO 09VC 02MD 02MO 02MC 02RD 02RO	1	0	1.36476492882	444.0	-403.0	440	-397	1
2.7	2015_May_27_1055	s	s	9	5	SIC	251	RC	1	1	02VD 02VO 02VC 02MD 09MO 02MC 02RD 02RO	1	0	1.14148378372	-260.0	342.0	-268	351	1
2.7	2015_May_27_1055	s	s	9	5	SIC	252	RC	0	1	02VD 02VO 02VC 02MD 02MO 02MC 02RD 09RO	1	0	2.89146995544	-438.0	39.0	-442	46	1
2.7	2015_May_27_1055	s	s	9	5	SIC	253	ABS	0	1	02VD 02VO 02VC 02MD 02MO 02MC 02RD 10RO	0	1	3.51375603676	None	None	None	None	1
2.7	2015_May_27_1055	s	s	9	5	SIC	254	ABS	2	0	02VD 02VO 10VC 02MD 02MO 02MC 02RD 02RO	0	1	1.94146895409	None	None	None	None	1
2.7	2015_May_27_1055	s	s	9	5	SIC	255	RC	1	0	02VD 02VO 02VC 02MD 02MO 09MC 02RD 02RO	1	0	1.32702612877	-98.0	306.0	-100	311	1
2.7	2015_May_27_1055	s	s	9	5	SIC	256	RC	2	2	09VD 02VO 02VC 02MD 02MO 02MC 02RD 02RO	1	0	1.91790699959	-538.0	-375.0	-542	-369	1
2.7	2015_May_27_1055	s	s	9	5	SIC	257	RC	1	2	02VD 02VO 02VC 09MD 02MO 02MC 02RD 02RO	1	0	0.808559894562	-73.0	232.0	-81	239	1
2.7	2015_May_27_1055	s	s	9	5	SIC	258	RC	1	0	02VD 02VO 02VC 02MD 02MO 09MC 02RD 02RO	1	0	3.05972290039	-285.0	355.0	-286	359	1
2.7	2015_May_27_1055	s	s	9	5	SIC	259	RC	0	1	02VD 02VO 02VC 02MD 02MO 02MC 02RD 09RO	1	0	1.87893795967	-284.0	-311.0	-291	-305	1
2.7	2015_May_27_1055	s	s	9	5	SIC	260	ABS	2	0	02VD 02VO 10VC 02MD 02MO 02MC 02RD 02RO	0	1	1.80762791634	None	None	None	None	1
2.7	2015_May_27_1055	s	s	9	5	SIC	261	RC	0	2	02VD 02VO 02VC 02MD 02MO 02MC 09RD 02RO	1	0	0.9764149189	381.0	238.0	376	246	1
2.7	2015_May_27_1055	s	s	9	5	SIC	262	ABS	1	2	02VD 02VO 02VC 10MD 02MO 02MC 02RD 02RO	0	1	2.14665102959	None	None	None	None	1
2.7	2015_May_27_1055	s	s	9	5	SIC	263	ABS	2	2	10VD 02VO 02VC 02MD 02MO 02MC 02RD 02RO	0	1	1.78857588768	None	None	None	None	1
2.7	2015_May_27_1055	s	s	9	5	SIC	264	ABS	2	1	02VD 10VO 02VC 02MD 02MO 02MC 02RD 02RO	0	1	1.58393001556	None	None	None	None	1
2.7	2015_May_27_1055	s	s	9	5	SIC	265	RC	2	0	02VD 02VO 09VC 02MD 02MO 02MC 02RD 02RO	1	0	0.84686088562	-50.0	-112.0	-53	-104	1
2.7	2015_May_27_1055	s	s	9	5	SIC	266	RC	1	1	02VD 02VO 02VC 02MD 09MO 02MC 02RD 02RO	1	0	1.05322885513	432.0	-27.0	432	-22	1
2.7	2015_May_27_1055	s	s	9	5	SIC	267	ABS	1	1	02VD 02VO 02VC 02MD 10MO 02MC 02RD 02RO	0	1	2.46616292	None	None	None	None	1
2.7	2015_May_27_1055	s	s	9	5	SIC	268	RC	2	1	02VD 09VO 02VC 02MD 02MO 02MC 02RD 02RO	0	1	1.94821190834	-342.0	-354.0	None	None	0
2.7	2015_May_27_1055	s	s	9	5	SIC	269	RC	2	2	09VD 02VO 02VC 02MD 02MO 02MC 02RD 02RO	1	0	1.27749991417	-456.0	-94.0	-459	-92	1
2.7	2015_May_27_1055	s	s	9	5	SIC	270	ABS	0	2	02VD 02VO 02VC 02MD 02MO 02MC 10RD 02RO	0	1	1.68259596825	None	None	None	None	1
2.7	2015_May_27_1055	s	s	9	5	SIC	271	ABS	0	1	02VD 02VO 02VC 02MD 02MO 02MC 02RD 10RO	0	1	3.04231214523	None	None	None	None	1
2.7	2015_May_27_1055	s	s	9	5	SIC	272	ABS	1	0	02VD 02VO 02VC 02MD 02MO 10MC 02RD 02RO	0	1	2.31446695328	None	None	None	None	1
2.7	2015_May_27_1055	s	s	9	5	SIC	273	ABS	1	2	02VD 02VO 02VC 10MD 02MO 02MC 02RD 02RO	0	1	1.54128098488	None	None	None	None	1
2.7	2015_May_27_1055	s	s	9	5	SIC	274	ABS	0	1	02VD 02VO 02VC 02MD 02MO 02MC 02RD 10RO	0	1	3.17477178574	None	None	None	None	1
2.7	2015_May_27_1055	s	s	9	5	SIC	275	ABS	1	0	02VD 02VO 02VC 02MD 02MO 10MC 02RD 02RO	0	1	1.83076810837	None	None	None	None	1
2.7	2015_May_27_1055	s	s	9	5	SIC	276	RC	2	0	02VD 02VO 09VC 02MD 02MO 02MC 02RD 02RO	1	0	1.31270098686	87.0	-182.0	87	-176	1
2.7	2015_May_27_1055	s	s	9	5	SIC	277	RC	1	2	02VD 02VO 02VC 09MD 02MO 02MC 02RD 02RO	0	1	1.38322305679	505.0	-208.0	None	None	0
2.7	2015_May_27_1055	s	s	9	5	SIC	278	ABS	2	0	02VD 02VO 10VC 02MD 02MO 02MC 02RD 02RO	0	1	1.34808707237	None	None	None	None	1
2.7	2015_May_27_1055	s	s	9	5	SIC	279	ABS	2	2	10VD 02VO 02VC 02MD 02MO 02MC 02RD 02RO	0	1	1.27974104881	None	None	None	None	1
2.7	2015_May_27_1055	s	s	9	5	SIC	280	RC	2	1	02VD 09VO 02VC 02MD 02MO 02MC 02RD 02RO	1	0	0.976376056671	371.0	-91.0	373	-84	1
2.7	2015_May_27_1055	s	s	9	5	SIC	281	RC	1	0	02VD 02VO 02VC 02MD 02MO 09MC 02RD 02RO	1	0	0.92918586731	-159.0	-11.0	-162	-5	1
2.7	2015_May_27_1055	s	s	9	5	SIC	282	ABS	0	2	02VD 02VO 02VC 02MD 02MO 02MC 10RD 02RO	0	1	1.62371993065	None	None	None	None	1
2.7	2015_May_27_1055	s	s	9	5	SIC	283	ABS	2	1	02VD 10VO 02VC 02MD 02MO 02MC 02RD 02RO	0	1	2.00090694427	None	None	None	None	1
2.7	2015_May_27_1055	s	s	9	5	SIC	284	RC	1	1	02VD 02VO 02VC 02MD 09MO 02MC 02RD 02RO	1	0	0.670341968536	-171.0	210.0	-175	214	1
2.7	2015_May_27_1055	s	s	9	5	SIC	285	RC	0	1	02VD 02VO 02VC 02MD 02MO 02MC 02RD 09RO	1	0	1.13602995872	13.0	-29.0	17	-23	1
2.7	2015_May_27_1055	s	s	9	5	SIC	286	RC	2	2	09VD 02VO 02VC 02MD 02MO 02MC 02RD 02RO	1	0	0.759763002396	415.0	260.0	413	261	1
2.7	2015_May_27_1055	s	s	9	5	SIC	287	RC	0	2	02VD 02VO 02VC 02MD 02MO 02MC 09RD 02RO	1	0	1.07957577705	-367.0	221.0	-369	230	1
2.7	2015_May_27_1055	s	s	9	5	SIC	288	ABS	1	1	02VD 02VO 02VC 02MD 10MO 02MC 02RD 02RO	0	1	2.45614004135	None	None	None	None	1
2.7	2015_May_27_1055	s	s	9	5	SIC	289	RC	1	1	02VD 02VO 02VC 02MD 09MO 02MC 02RD 02RO	1	0	1.19722509384	-234.0	265.0	-228	263	1
2.7	2015_May_27_1055	s	s	9	5	SIC	290	ABS	2	0	02VD 02VO 10VC 02MD 02MO 02MC 02RD 02RO	0	1	1.45384407043	None	None	None	None	1
2.7	2015_May_27_1055	s	s	9	5	SIC	291	RC	0	2	02VD 02VO 02VC 02MD 02MO 02MC 09RD 02RO	0	1	1.51272702217	464.0	-195.0	None	None	0
2.7	2015_May_27_1055	s	s	9	5	SIC	292	RC	1	0	02VD 02VO 02VC 02MD 02MO 09MC 02RD 02RO	1	0	2.31567692757	-416.0	-395.0	-419	-386	1
2.7	2015_May_27_1055	s	s	9	5	SIC	293	RC	2	2	09VD 02VO 02VC 02MD 02MO 02MC 02RD 02RO	1	0	0.764456987381	356.0	16.0	354	17	1
2.7	2015_May_27_1055	s	s	9	5	SIC	294	ABS	1	1	02VD 02VO 02VC 02MD 10MO 02MC 02RD 02RO	0	1	1.57665705681	None	None	None	None	1
2.7	2015_May_27_1055	s	s	9	5	SIC	295	ABS	0	1	02VD 02VO 02VC 02MD 02MO 02MC 02RD 10RO	0	1	2.43578100204	None	None	None	None	1
2.7	2015_May_27_1055	s	s	9	5	SIC	296	ABS	1	0	02VD 02VO 02VC 02MD 02MO 10MC 02RD 02RO	0	1	2.07099819183	None	None	None	None	1
2.7	2015_May_27_1055	s	s	9	5	SIC	297	RC	1	2	02VD 02VO 02VC 09MD 02MO 02MC 02RD 02RO	1	0	1.43540000916	404.0	-347.0	408	-344	1
2.7	2015_May_27_1055	s	s	9	5	SIC	298	ABS	2	1	02VD 10VO 02VC 02MD 02MO 02MC 02RD 02RO	0	1	2.08266305923	None	None	None	None	1
2.7	2015_May_27_1055	s	s	9	5	SIC	299	RC	2	1	02VD 09VO 02VC 02MD 02MO 02MC 02RD 02RO	1	0	0.952949047089	239.0	-285.0	247	-281	1
2.7	2015_May_27_1055	s	s	9	5	SIC	300	ABS	0	2	02VD 02VO 02VC 02MD 02MO 02MC 10RD 02RO	0	1	1.75318980217	None	None	None	None	1
2.7	2015_May_27_1055	s	s	9	5	SIC	301	ABS	2	2	10VD 02VO 02VC 02MD 02MO 02MC 02RD 02RO	0	1	1.24435591698	None	None	None	None	1
2.7	2015_May_27_1055	s	s	9	5	SIC	302	ABS	1	2	02VD 02VO 02VC 10MD 02MO 02MC 02RD 02RO	0	1	1.57666492462	None	None	None	None	1
2.7	2015_May_27_1055	s	s	9	5	SIC	303	RC	2	0	02VD 02VO 09VC 02MD 02MO 02MC 02RD 02RO	1	0	1.10273599625	379.0	-283.0	373	-282	1
2.7	2015_May_27_1055	s	s	9	5	SIC	304	RC	0	1	02VD 02VO 02VC 02MD 02MO 02MC 02RD 09RO	1	0	3.18414092064	-511.0	-56.0	-517	-52	1
2.7	2015_May_27_1055	s	s	9	5	SIC	305	ABS	2	2	10VD 02VO 02VC 02MD 02MO 02MC 02RD 02RO	0	1	1.65396308899	None	None	None	None	1
2.7	2015_May_27_1055	s	s	9	5	SIC	306	RC	1	1	02VD 02VO 02VC 02MD 09MO 02MC 02RD 02RO	1	0	1.52486991882	-491.0	202.0	-498	208	1
2.7	2015_May_27_1055	s	s	9	5	SIC	307	ABS	1	2	02VD 02VO 02VC 10MD 02MO 02MC 02RD 02RO	0	1	1.61192393303	None	None	None	None	1
2.7	2015_May_27_1055	s	s	9	5	SIC	308	ABS	0	1	02VD 02VO 02VC 02MD 02MO 02MC 02RD 10RO	0	1	2.90069007874	None	None	None	None	1
2.7	2015_May_27_1055	s	s	9	5	SIC	309	ABS	0	2	02VD 02VO 02VC 02MD 02MO 02MC 10RD 02RO	0	1	1.78852391243	None	None	None	None	1
2.7	2015_May_27_1055	s	s	9	5	SIC	310	RC	1	0	02VD 02VO 02VC 02MD 02MO 09MC 02RD 02RO	1	0	2.99601101875	414.0	-183.0	425	-178	1
2.7	2015_May_27_1055	s	s	9	5	SIC	311	RC	2	0	02VD 02VO 09VC 02MD 02MO 02MC 02RD 02RO	1	0	1.35981893539	193.0	280.0	194	283	1
2.7	2015_May_27_1055	s	s	9	5	SIC	312	ABS	1	0	02VD 02VO 02VC 02MD 02MO 10MC 02RD 02RO	0	1	1.88872313499	None	None	None	None	1
2.7	2015_May_27_1055	s	s	9	5	SIC	313	ABS	2	0	02VD 02VO 10VC 02MD 02MO 02MC 02RD 02RO	0	1	1.09442305565	None	None	None	None	1
2.7	2015_May_27_1055	s	s	9	5	SIC	314	RC	1	2	02VD 02VO 02VC 09MD 02MO 02MC 02RD 02RO	1	0	1.2437069416	-348.0	122.0	-349	128	1
2.7	2015_May_27_1055	s	s	9	5	SIC	315	ABS	2	1	02VD 10VO 02VC 02MD 02MO 02MC 02RD 02RO	0	1	1.49423789978	None	None	None	None	1
2.7	2015_May_27_1055	s	s	9	5	SIC	316	RC	0	1	02VD 02VO 02VC 02MD 02MO 02MC 02RD 09RO	1	0	2.77406001091	124.0	-297.0	123	-294	1
2.7	2015_May_27_1055	s	s	9	5	SIC	317	ABS	1	1	02VD 02VO 02VC 02MD 10MO 02MC 02RD 02RO	0	1	1.74831223488	None	None	None	None	1
2.7	2015_May_27_1055	s	s	9	5	SIC	318	RC	0	2	02VD 02VO 02VC 02MD 02MO 02MC 09RD 02RO	1	0	1.11419510841	-108.0	-277.0	-108	-275	1
2.7	2015_May_27_1055	s	s	9	5	SIC	319	RC	2	2	09VD 02VO 02VC 02MD 02MO 02MC 02RD 02RO	1	0	0.83011007309	278.0	-229.0	278	-230	1
2.7	2015_May_27_1055	s	s	9	5	SIC	320	RC	2	1	02VD 09VO 02VC 02MD 02MO 02MC 02RD 02RO	0	1	1.85424208641	413.0	381.0	None	None	0
2.7	2015_May_27_1055	s	s	9	5	SIC	321	ABS	2	0	02VD 02VO 10VC 02MD 02MO 02MC 02RD 02RO	0	1	1.67083907127	None	None	None	None	1
2.7	2015_May_27_1055	s	s	9	5	SIC	322	RC	1	1	02VD 02VO 02VC 02MD 09MO 02MC 02RD 02RO	1	0	0.835052967072	9.0	-205.0	6	-199	1
2.7	2015_May_27_1055	s	s	9	5	SIC	323	ABS	0	1	02VD 02VO 02VC 02MD 02MO 02MC 02RD 10RO	0	1	2.24290108681	None	None	None	None	1
2.7	2015_May_27_1055	s	s	9	5	SIC	324	RC	2	2	09VD 02VO 02VC 02MD 02MO 02MC 02RD 02RO	1	0	0.823482990265	-90.0	-146.0	-93	-139	1
2.7	2015_May_27_1055	s	s	9	5	SIC	325	RC	1	0	02VD 02VO 02VC 02MD 02MO 09MC 02RD 02RO	1	0	1.05879497528	365.0	-158.0	367	-157	1
2.7	2015_May_27_1055	s	s	9	5	SIC	326	RC	1	2	02VD 02VO 02VC 09MD 02MO 02MC 02RD 02RO	1	0	1.11757898331	-448.0	17.0	-449	15	1
2.7	2015_May_27_1055	s	s	9	5	SIC	327	ABS	1	0	02VD 02VO 02VC 02MD 02MO 10MC 02RD 02RO	0	1	1.4776289463	None	None	None	None	1
2.7	2015_May_27_1055	s	s	9	5	SIC	328	RC	2	1	02VD 09VO 02VC 02MD 02MO 02MC 02RD 02RO	1	0	0.94704580307	431.0	84.0	424	91	1
2.7	2015_May_27_1055	s	s	9	5	SIC	329	ABS	1	1	02VD 02VO 02VC 02MD 10MO 02MC 02RD 02RO	0	1	2.42414999008	None	None	None	None	1
2.7	2015_May_27_1055	s	s	9	5	SIC	330	RC	0	2	02VD 02VO 02VC 02MD 02MO 02MC 09RD 02RO	1	0	1.52451109886	491.0	-113.0	490	-109	1
2.7	2015_May_27_1055	s	s	9	5	SIC	331	RC	0	1	02VD 02VO 02VC 02MD 02MO 02MC 02RD 09RO	1	0	1.22350597382	-261.0	124.0	-264	128	1
2.7	2015_May_27_1055	s	s	9	5	SIC	332	ABS	2	1	02VD 10VO 02VC 02MD 02MO 02MC 02RD 02RO	0	1	2.07710003853	None	None	None	None	1
2.7	2015_May_27_1055	s	s	9	5	SIC	333	ABS	2	2	10VD 02VO 02VC 02MD 02MO 02MC 02RD 02RO	0	1	1.39529395103	None	None	None	None	1
2.7	2015_May_27_1055	s	s	9	5	SIC	334	ABS	1	2	02VD 02VO 02VC 10MD 02MO 02MC 02RD 02RO	0	1	1.70612215996	None	None	None	None	1
2.7	2015_May_27_1055	s	s	9	5	SIC	335	RC	2	0	02VD 02VO 09VC 02MD 02MO 02MC 02RD 02RO	1	0	1.76498985291	-276.0	171.0	-278	176	1
2.7	2015_May_27_1055	s	s	9	5	SIC	336	ABS	0	2	02VD 02VO 02VC 02MD 02MO 02MC 10RD 02RO	0	1	1.66576480865	None	None	None	None	1
2.7	2015_May_27_1055	s	s	9	5	SIC	337	ABS	0	1	02VD 02VO 02VC 02MD 02MO 02MC 02RD 10RO	0	1	2.06855988503	None	None	None	None	1
2.7	2015_May_27_1055	s	s	9	5	SIC	338	RC	0	1	02VD 02VO 02VC 02MD 02MO 02MC 02RD 09RO	1	0	1.12425613403	44.0	365.0	45	366	1
2.7	2015_May_27_1055	s	s	9	5	SIC	339	RC	1	0	02VD 02VO 02VC 02MD 02MO 09MC 02RD 02RO	1	0	1.44371795654	-298.0	-325.0	-299	-323	1
2.7	2015_May_27_1055	s	s	9	5	SIC	340	RC	2	1	02VD 09VO 02VC 02MD 02MO 02MC 02RD 02RO	1	0	1.21866512299	35.0	378.0	34	386	1
2.7	2015_May_27_1055	s	s	9	5	SIC	341	RC	2	2	09VD 02VO 02VC 02MD 02MO 02MC 02RD 02RO	1	0	0.818295955658	457.0	-17.0	454	-9	1
2.7	2015_May_27_1055	s	s	9	5	SIC	342	ABS	0	2	02VD 02VO 02VC 02MD 02MO 02MC 10RD 02RO	0	1	1.80689382553	None	None	None	None	1
2.7	2015_May_27_1055	s	s	9	5	SIC	343	ABS	1	1	02VD 02VO 02VC 02MD 10MO 02MC 02RD 02RO	0	1	1.35993289948	None	None	None	None	1
2.7	2015_May_27_1055	s	s	9	5	SIC	344	RC	2	0	02VD 02VO 09VC 02MD 02MO 02MC 02RD 02RO	1	0	0.582869052887	168.0	274.0	167	272	1
2.7	2015_May_27_1055	s	s	9	5	SIC	345	ABS	2	1	02VD 10VO 02VC 02MD 02MO 02MC 02RD 02RO	0	1	1.59457612038	None	None	None	None	1
2.7	2015_May_27_1055	s	s	9	5	SIC	346	RC	1	2	02VD 02VO 02VC 09MD 02MO 02MC 02RD 02RO	1	0	0.654514074326	188.0	239.0	194	239	1
2.7	2015_May_27_1055	s	s	9	5	SIC	347	RC	1	1	02VD 02VO 02VC 02MD 09MO 02MC 02RD 02RO	1	0	1.16220903397	-265.0	203.0	-265	204	1
2.7	2015_May_27_1055	s	s	9	5	SIC	348	RC	0	2	02VD 02VO 02VC 02MD 02MO 02MC 09RD 02RO	1	0	1.0822532177	468.0	-247.0	471	-241	1
2.7	2015_May_27_1055	s	s	9	5	SIC	349	ABS	1	2	02VD 02VO 02VC 10MD 02MO 02MC 02RD 02RO	0	1	2.38359093666	None	None	None	None	1
2.7	2015_May_27_1055	s	s	9	5	SIC	350	ABS	2	0	02VD 02VO 10VC 02MD 02MO 02MC 02RD 02RO	0	1	2.07705211639	None	None	None	None	1
2.7	2015_May_27_1055	s	s	9	5	SIC	351	ABS	1	0	02VD 02VO 02VC 02MD 02MO 10MC 02RD 02RO	0	1	1.85404396057	None	None	None	None	1
2.7	2015_May_27_1055	s	s	9	5	SIC	352	ABS	2	2	10VD 02VO 02VC 02MD 02MO 02MC 02RD 02RO	0	1	1.34803986549	None	None	None	None	1
2.7	2015_May_27_1055	s	s	9	5	SIC	353	ABS	2	0	02VD 02VO 10VC 02MD 02MO 02MC 02RD 02RO	0	1	1.75324392319	None	None	None	None	1
2.7	2015_May_27_1055	s	s	9	5	SIC	354	RC	2	2	09VD 02VO 02VC 02MD 02MO 02MC 02RD 02RO	1	0	1.48291897774	485.0	336.0	486	342	1
2.7	2015_May_27_1055	s	s	9	5	SIC	355	RC	2	0	02VD 02VO 09VC 02MD 02MO 02MC 02RD 02RO	0	1	1.5008251667	497.0	-401.0	None	None	0
2.7	2015_May_27_1055	s	s	9	5	SIC	356	RC	1	0	02VD 02VO 02VC 02MD 02MO 09MC 02RD 02RO	1	0	1.93891382217	-504.0	-273.0	-512	-275	1
2.7	2015_May_27_1055	s	s	9	5	SIC	357	RC	0	1	02VD 02VO 02VC 02MD 02MO 02MC 02RD 09RO	1	0	2.00736904144	-461.0	-317.0	-464	-312	1
2.7	2015_May_27_1055	s	s	9	5	SIC	358	ABS	0	1	02VD 02VO 02VC 02MD 02MO 02MC 02RD 10RO	0	1	3.40819501877	None	None	None	None	1
2.7	2015_May_27_1055	s	s	9	5	SIC	359	ABS	1	1	02VD 02VO 02VC 02MD 10MO 02MC 02RD 02RO	0	1	1.69426894188	None	None	None	None	1
2.7	2015_May_27_1055	s	s	9	5	SIC	360	ABS	2	1	02VD 10VO 02VC 02MD 02MO 02MC 02RD 02RO	0	1	1.92475390434	None	None	None	None	1
2.7	2015_May_27_1055	s	s	9	5	SIC	361	ABS	1	2	02VD 02VO 02VC 10MD 02MO 02MC 02RD 02RO	0	1	1.50102615356	None	None	None	None	1
2.7	2015_May_27_1055	s	s	9	5	SIC	362	RC	1	1	02VD 02VO 02VC 02MD 09MO 02MC 02RD 02RO	1	0	2.00040006638	481.0	-178.0	477	-170	1
2.7	2015_May_27_1055	s	s	9	5	SIC	363	RC	0	2	02VD 02VO 02VC 02MD 02MO 02MC 09RD 02RO	1	0	1.52953410149	-333.0	-315.0	-334	-307	1
2.7	2015_May_27_1055	s	s	9	5	SIC	364	ABS	0	2	02VD 02VO 02VC 02MD 02MO 02MC 10RD 02RO	0	1	1.83056402206	None	None	None	None	1
2.7	2015_May_27_1055	s	s	9	5	SIC	365	ABS	1	0	02VD 02VO 02VC 02MD 02MO 10MC 02RD 02RO	0	1	1.36478304863	None	None	None	None	1
2.7	2015_May_27_1055	s	s	9	5	SIC	366	RC	1	2	02VD 02VO 02VC 09MD 02MO 02MC 02RD 02RO	1	0	1.45893979073	538.0	369.0	537	374	1
2.7	2015_May_27_1055	s	s	9	5	SIC	367	RC	2	1	02VD 09VO 02VC 02MD 02MO 02MC 02RD 02RO	1	0	0.71200799942	441.0	149.0	437	156	1
2.7	2015_May_27_1055	s	s	9	5	SIC	368	ABS	2	2	10VD 02VO 02VC 02MD 02MO 02MC 02RD 02RO	0	1	1.32950592041	None	None	None	None	1
2.7	2015_May_27_1055	s	s	9	5	SIC	369	ABS	1	1	02VD 02VO 02VC 02MD 10MO 02MC 02RD 02RO	0	1	1.81207108498	None	None	None	None	1
2.7	2015_May_27_1055	s	s	9	5	SIC	370	RC	2	0	02VD 02VO 09VC 02MD 02MO 02MC 02RD 02RO	1	0	0.77618098259	156.0	-337.0	152	-329	1
2.7	2015_May_27_1055	s	s	9	5	SIC	371	RC	1	0	02VD 02VO 02VC 02MD 02MO 09MC 02RD 02RO	1	0	0.897618055344	447.0	-61.0	445	-63	1
2.7	2015_May_27_1055	s	s	9	5	SIC	372	ABS	1	0	02VD 02VO 02VC 02MD 02MO 10MC 02RD 02RO	0	1	2.4779651165	None	None	None	None	1
2.7	2015_May_27_1055	s	s	9	5	SIC	373	ABS	1	2	02VD 02VO 02VC 10MD 02MO 02MC 02RD 02RO	0	1	1.27057099342	None	None	None	None	1
2.7	2015_May_27_1055	s	s	9	5	SIC	374	ABS	0	1	02VD 02VO 02VC 02MD 02MO 02MC 02RD 10RO	0	1	3.05974698067	None	None	None	None	1
2.7	2015_May_27_1055	s	s	9	5	SIC	375	RC	1	1	02VD 02VO 02VC 02MD 09MO 02MC 02RD 02RO	1	0	1.19495391846	-453.0	44.0	-455	48	1
2.7	2015_May_27_1055	s	s	9	5	SIC	376	RC	2	2	09VD 02VO 02VC 02MD 02MO 02MC 02RD 02RO	1	0	1.25890111923	506.0	-130.0	499	-128	1
2.7	2015_May_27_1055	s	s	9	5	SIC	377	ABS	0	2	02VD 02VO 02VC 02MD 02MO 02MC 10RD 02RO	0	1	1.54130792618	None	None	None	None	1
2.7	2015_May_27_1055	s	s	9	5	SIC	378	RC	0	1	02VD 02VO 02VC 02MD 02MO 02MC 02RD 09RO	0	1	2.62177300453	-17.0	206.0	None	None	0
2.7	2015_May_27_1055	s	s	9	5	SIC	379	RC	0	2	02VD 02VO 02VC 02MD 02MO 02MC 09RD 02RO	1	0	1.05280995369	-183.0	221.0	-185	226	1
2.7	2015_May_27_1055	s	s	9	5	SIC	380	ABS	2	1	02VD 10VO 02VC 02MD 02MO 02MC 02RD 02RO	0	1	1.74818301201	None	None	None	None	1
2.7	2015_May_27_1055	s	s	9	5	SIC	381	ABS	2	2	10VD 02VO 02VC 02MD 02MO 02MC 02RD 02RO	0	1	1.8944838047	None	None	None	None	1
2.7	2015_May_27_1055	s	s	9	5	SIC	382	ABS	2	0	02VD 02VO 10VC 02MD 02MO 02MC 02RD 02RO	0	1	1.96508002281	None	None	None	None	1
2.7	2015_May_27_1055	s	s	9	5	SIC	383	RC	1	2	02VD 02VO 02VC 09MD 02MO 02MC 02RD 02RO	1	0	0.941040039062	-224.0	351.0	-220	354	1
2.7	2015_May_27_1055	s	s	9	5	SIC	384	RC	2	1	02VD 09VO 02VC 02MD 02MO 02MC 02RD 02RO	1	0	0.535831928253	-48.0	213.0	-43	209	1
2.7	2015_May_27_1055	s	s	9	5	SIC	385	RC	0	1	02VD 02VO 02VC 02MD 02MO 02MC 02RD 09RO	1	0	1.34163188934	394.0	19.0	401	18	1
2.7	2015_May_27_1055	s	s	9	5	SIC	386	ABS	1	1	02VD 02VO 02VC 02MD 10MO 02MC 02RD 02RO	0	1	1.57660913467	None	None	None	None	1
2.7	2015_May_27_1055	s	s	9	5	SIC	387	ABS	1	2	02VD 02VO 02VC 10MD 02MO 02MC 02RD 02RO	0	1	1.26577210426	None	None	None	None	1
2.7	2015_May_27_1055	s	s	9	5	SIC	388	ABS	0	2	02VD 02VO 02VC 02MD 02MO 02MC 10RD 02RO	0	1	1.43539690971	None	None	None	None	1
2.7	2015_May_27_1055	s	s	9	5	SIC	389	ABS	2	1	02VD 10VO 02VC 02MD 02MO 02MC 02RD 02RO	0	1	0.999917984009	None	None	None	None	1
2.7	2015_May_27_1055	s	s	9	5	SIC	390	RC	2	2	09VD 02VO 02VC 02MD 02MO 02MC 02RD 02RO	1	0	0.832592964172	14.0	-107.0	6	-99	1
2.7	2015_May_27_1055	s	s	9	5	SIC	391	ABS	1	0	02VD 02VO 02VC 02MD 02MO 10MC 02RD 02RO	0	1	2.00035500526	None	None	None	None	1
2.7	2015_May_27_1055	s	s	9	5	SIC	392	RC	0	2	02VD 02VO 02VC 02MD 02MO 02MC 09RD 02RO	1	0	1.24234890938	371.0	68.0	364	68	1
2.7	2015_May_27_1055	s	s	9	5	SIC	393	ABS	0	1	02VD 02VO 02VC 02MD 02MO 02MC 02RD 10RO	0	1	2.33671402931	None	None	None	None	1
2.7	2015_May_27_1055	s	s	9	5	SIC	394	RC	2	0	02VD 02VO 09VC 02MD 02MO 02MC 02RD 02RO	1	0	1.08237886429	190.0	-139.0	184	-132	1
2.7	2015_May_27_1055	s	s	9	5	SIC	395	RC	2	1	02VD 09VO 02VC 02MD 02MO 02MC 02RD 02RO	1	0	1.55311203003	-425.0	-307.0	-423	-300	1
2.7	2015_May_27_1055	s	s	9	5	SIC	396	RC	1	0	02VD 02VO 02VC 02MD 02MO 09MC 02RD 02RO	1	0	0.799729824066	478.0	96.0	477	103	1
2.7	2015_May_27_1055	s	s	9	5	SIC	397	ABS	2	0	02VD 02VO 10VC 02MD 02MO 02MC 02RD 02RO	0	1	1.63549399376	None	None	None	None	1
2.7	2015_May_27_1055	s	s	9	5	SIC	398	RC	1	1	02VD 02VO 02VC 02MD 09MO 02MC 02RD 02RO	1	0	1.25074291229	-355.0	127.0	-360	130	1
2.7	2015_May_27_1055	s	s	9	5	SIC	399	RC	1	2	02VD 02VO 02VC 09MD 02MO 02MC 02RD 02RO	1	0	1.00675988197	411.0	-109.0	406	-103	1
2.7	2015_May_27_1055	s	s	9	5	SIC	400	ABS	2	2	10VD 02VO 02VC 02MD 02MO 02MC 02RD 02RO	0	1	1.35997200012	None	None	None	None	1
2.7	2015_May_27_1055	s	s	9	5	SIC	401	ABS	0	1	02VD 02VO 02VC 02MD 02MO 02MC 02RD 10RO	0	1	3.04445195198	None	None	None	None	1
2.7	2015_May_27_1055	s	s	9	5	SIC	402	RC	0	2	02VD 02VO 02VC 02MD 02MO 02MC 09RD 02RO	1	0	1.82747387886	-60.0	-403.0	-65	-394	1
2.7	2015_May_27_1055	s	s	9	5	SIC	403	RC	0	1	02VD 02VO 02VC 02MD 02MO 02MC 02RD 09RO	1	0	1.97195196152	-242.0	-376.0	-249	-369	1
2.7	2015_May_27_1055	s	s	9	5	SIC	404	ABS	2	0	02VD 02VO 10VC 02MD 02MO 02MC 02RD 02RO	0	1	1.5936319828	None	None	None	None	1
2.7	2015_May_27_1055	s	s	9	5	SIC	405	RC	1	0	02VD 02VO 02VC 02MD 02MO 09MC 02RD 02RO	1	0	1.04242801666	-291.0	275.0	-293	283	1
2.7	2015_May_27_1055	s	s	9	5	SIC	406	ABS	0	2	02VD 02VO 02VC 02MD 02MO 02MC 10RD 02RO	0	1	1.48247504234	None	None	None	None	1
2.7	2015_May_27_1055	s	s	9	5	SIC	407	ABS	1	1	02VD 02VO 02VC 02MD 10MO 02MC 02RD 02RO	0	1	1.94828009605	None	None	None	None	1
2.7	2015_May_27_1055	s	s	9	5	SIC	408	RC	2	0	02VD 02VO 09VC 02MD 02MO 02MC 02RD 02RO	1	0	0.8703789711	273.0	129.0	265	135	1
2.7	2015_May_27_1055	s	s	9	5	SIC	409	ABS	2	1	02VD 10VO 02VC 02MD 02MO 02MC 02RD 02RO	0	1	1.48239612579	None	None	None	None	1
2.7	2015_May_27_1055	s	s	9	5	SIC	410	ABS	2	2	10VD 02VO 02VC 02MD 02MO 02MC 02RD 02RO	0	1	1.96006608009	None	None	None	None	1
2.7	2015_May_27_1055	s	s	9	5	SIC	411	RC	1	2	02VD 02VO 02VC 09MD 02MO 02MC 02RD 02RO	1	0	0.717386007309	-180.0	-40.0	-176	-32	1
2.7	2015_May_27_1055	s	s	9	5	SIC	412	ABS	1	2	02VD 02VO 02VC 10MD 02MO 02MC 02RD 02RO	0	1	1.24700880051	None	None	None	None	1
2.7	2015_May_27_1055	s	s	9	5	SIC	413	RC	1	1	02VD 02VO 02VC 02MD 09MO 02MC 02RD 02RO	1	0	0.776278018951	482.0	328.0	478	333	1
2.7	2015_May_27_1055	s	s	9	5	SIC	414	RC	2	2	09VD 02VO 02VC 02MD 02MO 02MC 02RD 02RO	1	0	0.835144042969	53.0	278.0	49	282	1
2.7	2015_May_27_1055	s	s	9	5	SIC	415	RC	2	1	02VD 09VO 02VC 02MD 02MO 02MC 02RD 02RO	1	0	0.773036003113	-272.0	-107.0	-273	-102	1
2.7	2015_May_27_1055	s	s	9	5	SIC	416	ABS	1	0	02VD 02VO 02VC 02MD 02MO 10MC 02RD 02RO	0	1	1.44717097282	None	None	None	None	1
2.7	2015_May_27_1055	s	s	9	5	SIC	417	ABS	2	1	02VD 10VO 02VC 02MD 02MO 02MC 02RD 02RO	0	1	1.32476496696	None	None	None	None	1
2.7	2015_May_27_1055	s	s	9	5	SIC	418	RC	0	2	02VD 02VO 02VC 02MD 02MO 02MC 09RD 02RO	1	0	0.806744098663	64.0	-31.0	66	-28	1
2.7	2015_May_27_1055	s	s	9	5	SIC	419	ABS	1	0	02VD 02VO 02VC 02MD 02MO 10MC 02RD 02RO	0	1	2.32495093346	None	None	None	None	1
2.7	2015_May_27_1055	s	s	9	5	SIC	420	RC	2	2	09VD 02VO 02VC 02MD 02MO 02MC 02RD 02RO	1	0	0.729157924652	16.0	-217.0	16	-213	1
2.7	2015_May_27_1055	s	s	9	5	SIC	421	RC	0	1	02VD 02VO 02VC 02MD 02MO 02MC 02RD 09RO	1	0	0.726432085037	-52.0	-37.0	-51	-38	1
2.7	2015_May_27_1055	s	s	9	5	SIC	422	RC	1	2	02VD 02VO 02VC 09MD 02MO 02MC 02RD 02RO	1	0	0.588177919388	164.0	-1.0	155	6	1
2.7	2015_May_27_1055	s	s	9	5	SIC	423	ABS	2	0	02VD 02VO 10VC 02MD 02MO 02MC 02RD 02RO	0	1	1.72156715393	None	None	None	None	1
2.7	2015_May_27_1055	s	s	9	5	SIC	424	RC	2	1	02VD 09VO 02VC 02MD 02MO 02MC 02RD 02RO	1	0	1.54134893417	-521.0	-273.0	-522	-270	1
2.7	2015_May_27_1055	s	s	9	5	SIC	425	ABS	1	2	02VD 02VO 02VC 10MD 02MO 02MC 02RD 02RO	0	1	1.54130911827	None	None	None	None	1
2.7	2015_May_27_1055	s	s	9	5	SIC	426	ABS	0	1	02VD 02VO 02VC 02MD 02MO 02MC 02RD 10RO	0	1	2.96056699753	None	None	None	None	1
2.7	2015_May_27_1055	s	s	9	5	SIC	427	ABS	2	2	10VD 02VO 02VC 02MD 02MO 02MC 02RD 02RO	0	1	1.24366211891	None	None	None	None	1
2.7	2015_May_27_1055	s	s	9	5	SIC	428	ABS	0	2	02VD 02VO 02VC 02MD 02MO 02MC 10RD 02RO	0	1	1.47067379951	None	None	None	None	1
2.7	2015_May_27_1055	s	s	9	5	SIC	429	ABS	1	1	02VD 02VO 02VC 02MD 10MO 02MC 02RD 02RO	0	1	1.50105500221	None	None	None	None	1
2.7	2015_May_27_1055	s	s	9	5	SIC	430	RC	2	0	02VD 02VO 09VC 02MD 02MO 02MC 02RD 02RO	1	0	1.22353005409	-324.0	-289.0	-321	-280	1
2.7	2015_May_27_1055	s	s	9	5	SIC	431	RC	1	0	02VD 02VO 02VC 02MD 02MO 09MC 02RD 02RO	1	0	1.64268994331	-179.0	278.0	-182	280	1
2.7	2015_May_27_1055	s	s	9	5	SIC	432	RC	1	1	02VD 02VO 02VC 02MD 09MO 02MC 02RD 02RO	1	0	0.888995170593	-365.0	-33.0	-361	-36	1
2.7	2015_May_27_1055	s	s	9	5	SIC	433	RC	2	2	09VD 02VO 02VC 02MD 02MO 02MC 02RD 02RO	1	0	0.888001203537	452.0	236.0	447	243	1
2.7	2015_May_27_1055	s	s	9	5	SIC	434	RC	0	1	02VD 02VO 02VC 02MD 02MO 02MC 02RD 09RO	1	0	0.635003089905	-213.0	12.0	-205	10	1
2.7	2015_May_27_1055	s	s	9	5	SIC	435	ABS	1	1	02VD 02VO 02VC 02MD 10MO 02MC 02RD 02RO	0	1	1.78202795982	None	None	None	None	1
2.7	2015_May_27_1055	s	s	9	5	SIC	436	RC	1	1	02VD 02VO 02VC 02MD 09MO 02MC 02RD 02RO	1	0	0.811494112015	-113.0	163.0	-113	163	1
2.7	2015_May_27_1055	s	s	9	5	SIC	437	RC	2	1	02VD 09VO 02VC 02MD 02MO 02MC 02RD 02RO	1	0	1.37334680557	-398.0	19.0	-400	24	1
2.7	2015_May_27_1055	s	s	9	5	SIC	438	ABS	2	2	10VD 02VO 02VC 02MD 02MO 02MC 02RD 02RO	0	1	1.15966796875	None	None	None	None	1
2.7	2015_May_27_1055	s	s	9	5	SIC	439	ABS	0	2	02VD 02VO 02VC 02MD 02MO 02MC 10RD 02RO	0	1	1.25896811485	None	None	None	None	1
2.7	2015_May_27_1055	s	s	9	5	SIC	440	RC	0	2	02VD 02VO 02VC 02MD 02MO 02MC 09RD 02RO	1	0	1.22354197502	79.0	-232.0	77	-226	1
2.7	2015_May_27_1055	s	s	9	5	SIC	441	RC	1	0	02VD 02VO 02VC 02MD 02MO 09MC 02RD 02RO	1	0	1.09040403366	-86.0	15.0	-92	20	1
2.7	2015_May_27_1055	s	s	9	5	SIC	442	ABS	0	1	02VD 02VO 02VC 02MD 02MO 02MC 02RD 10RO	0	1	2.42409896851	None	None	None	None	1
2.7	2015_May_27_1055	s	s	9	5	SIC	443	ABS	1	2	02VD 02VO 02VC 10MD 02MO 02MC 02RD 02RO	0	1	1.43544793129	None	None	None	None	1
2.7	2015_May_27_1055	s	s	9	5	SIC	444	RC	1	2	02VD 02VO 02VC 09MD 02MO 02MC 02RD 02RO	1	0	0.7479429245	413.0	16.0	410	23	1
2.7	2015_May_27_1055	s	s	9	5	SIC	445	ABS	1	0	02VD 02VO 02VC 02MD 02MO 10MC 02RD 02RO	0	1	1.90619111061	None	None	None	None	1
2.7	2015_May_27_1055	s	s	9	5	SIC	446	ABS	2	0	02VD 02VO 10VC 02MD 02MO 02MC 02RD 02RO	0	1	1.54130315781	None	None	None	None	1
2.7	2015_May_27_1055	s	s	9	5	SIC	447	RC	2	0	02VD 02VO 09VC 02MD 02MO 02MC 02RD 02RO	1	0	1.08002400398	-400.0	109.0	-400	115	1
2.7	2015_May_27_1055	s	s	9	5	SIC	448	ABS	2	1	02VD 10VO 02VC 02MD 02MO 02MC 02RD 02RO	0	1	1.08901286125	None	None	None	None	1
2.7	2015_May_27_1055	s	s	9	5	SIC	449	RC	2	2	09VD 02VO 02VC 02MD 02MO 02MC 02RD 02RO	1	0	1.67080998421	-523.0	-5.0	-528	-1	1
2.7	2015_May_27_1055	s	s	9	5	SIC	450	ABS	2	2	10VD 02VO 02VC 02MD 02MO 02MC 02RD 02RO	0	1	1.54166388512	None	None	None	None	1
2.7	2015_May_27_1055	s	s	9	5	SIC	451	ABS	1	0	02VD 02VO 02VC 02MD 02MO 10MC 02RD 02RO	0	1	1.45406794548	None	None	None	None	1
2.7	2015_May_27_1055	s	s	9	5	SIC	452	RC	1	0	02VD 02VO 02VC 02MD 02MO 09MC 02RD 02RO	1	0	0.870321035385	193.0	-169.0	193	-165	1
2.7	2015_May_27_1055	s	s	9	5	SIC	453	ABS	0	2	02VD 02VO 02VC 02MD 02MO 02MC 10RD 02RO	0	1	1.72999501228	None	None	None	None	1
2.7	2015_May_27_1055	s	s	9	5	SIC	454	ABS	1	1	02VD 02VO 02VC 02MD 10MO 02MC 02RD 02RO	0	1	1.671241045	None	None	None	None	1
2.7	2015_May_27_1055	s	s	9	5	SIC	455	ABS	0	1	02VD 02VO 02VC 02MD 02MO 02MC 02RD 10RO	0	1	2.91365718842	None	None	None	None	1
2.7	2015_May_27_1055	s	s	9	5	SIC	456	ABS	2	1	02VD 10VO 02VC 02MD 02MO 02MC 02RD 02RO	0	1	1.96012783051	None	None	None	None	1
2.7	2015_May_27_1055	s	s	9	5	SIC	457	RC	1	2	02VD 02VO 02VC 09MD 02MO 02MC 02RD 02RO	1	0	1.56531214714	118.0	-315.0	115	-307	1
2.7	2015_May_27_1055	s	s	9	5	SIC	458	RC	2	0	02VD 02VO 09VC 02MD 02MO 02MC 02RD 02RO	1	0	1.45894289017	323.0	-374.0	320	-369	1
2.7	2015_May_27_1055	s	s	9	5	SIC	459	RC	0	2	02VD 02VO 02VC 02MD 02MO 02MC 09RD 02RO	1	0	2.68030905724	529.0	-250.0	527	-243	1
2.7	2015_May_27_1055	s	s	9	5	SIC	460	ABS	2	0	02VD 02VO 10VC 02MD 02MO 02MC 02RD 02RO	0	1	1.77666497231	None	None	None	None	1
2.7	2015_May_27_1055	s	s	9	5	SIC	461	RC	1	1	02VD 02VO 02VC 02MD 09MO 02MC 02RD 02RO	1	0	0.702953100204	140.0	253.0	135	260	1
2.7	2015_May_27_1055	s	s	9	5	SIC	462	RC	2	1	02VD 09VO 02VC 02MD 02MO 02MC 02RD 02RO	1	0	1.33622288704	130.0	-241.0	126	-239	1
2.7	2015_May_27_1055	s	s	9	5	SIC	463	ABS	1	2	02VD 02VO 02VC 10MD 02MO 02MC 02RD 02RO	0	1	1.10018110275	None	None	None	None	1
2.7	2015_May_27_1055	s	s	9	5	SIC	464	RC	0	1	02VD 02VO 02VC 02MD 02MO 02MC 02RD 09RO	0	1	3.21894717216	-417.0	223.0	None	None	0
2.7	2015_May_27_1055	s	s	9	5	SIC	465	ABS	1	0	02VD 02VO 02VC 02MD 02MO 10MC 02RD 02RO	0	1	1.86757898331	None	None	None	None	1
2.7	2015_May_27_1055	s	s	9	5	SIC	466	ABS	1	1	02VD 02VO 02VC 02MD 10MO 02MC 02RD 02RO	0	1	2.33686208725	None	None	None	None	1
2.7	2015_May_27_1055	s	s	9	5	SIC	467	RC	0	1	02VD 02VO 02VC 02MD 02MO 02MC 02RD 09RO	1	0	1.63059306145	345.0	117.0	344	122	1
2.7	2015_May_27_1055	s	s	9	5	SIC	468	RC	1	2	02VD 02VO 02VC 09MD 02MO 02MC 02RD 02RO	1	0	0.535890817642	102.0	-19.0	99	-12	1
2.7	2015_May_27_1055	s	s	9	5	SIC	469	RC	2	2	09VD 02VO 02VC 02MD 02MO 02MC 02RD 02RO	1	0	0.564284801483	97.0	-1.0	91	6	1
2.7	2015_May_27_1055	s	s	9	5	SIC	470	ABS	1	2	02VD 02VO 02VC 10MD 02MO 02MC 02RD 02RO	0	1	1.16472411156	None	None	None	None	1
2.7	2015_May_27_1055	s	s	9	5	SIC	471	RC	1	1	02VD 02VO 02VC 02MD 09MO 02MC 02RD 02RO	1	0	1.28240799904	356.0	241.0	356	248	1
2.7	2015_May_27_1055	s	s	9	5	SIC	472	RC	2	0	02VD 02VO 09VC 02MD 02MO 02MC 02RD 02RO	1	0	2.14773607254	487.0	-399.0	488	-391	1
2.7	2015_May_27_1055	s	s	9	5	SIC	473	RC	2	1	02VD 09VO 02VC 02MD 02MO 02MC 02RD 02RO	1	0	1.14933490753	-382.0	-130.0	-383	-124	1
2.7	2015_May_27_1055	s	s	9	5	SIC	474	ABS	2	2	10VD 02VO 02VC 02MD 02MO 02MC 02RD 02RO	0	1	1.21529507637	None	None	None	None	1
2.7	2015_May_27_1055	s	s	9	5	SIC	475	ABS	0	2	02VD 02VO 02VC 02MD 02MO 02MC 10RD 02RO	0	1	1.023458004	None	None	None	None	1
2.7	2015_May_27_1055	s	s	9	5	SIC	476	ABS	2	1	02VD 10VO 02VC 02MD 02MO 02MC 02RD 02RO	0	1	1.25610113144	None	None	None	None	1
2.7	2015_May_27_1055	s	s	9	5	SIC	477	ABS	2	0	02VD 02VO 10VC 02MD 02MO 02MC 02RD 02RO	0	1	1.2890598774	None	None	None	None	1
2.7	2015_May_27_1055	s	s	9	5	SIC	478	RC	1	0	02VD 02VO 02VC 02MD 02MO 09MC 02RD 02RO	1	0	0.702974081039	-17.0	18.0	-9	18	1
2.7	2015_May_27_1055	s	s	9	5	SIC	479	ABS	0	1	02VD 02VO 02VC 02MD 02MO 02MC 02RD 10RO	0	1	2.44261193275	None	None	None	None	1
2.7	2015_May_27_1055	s	s	9	5	SIC	480	RC	0	2	02VD 02VO 02VC 02MD 02MO 02MC 09RD 02RO	1	0	1.61863493919	-250.0	152.0	-250	158	1
