Version	Date	Stimuli	Method	Subject	Session	Condition	Trial	Target	Channel1	Channel2	Distractors	LMouseButton	RMouseButton	RT	TargetX	TargetY	ResponseX	ResponseY	Correct
2.7	2015_May_22_1100	s	s	9	3	Capacity	1	ABS	1	0	08VC 16MC	0	1	2.23098707199	None	None	None	None	1
2.7	2015_May_22_1100	s	s	9	3	Capacity	2	ABS	2	0	16VC 08MC	0	1	1.147990942	None	None	None	None	1
2.7	2015_May_22_1100	s	s	9	3	Capacity	3	RC	1	0	08VC 15MC	1	0	1.55959200859	-536.0	-170.0	-538	-175	1
2.7	2015_May_22_1100	s	s	9	3	Capacity	4	RC	2	0	15VC 08MC	1	0	3.7373509407	-371.0	-196.0	-372	-198	1
2.7	2015_May_22_1100	s	s	9	3	Capacity	5	ABS	2	0	16VC 08MC	0	1	6.24956607819	None	None	None	None	1
2.7	2015_May_22_1100	s	s	9	3	Capacity	6	RC	2	0	15VC 08MC	1	0	2.50655198097	304.0	233.0	311	229	1
2.7	2015_May_22_1100	s	s	9	3	Capacity	7	ABS	1	0	08VC 16MC	0	1	2.18859910965	None	None	None	None	1
2.7	2015_May_22_1100	s	s	9	3	Capacity	8	RC	1	0	08VC 15MC	1	0	4.74027991295	464.0	-233.0	471	-231	1
2.7	2015_May_22_1100	s	s	9	3	Capacity	9	RC	2	0	15VC 08MC	1	0	1.46637797356	-52.0	197.0	-46	194	1
2.7	2015_May_22_1100	s	s	9	3	Capacity	10	ABS	2	0	16VC 08MC	0	1	2.30141496658	None	None	None	None	1
2.7	2015_May_22_1100	s	s	9	3	Capacity	11	RC	1	0	08VC 15MC	0	1	2.02375292778	-21.0	277.0	None	None	0
2.7	2015_May_22_1100	s	s	9	3	Capacity	12	ABS	1	0	08VC 16MC	0	1	2.70662713051	None	None	None	None	1
2.7	2015_May_22_1100	s	s	9	3	Capacity	13	ABS	1	0	08VC 16MC	0	1	1.54717111588	None	None	None	None	1
2.7	2015_May_22_1100	s	s	9	3	Capacity	14	RC	1	0	08VC 15MC	0	1	1.68283820152	-228.0	165.0	None	None	0
2.7	2015_May_22_1100	s	s	9	3	Capacity	15	RC	2	0	15VC 08MC	0	1	1.61902618408	-321.0	127.0	None	None	0
2.7	2015_May_22_1100	s	s	9	3	Capacity	16	ABS	2	0	16VC 08MC	0	1	1.86286497116	None	None	None	None	1
2.7	2015_May_22_1100	s	s	9	3	Capacity	17	RC	1	0	08VC 15MC	1	0	2.52750706673	448.0	14.0	451	17	1
2.7	2015_May_22_1100	s	s	9	3	Capacity	18	RC	2	0	15VC 08MC	1	0	3.26667404175	329.0	114.0	323	112	1
2.7	2015_May_22_1100	s	s	9	3	Capacity	19	ABS	1	0	08VC 16MC	0	1	1.92472887039	None	None	None	None	1
2.7	2015_May_22_1100	s	s	9	3	Capacity	20	ABS	2	0	16VC 08MC	0	1	3.63648796082	None	None	None	None	1
2.7	2015_May_22_1100	s	s	9	3	Capacity	21	ABS	1	0	08VC 16MC	0	1	2.4358689785	None	None	None	None	1
2.7	2015_May_22_1100	s	s	9	3	Capacity	22	ABS	2	0	16VC 08MC	0	1	1.80065894127	None	None	None	None	1
2.7	2015_May_22_1100	s	s	9	3	Capacity	23	RC	1	0	08VC 15MC	1	0	2.54889702797	-290.0	-404.0	-289	-409	1
2.7	2015_May_22_1100	s	s	9	3	Capacity	24	RC	2	0	15VC 08MC	1	0	0.823282003403	319.0	125.0	309	127	1
2.7	2015_May_22_1100	s	s	9	3	Capacity	25	ABS	1	0	08VC 16MC	0	1	3.35399603844	None	None	None	None	1
2.7	2015_May_22_1100	s	s	9	3	Capacity	26	RC	1	0	08VC 15MC	1	0	1.35301804543	-58.0	187.0	-59	185	1
2.7	2015_May_22_1100	s	s	9	3	Capacity	27	ABS	2	0	16VC 08MC	0	1	2.35353899002	None	None	None	None	1
2.7	2015_May_22_1100	s	s	9	3	Capacity	28	RC	2	0	15VC 08MC	1	0	0.976311922073	41.0	113.0	36	123	1
2.7	2015_May_22_1100	s	s	9	3	Capacity	29	ABS	1	0	08VC 16MC	0	1	2.25425100327	None	None	None	None	1
2.7	2015_May_22_1100	s	s	9	3	Capacity	30	ABS	2	0	16VC 08MC	0	1	2.43587708473	None	None	None	None	1
2.7	2015_May_22_1100	s	s	9	3	Capacity	31	RC	1	0	08VC 15MC	1	0	2.32509899139	438.0	-281.0	435	-274	1
2.7	2015_May_22_1100	s	s	9	3	Capacity	32	RC	2	0	15VC 08MC	1	0	4.67225909233	538.0	283.0	531	290	1
2.7	2015_May_22_1100	s	s	9	3	Capacity	33	ABS	2	0	16VC 08MC	0	1	2.67792797089	None	None	None	None	1
2.7	2015_May_22_1100	s	s	9	3	Capacity	34	RC	2	0	15VC 08MC	1	0	3.03618311882	-240.0	359.0	-240	366	1
2.7	2015_May_22_1100	s	s	9	3	Capacity	35	RC	1	0	08VC 15MC	1	0	2.5301220417	462.0	-288.0	456	-280	1
2.7	2015_May_22_1100	s	s	9	3	Capacity	36	ABS	1	0	08VC 16MC	0	1	3.28329896927	None	None	None	None	1
2.7	2015_May_22_1100	s	s	9	3	Capacity	37	RC	2	0	15VC 08MC	1	0	1.86573791504	-461.0	-316.0	-473	-307	1
2.7	2015_May_22_1100	s	s	9	3	Capacity	38	ABS	2	0	16VC 08MC	0	1	2.49474406242	None	None	None	None	1
2.7	2015_May_22_1100	s	s	9	3	Capacity	39	ABS	1	0	08VC 16MC	0	1	1.97226190567	None	None	None	None	1
2.7	2015_May_22_1100	s	s	9	3	Capacity	40	RC	1	0	08VC 15MC	1	0	1.65364599228	-388.0	-245.0	-395	-239	1
2.7	2015_May_22_1100	s	s	9	3	Capacity	41	RC	1	0	08VC 15MC	1	0	1.87994194031	-218.0	-286.0	-220	-280	1
2.7	2015_May_22_1100	s	s	9	3	Capacity	42	ABS	2	0	16VC 08MC	0	1	2.35347914696	None	None	None	None	1
2.7	2015_May_22_1100	s	s	9	3	Capacity	43	RC	2	0	15VC 08MC	1	0	1.32490992546	155.0	-324.0	150	-318	1
2.7	2015_May_22_1100	s	s	9	3	Capacity	44	ABS	1	0	08VC 16MC	0	1	2.59582710266	None	None	None	None	1
2.7	2015_May_22_1100	s	s	9	3	Capacity	45	RC	1	0	08VC 15MC	1	0	1.35037994385	-144.0	51.0	-150	58	1
2.7	2015_May_22_1100	s	s	9	3	Capacity	46	ABS	2	0	16VC 08MC	0	1	3.5137450695	None	None	None	None	1
2.7	2015_May_22_1100	s	s	9	3	Capacity	47	RC	2	0	15VC 08MC	1	0	2.34171795845	285.0	398.0	282	404	1
2.7	2015_May_22_1100	s	s	9	3	Capacity	48	ABS	1	0	08VC 16MC	0	1	2.14857602119	None	None	None	None	1
2.7	2015_May_22_1100	s	s	9	3	Capacity	49	RC	1	0	08VC 15MC	1	0	1.81203103065	-476.0	-192.0	-481	-183	1
2.7	2015_May_22_1100	s	s	9	3	Capacity	50	RC	2	0	15VC 08MC	1	0	1.03166794777	317.0	-220.0	314	-212	1
2.7	2015_May_22_1100	s	s	9	3	Capacity	51	ABS	1	0	08VC 16MC	0	1	3.40152192116	None	None	None	None	1
2.7	2015_May_22_1100	s	s	9	3	Capacity	52	ABS	2	0	16VC 08MC	0	1	4.14955186844	None	None	None	None	1
2.7	2015_May_22_1100	s	s	9	3	Capacity	53	ABS	1	0	08VC 16MC	0	1	2.17694401741	None	None	None	None	1
2.7	2015_May_22_1100	s	s	9	3	Capacity	54	RC	2	0	15VC 08MC	1	0	0.924588918686	-251.0	202.0	-256	208	1
2.7	2015_May_22_1100	s	s	9	3	Capacity	55	RC	1	0	08VC 15MC	0	1	2.77717900276	-47.0	364.0	None	None	0
2.7	2015_May_22_1100	s	s	9	3	Capacity	56	ABS	2	0	16VC 08MC	0	1	2.47120285034	None	None	None	None	1
2.7	2015_May_22_1100	s	s	9	3	Capacity	57	RC	1	0	08VC 15MC	1	0	2.3956849575	-35.0	-322.0	-38	-314	1
2.7	2015_May_22_1100	s	s	9	3	Capacity	58	ABS	1	0	08VC 16MC	0	1	3.74873900414	None	None	None	None	1
2.7	2015_May_22_1100	s	s	9	3	Capacity	59	RC	2	0	15VC 08MC	1	0	1.05380582809	52.0	147.0	49	153	1
2.7	2015_May_22_1100	s	s	9	3	Capacity	60	ABS	2	0	16VC 08MC	0	1	1.22351884842	None	None	None	None	1
2.7	2015_May_22_1100	s	s	9	3	Capacity	61	RC	2	0	15VC 08MC	1	0	1.25885915756	-512.0	270.0	-519	276	1
2.7	2015_May_22_1100	s	s	9	3	Capacity	62	ABS	2	0	16VC 08MC	0	1	1.51774406433	None	None	None	None	1
2.7	2015_May_22_1100	s	s	9	3	Capacity	63	RC	1	0	08VC 15MC	1	0	1.25902795792	516.0	57.0	512	65	1
2.7	2015_May_22_1100	s	s	9	3	Capacity	64	ABS	1	0	08VC 16MC	0	1	2.96914505959	None	None	None	None	1
2.7	2015_May_22_1100	s	s	9	3	Capacity	1	RC	0	1	08RD 15RO	1	0	1.14104199409	48.0	106.0	44	111	1
2.7	2015_May_22_1100	s	s	9	3	Capacity	2	ABS	0	1	08RD 16RO	0	1	2.65145277977	None	None	None	None	1
2.7	2015_May_22_1100	s	s	9	3	Capacity	3	ABS	0	2	16RD 08RO	0	1	2.61919307709	None	None	None	None	1
2.7	2015_May_22_1100	s	s	9	3	Capacity	4	RC	0	2	15RD 08RO	1	0	1.58340907097	473.0	404.0	476	407	1
2.7	2015_May_22_1100	s	s	9	3	Capacity	5	ABS	0	2	16RD 08RO	0	1	2.65460705757	None	None	None	None	1
2.7	2015_May_22_1100	s	s	9	3	Capacity	6	ABS	0	1	08RD 16RO	0	1	4.10732507706	None	None	None	None	1
2.7	2015_May_22_1100	s	s	9	3	Capacity	7	RC	0	1	08RD 15RO	1	0	1.53730201721	421.0	-210.0	417	-204	1
2.7	2015_May_22_1100	s	s	9	3	Capacity	8	RC	0	2	15RD 08RO	1	0	1.13603401184	102.0	298.0	100	305	1
2.7	2015_May_22_1100	s	s	9	3	Capacity	9	ABS	0	1	08RD 16RO	0	1	4.16097307205	None	None	None	None	1
2.7	2015_May_22_1100	s	s	9	3	Capacity	10	ABS	0	2	16RD 08RO	0	1	1.88925099373	None	None	None	None	1
2.7	2015_May_22_1100	s	s	9	3	Capacity	11	RC	0	2	15RD 08RO	0	1	2.10690689087	-520.0	-118.0	None	None	0
2.7	2015_May_22_1100	s	s	9	3	Capacity	12	RC	0	1	08RD 15RO	1	0	4.23236918449	-301.0	-364.0	-307	-360	1
2.7	2015_May_22_1100	s	s	9	3	Capacity	13	ABS	0	1	08RD 16RO	0	1	4.06713604927	None	None	None	None	1
2.7	2015_May_22_1100	s	s	9	3	Capacity	14	ABS	0	2	16RD 08RO	0	1	2.28949093819	None	None	None	None	1
2.7	2015_May_22_1100	s	s	9	3	Capacity	15	RC	0	2	15RD 08RO	1	0	2.76549196243	-455.0	-242.0	-451	-245	1
2.7	2015_May_22_1100	s	s	9	3	Capacity	16	RC	0	1	08RD 15RO	1	0	3.20467996597	75.0	269.0	79	269	1
2.7	2015_May_22_1100	s	s	9	3	Capacity	17	ABS	0	1	08RD 16RO	0	1	2.71330213547	None	None	None	None	1
2.7	2015_May_22_1100	s	s	9	3	Capacity	18	RC	0	1	08RD 15RO	1	0	1.06245398521	-99.0	133.0	-99	139	1
2.7	2015_May_22_1100	s	s	9	3	Capacity	19	RC	0	2	15RD 08RO	1	0	2.40045499802	-227.0	101.0	-231	104	1
2.7	2015_May_22_1100	s	s	9	3	Capacity	20	ABS	0	2	16RD 08RO	0	1	2.42409396172	None	None	None	None	1
2.7	2015_May_22_1100	s	s	9	3	Capacity	21	RC	0	2	15RD 08RO	1	0	0.971323013306	-224.0	128.0	-227	136	1
2.7	2015_May_22_1100	s	s	9	3	Capacity	22	RC	0	1	08RD 15RO	1	0	1.74757504463	319.0	274.0	311	280	1
2.7	2015_May_22_1100	s	s	9	3	Capacity	23	ABS	0	1	08RD 16RO	0	1	3.29011678696	None	None	None	None	1
2.7	2015_May_22_1100	s	s	9	3	Capacity	24	ABS	0	2	16RD 08RO	0	1	2.14165210724	None	None	None	None	1
2.7	2015_May_22_1100	s	s	9	3	Capacity	25	RC	0	1	08RD 15RO	0	1	2.70367288589	266.0	-191.0	None	None	0
2.7	2015_May_22_1100	s	s	9	3	Capacity	26	ABS	0	2	16RD 08RO	0	1	1.71790099144	None	None	None	None	1
2.7	2015_May_22_1100	s	s	9	3	Capacity	27	RC	0	2	15RD 08RO	1	0	1.74817490578	316.0	339.0	310	347	1
2.7	2015_May_22_1100	s	s	9	3	Capacity	28	ABS	0	1	08RD 16RO	0	1	2.97719907761	None	None	None	None	1
2.7	2015_May_22_1100	s	s	9	3	Capacity	29	RC	0	1	08RD 15RO	1	0	1.69802308083	-170.0	-39.0	-166	-32	1
2.7	2015_May_22_1100	s	s	9	3	Capacity	30	ABS	0	2	16RD 08RO	0	1	2.74862194061	None	None	None	None	1
2.7	2015_May_22_1100	s	s	9	3	Capacity	31	RC	0	2	15RD 08RO	1	0	2.43086695671	348.0	249.0	338	256	1
2.7	2015_May_22_1100	s	s	9	3	Capacity	32	ABS	0	1	08RD 16RO	0	1	3.66001081467	None	None	None	None	1
2.7	2015_May_22_1100	s	s	9	3	Capacity	33	ABS	0	2	16RD 08RO	0	1	3.28341197968	None	None	None	None	1
2.7	2015_May_22_1100	s	s	9	3	Capacity	34	ABS	0	1	08RD 16RO	0	1	3.04180598259	None	None	None	None	1
2.7	2015_May_22_1100	s	s	9	3	Capacity	35	RC	0	1	08RD 15RO	1	0	2.93394303322	-517.0	398.0	-515	405	1
2.7	2015_May_22_1100	s	s	9	3	Capacity	36	RC	0	2	15RD 08RO	1	0	1.92971491814	-220.0	381.0	-223	384	1
2.7	2015_May_22_1100	s	s	9	3	Capacity	37	ABS	0	2	16RD 08RO	0	1	2.8713350296	None	None	None	None	1
2.7	2015_May_22_1100	s	s	9	3	Capacity	38	RC	0	1	08RD 15RO	1	0	2.93043684959	492.0	-98.0	493	-91	1
2.7	2015_May_22_1100	s	s	9	3	Capacity	39	RC	0	2	15RD 08RO	0	1	2.24402093887	351.0	94.0	None	None	0
2.7	2015_May_22_1100	s	s	9	3	Capacity	40	ABS	0	1	08RD 16RO	0	1	3.30161690712	None	None	None	None	1
2.7	2015_May_22_1100	s	s	9	3	Capacity	41	RC	0	2	15RD 08RO	1	0	2.95381617546	-171.0	-249.0	-172	-240	1
2.7	2015_May_22_1100	s	s	9	3	Capacity	42	ABS	0	1	08RD 16RO	0	1	3.01271796227	None	None	None	None	1
2.7	2015_May_22_1100	s	s	9	3	Capacity	43	ABS	0	2	16RD 08RO	0	1	3.38933682442	None	None	None	None	1
2.7	2015_May_22_1100	s	s	9	3	Capacity	44	RC	0	1	08RD 15RO	1	0	2.10618305206	263.0	84.0	270	90	1
2.7	2015_May_22_1100	s	s	9	3	Capacity	45	ABS	0	1	08RD 16RO	0	1	3.42459201813	None	None	None	None	1
2.7	2015_May_22_1100	s	s	9	3	Capacity	46	ABS	0	2	16RD 08RO	1	0	2.54183602333	None	None	-121	-20	0
2.7	2015_May_22_1100	s	s	9	3	Capacity	47	RC	0	1	08RD 15RO	1	0	2.84788203239	375.0	-85.0	382	-82	1
2.7	2015_May_22_1100	s	s	9	3	Capacity	48	RC	0	2	15RD 08RO	1	0	1.54151010513	167.0	358.0	172	350	1
2.7	2015_May_22_1100	s	s	9	3	Capacity	49	RC	0	2	15RD 08RO	1	0	2.64295291901	-65.0	205.0	-68	209	1
2.7	2015_May_22_1100	s	s	9	3	Capacity	50	RC	0	1	08RD 15RO	1	0	1.89103603363	-40.0	142.0	-37	141	1
2.7	2015_May_22_1100	s	s	9	3	Capacity	51	ABS	0	1	08RD 16RO	0	1	4.28426790237	None	None	None	None	1
2.7	2015_May_22_1100	s	s	9	3	Capacity	52	ABS	0	2	16RD 08RO	1	0	0.976275920868	None	None	-275	153	0
2.7	2015_May_22_1100	s	s	9	3	Capacity	53	RC	0	2	15RD 08RO	1	0	3.46841001511	199.0	366.0	198	361	1
2.7	2015_May_22_1100	s	s	9	3	Capacity	54	ABS	0	2	16RD 08RO	0	1	2.71839094162	None	None	None	None	1
2.7	2015_May_22_1100	s	s	9	3	Capacity	55	RC	0	1	08RD 15RO	1	0	3.38931202888	-124.0	-389.0	-118	-386	1
2.7	2015_May_22_1100	s	s	9	3	Capacity	56	ABS	0	1	08RD 16RO	0	1	3.31902694702	None	None	None	None	1
2.7	2015_May_22_1100	s	s	9	3	Capacity	57	ABS	0	2	16RD 08RO	0	1	3.22454309464	None	None	None	None	1
2.7	2015_May_22_1100	s	s	9	3	Capacity	58	RC	0	2	15RD 08RO	1	0	0.747690916061	104.0	-68.0	101	-68	1
2.7	2015_May_22_1100	s	s	9	3	Capacity	59	ABS	0	1	08RD 16RO	0	1	3.38929319382	None	None	None	None	1
2.7	2015_May_22_1100	s	s	9	3	Capacity	60	RC	0	1	08RD 15RO	1	0	2.67165994644	-531.0	-217.0	-535	-211	1
2.7	2015_May_22_1100	s	s	9	3	Capacity	61	RC	0	2	15RD 08RO	1	0	1.67081308365	295.0	-171.0	294	-168	1
2.7	2015_May_22_1100	s	s	9	3	Capacity	62	ABS	0	1	08RD 16RO	0	1	4.33711600304	None	None	None	None	1
2.7	2015_May_22_1100	s	s	9	3	Capacity	63	RC	0	1	08RD 15RO	1	0	1.02338790894	125.0	306.0	121	311	1
2.7	2015_May_22_1100	s	s	9	3	Capacity	64	ABS	0	2	16RD 08RO	0	1	2.66636514664	None	None	None	None	1
2.7	2015_May_22_1100	s	s	9	3	SIC	1	RC	0	2	02VD 02VO 02VC 02MD 02MO 02MC 09RD 02RO	1	0	2.1017100811	-363.0	-370.0	-366	-374	1
2.7	2015_May_22_1100	s	s	9	3	SIC	2	ABS	1	0	02VD 02VO 02VC 02MD 02MO 10MC 02RD 02RO	0	1	3.05482196808	None	None	None	None	1
2.7	2015_May_22_1100	s	s	9	3	SIC	3	ABS	1	1	02VD 02VO 02VC 02MD 10MO 02MC 02RD 02RO	0	1	2.64262294769	None	None	None	None	1
2.7	2015_May_22_1100	s	s	9	3	SIC	4	RC	0	1	02VD 02VO 02VC 02MD 02MO 02MC 02RD 09RO	1	0	4.11412382126	242.0	332.0	245	335	1
2.7	2015_May_22_1100	s	s	9	3	SIC	5	ABS	2	2	10VD 02VO 02VC 02MD 02MO 02MC 02RD 02RO	0	1	2.28287100792	None	None	None	None	1
2.7	2015_May_22_1100	s	s	9	3	SIC	6	ABS	2	0	02VD 02VO 10VC 02MD 02MO 02MC 02RD 02RO	0	1	1.73510408401	None	None	None	None	1
2.7	2015_May_22_1100	s	s	9	3	SIC	7	ABS	2	1	02VD 10VO 02VC 02MD 02MO 02MC 02RD 02RO	0	1	2.8948829174	None	None	None	None	1
2.7	2015_May_22_1100	s	s	9	3	SIC	8	RC	2	1	02VD 09VO 02VC 02MD 02MO 02MC 02RD 02RO	1	0	5.10766005516	-428.0	350.0	-428	348	1
2.7	2015_May_22_1100	s	s	9	3	SIC	9	RC	1	2	02VD 02VO 02VC 09MD 02MO 02MC 02RD 02RO	1	0	1.40690302849	-233.0	63.0	-235	63	1
2.7	2015_May_22_1100	s	s	9	3	SIC	10	ABS	0	2	02VD 02VO 02VC 02MD 02MO 02MC 10RD 02RO	0	1	2.12469696999	None	None	None	None	1
2.7	2015_May_22_1100	s	s	9	3	SIC	11	RC	2	0	02VD 02VO 09VC 02MD 02MO 02MC 02RD 02RO	1	0	2.29482889175	510.0	-196.0	509	-194	1
2.7	2015_May_22_1100	s	s	9	3	SIC	12	RC	2	2	09VD 02VO 02VC 02MD 02MO 02MC 02RD 02RO	1	0	0.84685587883	-215.0	83.0	-218	89	1
2.7	2015_May_22_1100	s	s	9	3	SIC	13	ABS	1	2	02VD 02VO 02VC 10MD 02MO 02MC 02RD 02RO	0	1	2.17181491852	None	None	None	None	1
2.7	2015_May_22_1100	s	s	9	3	SIC	14	RC	1	1	02VD 02VO 02VC 02MD 09MO 02MC 02RD 02RO	1	0	1.44463682175	-367.0	301.0	-372	308	1
2.7	2015_May_22_1100	s	s	9	3	SIC	15	RC	1	0	02VD 02VO 02VC 02MD 02MO 09MC 02RD 02RO	1	0	2.31312513351	476.0	-231.0	471	-222	1
2.7	2015_May_22_1100	s	s	9	3	SIC	16	ABS	0	1	02VD 02VO 02VC 02MD 02MO 02MC 02RD 10RO	0	1	3.4078578949	None	None	None	None	1
2.7	2015_May_22_1100	s	s	9	3	SIC	17	RC	2	2	09VD 02VO 02VC 02MD 02MO 02MC 02RD 02RO	1	0	2.00032711029	-472.0	-162.0	-477	-155	1
2.7	2015_May_22_1100	s	s	9	3	SIC	18	ABS	1	2	02VD 02VO 02VC 10MD 02MO 02MC 02RD 02RO	0	1	2.58879804611	None	None	None	None	1
2.7	2015_May_22_1100	s	s	9	3	SIC	19	ABS	2	1	02VD 10VO 02VC 02MD 02MO 02MC 02RD 02RO	0	1	1.60695409775	None	None	None	None	1
2.7	2015_May_22_1100	s	s	9	3	SIC	20	ABS	0	2	02VD 02VO 02VC 02MD 02MO 02MC 10RD 02RO	0	1	2.96550512314	None	None	None	None	1
2.7	2015_May_22_1100	s	s	9	3	SIC	21	RC	2	0	02VD 02VO 09VC 02MD 02MO 02MC 02RD 02RO	1	0	1.75319814682	-11.0	367.0	-13	375	1
2.7	2015_May_22_1100	s	s	9	3	SIC	22	ABS	0	1	02VD 02VO 02VC 02MD 02MO 02MC 02RD 10RO	0	1	2.89492487907	None	None	None	None	1
2.7	2015_May_22_1100	s	s	9	3	SIC	23	RC	0	1	02VD 02VO 02VC 02MD 02MO 02MC 02RD 09RO	0	1	2.89479279518	446.0	-41.0	None	None	0
2.7	2015_May_22_1100	s	s	9	3	SIC	24	RC	1	0	02VD 02VO 02VC 02MD 02MO 09MC 02RD 02RO	0	1	3.89535903931	-143.0	-143.0	None	None	0
2.7	2015_May_22_1100	s	s	9	3	SIC	25	RC	0	2	02VD 02VO 02VC 02MD 02MO 02MC 09RD 02RO	1	0	3.10211110115	362.0	-351.0	360	-343	1
2.7	2015_May_22_1100	s	s	9	3	SIC	26	RC	1	2	02VD 02VO 02VC 09MD 02MO 02MC 02RD 02RO	1	0	1.37118601799	275.0	28.0	273	38	1
2.7	2015_May_22_1100	s	s	9	3	SIC	27	ABS	1	0	02VD 02VO 02VC 02MD 02MO 10MC 02RD 02RO	0	1	4.24855589867	None	None	None	None	1
2.7	2015_May_22_1100	s	s	9	3	SIC	28	ABS	1	1	02VD 02VO 02VC 02MD 10MO 02MC 02RD 02RO	0	1	3.17742180824	None	None	None	None	1
2.7	2015_May_22_1100	s	s	9	3	SIC	29	ABS	2	2	10VD 02VO 02VC 02MD 02MO 02MC 02RD 02RO	0	1	1.65899610519	None	None	None	None	1
2.7	2015_May_22_1100	s	s	9	3	SIC	30	ABS	2	0	02VD 02VO 10VC 02MD 02MO 02MC 02RD 02RO	0	1	2.33542108536	None	None	None	None	1
2.7	2015_May_22_1100	s	s	9	3	SIC	31	RC	1	1	02VD 02VO 02VC 02MD 09MO 02MC 02RD 02RO	0	1	3.48355793953	-496.0	304.0	None	None	0
2.7	2015_May_22_1100	s	s	9	3	SIC	32	RC	2	1	02VD 09VO 02VC 02MD 02MO 02MC 02RD 02RO	1	0	2.56105995178	-319.0	-387.0	-322	-380	1
2.7	2015_May_22_1100	s	s	9	3	SIC	33	ABS	0	1	02VD 02VO 02VC 02MD 02MO 02MC 02RD 10RO	0	1	2.76032185555	None	None	None	None	1
2.7	2015_May_22_1100	s	s	9	3	SIC	34	ABS	1	0	02VD 02VO 02VC 02MD 02MO 10MC 02RD 02RO	0	1	1.92428207397	None	None	None	None	1
2.7	2015_May_22_1100	s	s	9	3	SIC	35	RC	2	0	02VD 02VO 09VC 02MD 02MO 02MC 02RD 02RO	1	0	1.07051801682	112.0	88.0	111	95	1
2.7	2015_May_22_1100	s	s	9	3	SIC	36	ABS	1	1	02VD 02VO 02VC 02MD 10MO 02MC 02RD 02RO	0	1	1.99773097038	None	None	None	None	1
2.7	2015_May_22_1100	s	s	9	3	SIC	37	RC	2	1	02VD 09VO 02VC 02MD 02MO 02MC 02RD 02RO	1	0	1.14116692543	16.0	-140.0	13	-131	1
2.7	2015_May_22_1100	s	s	9	3	SIC	38	RC	1	0	02VD 02VO 02VC 02MD 02MO 09MC 02RD 02RO	1	0	1.60012102127	465.0	-91.0	460	-84	1
2.7	2015_May_22_1100	s	s	9	3	SIC	39	ABS	2	0	02VD 02VO 10VC 02MD 02MO 02MC 02RD 02RO	0	1	1.63545012474	None	None	None	None	1
2.7	2015_May_22_1100	s	s	9	3	SIC	40	ABS	2	2	10VD 02VO 02VC 02MD 02MO 02MC 02RD 02RO	0	1	2.04250097275	None	None	None	None	1
2.7	2015_May_22_1100	s	s	9	3	SIC	41	RC	2	2	09VD 02VO 02VC 02MD 02MO 02MC 02RD 02RO	1	0	1.16462779045	-111.0	55.0	-115	63	1
2.7	2015_May_22_1100	s	s	9	3	SIC	42	ABS	2	1	02VD 10VO 02VC 02MD 02MO 02MC 02RD 02RO	0	1	2.23578596115	None	None	None	None	1
2.7	2015_May_22_1100	s	s	9	3	SIC	43	RC	1	2	02VD 02VO 02VC 09MD 02MO 02MC 02RD 02RO	1	0	2.23580098152	493.0	-396.0	490	-389	1
2.7	2015_May_22_1100	s	s	9	3	SIC	44	RC	1	1	02VD 02VO 02VC 02MD 09MO 02MC 02RD 02RO	1	0	1.19486093521	341.0	26.0	341	34	1
2.7	2015_May_22_1100	s	s	9	3	SIC	45	ABS	1	2	02VD 02VO 02VC 10MD 02MO 02MC 02RD 02RO	0	1	1.70116591454	None	None	None	None	1
2.7	2015_May_22_1100	s	s	9	3	SIC	46	RC	0	2	02VD 02VO 02VC 02MD 02MO 02MC 09RD 02RO	1	0	1.00651288033	344.0	42.0	338	48	1
2.7	2015_May_22_1100	s	s	9	3	SIC	47	RC	0	1	02VD 02VO 02VC 02MD 02MO 02MC 02RD 09RO	0	1	4.3662250042	35.0	-88.0	None	None	0
2.7	2015_May_22_1100	s	s	9	3	SIC	48	ABS	0	2	02VD 02VO 02VC 02MD 02MO 02MC 10RD 02RO	0	1	2.10631394386	None	None	None	None	1
2.7	2015_May_22_1100	s	s	9	3	SIC	49	ABS	0	2	02VD 02VO 02VC 02MD 02MO 02MC 10RD 02RO	0	1	1.76051402092	None	None	None	None	1
2.7	2015_May_22_1100	s	s	9	3	SIC	50	ABS	2	1	02VD 10VO 02VC 02MD 02MO 02MC 02RD 02RO	0	1	1.68950104713	None	None	None	None	1
2.7	2015_May_22_1100	s	s	9	3	SIC	51	RC	0	2	02VD 02VO 02VC 02MD 02MO 02MC 09RD 02RO	0	1	2.23093104362	-191.0	249.0	None	None	0
2.7	2015_May_22_1100	s	s	9	3	SIC	52	ABS	2	2	10VD 02VO 02VC 02MD 02MO 02MC 02RD 02RO	0	1	1.68254089355	None	None	None	None	1
2.7	2015_May_22_1100	s	s	9	3	SIC	53	ABS	1	2	02VD 02VO 02VC 10MD 02MO 02MC 02RD 02RO	0	1	1.60016703606	None	None	None	None	1
2.7	2015_May_22_1100	s	s	9	3	SIC	54	ABS	1	1	02VD 02VO 02VC 02MD 10MO 02MC 02RD 02RO	0	1	2.73857998848	None	None	None	None	1
2.7	2015_May_22_1100	s	s	9	3	SIC	55	RC	1	1	02VD 02VO 02VC 02MD 09MO 02MC 02RD 02RO	1	0	1.22120690346	-302.0	132.0	-303	139	1
2.7	2015_May_22_1100	s	s	9	3	SIC	56	RC	1	0	02VD 02VO 02VC 02MD 02MO 09MC 02RD 02RO	0	1	2.10634493828	278.0	281.0	None	None	0
2.7	2015_May_22_1100	s	s	9	3	SIC	57	RC	2	2	09VD 02VO 02VC 02MD 02MO 02MC 02RD 02RO	1	0	2.41992497444	245.0	-384.0	240	-376	1
2.7	2015_May_22_1100	s	s	9	3	SIC	58	RC	2	1	02VD 09VO 02VC 02MD 02MO 02MC 02RD 02RO	1	0	1.82378411293	-408.0	312.0	-408	321	1
2.7	2015_May_22_1100	s	s	9	3	SIC	59	RC	2	0	02VD 02VO 09VC 02MD 02MO 02MC 02RD 02RO	1	0	2.03285598755	471.0	138.0	467	140	1
2.7	2015_May_22_1100	s	s	9	3	SIC	60	RC	0	1	02VD 02VO 02VC 02MD 02MO 02MC 02RD 09RO	1	0	2.93018913269	-328.0	16.0	-331	26	1
2.7	2015_May_22_1100	s	s	9	3	SIC	61	ABS	0	1	02VD 02VO 02VC 02MD 02MO 02MC 02RD 10RO	0	1	4.02490210533	None	None	None	None	1
2.7	2015_May_22_1100	s	s	9	3	SIC	62	ABS	1	0	02VD 02VO 02VC 02MD 02MO 10MC 02RD 02RO	0	1	2.25933003426	None	None	None	None	1
2.7	2015_May_22_1100	s	s	9	3	SIC	63	ABS	2	0	02VD 02VO 10VC 02MD 02MO 02MC 02RD 02RO	0	1	1.92975497246	None	None	None	None	1
2.7	2015_May_22_1100	s	s	9	3	SIC	64	RC	1	2	02VD 02VO 02VC 09MD 02MO 02MC 02RD 02RO	1	0	1.52464389801	-252.0	-222.0	-255	-216	1
2.7	2015_May_22_1100	s	s	9	3	SIC	65	RC	1	1	02VD 02VO 02VC 02MD 09MO 02MC 02RD 02RO	1	0	2.1719520092	399.0	-392.0	401	-384	1
2.7	2015_May_22_1100	s	s	9	3	SIC	66	RC	0	1	02VD 02VO 02VC 02MD 02MO 02MC 02RD 09RO	1	0	2.44765686989	456.0	16.0	463	26	1
2.7	2015_May_22_1100	s	s	9	3	SIC	67	ABS	1	0	02VD 02VO 02VC 02MD 02MO 10MC 02RD 02RO	0	1	2.00723910332	None	None	None	None	1
2.7	2015_May_22_1100	s	s	9	3	SIC	68	ABS	1	1	02VD 02VO 02VC 02MD 10MO 02MC 02RD 02RO	0	1	3.22494006157	None	None	None	None	1
2.7	2015_May_22_1100	s	s	9	3	SIC	69	RC	2	0	02VD 02VO 09VC 02MD 02MO 02MC 02RD 02RO	1	0	2.83354997635	-454.0	17.0	-459	24	1
2.7	2015_May_22_1100	s	s	9	3	SIC	70	RC	2	1	02VD 09VO 02VC 02MD 02MO 02MC 02RD 02RO	1	0	1.32945585251	499.0	65.0	495	71	1
2.7	2015_May_22_1100	s	s	9	3	SIC	71	RC	1	2	02VD 02VO 02VC 09MD 02MO 02MC 02RD 02RO	0	1	2.06752681732	265.0	366.0	None	None	0
2.7	2015_May_22_1100	s	s	9	3	SIC	72	ABS	1	2	02VD 02VO 02VC 10MD 02MO 02MC 02RD 02RO	0	1	3.17265892029	None	None	None	None	1
2.7	2015_May_22_1100	s	s	9	3	SIC	73	RC	0	2	02VD 02VO 02VC 02MD 02MO 02MC 09RD 02RO	1	0	1.96019291878	-278.0	-81.0	-282	-76	1
2.7	2015_May_22_1100	s	s	9	3	SIC	74	ABS	2	0	02VD 02VO 10VC 02MD 02MO 02MC 02RD 02RO	0	1	2.81919598579	None	None	None	None	1
2.7	2015_May_22_1100	s	s	9	3	SIC	75	ABS	0	2	02VD 02VO 02VC 02MD 02MO 02MC 10RD 02RO	0	1	2.51824593544	None	None	None	None	1
2.7	2015_May_22_1100	s	s	9	3	SIC	76	ABS	2	1	02VD 10VO 02VC 02MD 02MO 02MC 02RD 02RO	0	1	2.54179883003	None	None	None	None	1
2.7	2015_May_22_1100	s	s	9	3	SIC	77	RC	2	2	09VD 02VO 02VC 02MD 02MO 02MC 02RD 02RO	1	0	1.99236106873	167.0	-80.0	165	-71	1
2.7	2015_May_22_1100	s	s	9	3	SIC	78	ABS	0	1	02VD 02VO 02VC 02MD 02MO 02MC 02RD 10RO	0	1	3.44427013397	None	None	None	None	1
2.7	2015_May_22_1100	s	s	9	3	SIC	79	RC	1	0	02VD 02VO 02VC 02MD 02MO 09MC 02RD 02RO	0	1	3.62177014351	491.0	-410.0	None	None	0
2.7	2015_May_22_1100	s	s	9	3	SIC	80	ABS	2	2	10VD 02VO 02VC 02MD 02MO 02MC 02RD 02RO	0	1	1.98424005508	None	None	None	None	1
2.7	2015_May_22_1100	s	s	9	3	SIC	81	ABS	2	1	02VD 10VO 02VC 02MD 02MO 02MC 02RD 02RO	0	1	1.57202386856	None	None	None	None	1
2.7	2015_May_22_1100	s	s	9	3	SIC	82	RC	2	0	02VD 02VO 09VC 02MD 02MO 02MC 02RD 02RO	1	0	1.2185819149	404.0	7.0	396	14	1
2.7	2015_May_22_1100	s	s	9	3	SIC	83	RC	1	0	02VD 02VO 02VC 02MD 02MO 09MC 02RD 02RO	1	0	2.23048090935	0.0	359.0	-3	368	1
2.7	2015_May_22_1100	s	s	9	3	SIC	84	ABS	0	2	02VD 02VO 02VC 02MD 02MO 02MC 10RD 02RO	0	1	2.16514396667	None	None	None	None	1
2.7	2015_May_22_1100	s	s	9	3	SIC	85	RC	2	1	02VD 09VO 02VC 02MD 02MO 02MC 02RD 02RO	1	0	2.43592309952	-254.0	-300.0	-258	-296	1
2.7	2015_May_22_1100	s	s	9	3	SIC	86	ABS	1	2	02VD 02VO 02VC 10MD 02MO 02MC 02RD 02RO	0	1	1.71313714981	None	None	None	None	1
2.7	2015_May_22_1100	s	s	9	3	SIC	87	RC	0	1	02VD 02VO 02VC 02MD 02MO 02MC 02RD 09RO	1	0	3.33731913567	-449.0	267.0	-447	273	1
2.7	2015_May_22_1100	s	s	9	3	SIC	88	RC	0	2	02VD 02VO 02VC 02MD 02MO 02MC 09RD 02RO	1	0	1.15978288651	-125.0	215.0	-124	220	1
2.7	2015_May_22_1100	s	s	9	3	SIC	89	ABS	0	1	02VD 02VO 02VC 02MD 02MO 02MC 02RD 10RO	0	1	3.78933095932	None	None	None	None	1
2.7	2015_May_22_1100	s	s	9	3	SIC	90	ABS	2	2	10VD 02VO 02VC 02MD 02MO 02MC 02RD 02RO	0	1	1.6917181015	None	None	None	None	1
2.7	2015_May_22_1100	s	s	9	3	SIC	91	ABS	1	1	02VD 02VO 02VC 02MD 10MO 02MC 02RD 02RO	0	1	2.58379292488	None	None	None	None	1
2.7	2015_May_22_1100	s	s	9	3	SIC	92	RC	2	2	09VD 02VO 02VC 02MD 02MO 02MC 02RD 02RO	1	0	2.12542009354	-375.0	-45.0	-374	-35	1
2.7	2015_May_22_1100	s	s	9	3	SIC	93	RC	1	1	02VD 02VO 02VC 02MD 09MO 02MC 02RD 02RO	1	0	1.72160410881	442.0	117.0	436	125	1
2.7	2015_May_22_1100	s	s	9	3	SIC	94	ABS	2	0	02VD 02VO 10VC 02MD 02MO 02MC 02RD 02RO	0	1	2.26594400406	None	None	None	None	1
2.7	2015_May_22_1100	s	s	9	3	SIC	95	RC	1	2	02VD 02VO 02VC 09MD 02MO 02MC 02RD 02RO	1	0	1.19994187355	-22.0	250.0	-25	259	1
2.7	2015_May_22_1100	s	s	9	3	SIC	96	ABS	1	0	02VD 02VO 02VC 02MD 02MO 10MC 02RD 02RO	0	1	2.46610116959	None	None	None	None	1
2.7	2015_May_22_1100	s	s	9	3	SIC	97	ABS	1	0	02VD 02VO 02VC 02MD 02MO 10MC 02RD 02RO	0	1	3.84834289551	None	None	None	None	1
2.7	2015_May_22_1100	s	s	9	3	SIC	98	RC	0	1	02VD 02VO 02VC 02MD 02MO 02MC 02RD 09RO	1	0	4.79004788399	187.0	-66.0	187	-57	1
2.7	2015_May_22_1100	s	s	9	3	SIC	99	RC	0	2	02VD 02VO 02VC 02MD 02MO 02MC 09RD 02RO	1	0	1.83003902435	514.0	229.0	509	236	1
2.7	2015_May_22_1100	s	s	9	3	SIC	100	RC	2	2	09VD 02VO 02VC 02MD 02MO 02MC 02RD 02RO	1	0	3.13711094856	250.0	-285.0	251	-281	1
2.7	2015_May_22_1100	s	s	9	3	SIC	101	RC	1	1	02VD 02VO 02VC 02MD 09MO 02MC 02RD 02RO	1	0	2.82433199883	-104.0	9.0	-82	204	0
2.7	2015_May_22_1100	s	s	9	3	SIC	102	RC	1	0	02VD 02VO 02VC 02MD 02MO 09MC 02RD 02RO	1	0	1.61193490028	364.0	-202.0	366	-201	1
2.7	2015_May_22_1100	s	s	9	3	SIC	103	ABS	2	1	02VD 10VO 02VC 02MD 02MO 02MC 02RD 02RO	0	1	1.85647392273	None	None	None	None	1
2.7	2015_May_22_1100	s	s	9	3	SIC	104	RC	2	1	02VD 09VO 02VC 02MD 02MO 02MC 02RD 02RO	1	0	2.03583288193	-510.0	-252.0	-518	-253	1
2.7	2015_May_22_1100	s	s	9	3	SIC	105	RC	1	2	02VD 02VO 02VC 09MD 02MO 02MC 02RD 02RO	1	0	1.87090587616	-287.0	-357.0	-295	-356	1
2.7	2015_May_22_1100	s	s	9	3	SIC	106	ABS	2	2	10VD 02VO 02VC 02MD 02MO 02MC 02RD 02RO	0	1	2.04231095314	None	None	None	None	1
2.7	2015_May_22_1100	s	s	9	3	SIC	107	ABS	1	2	02VD 02VO 02VC 10MD 02MO 02MC 02RD 02RO	0	1	1.94151902199	None	None	None	None	1
2.7	2015_May_22_1100	s	s	9	3	SIC	108	ABS	2	0	02VD 02VO 10VC 02MD 02MO 02MC 02RD 02RO	0	1	1.80024313927	None	None	None	None	1
2.7	2015_May_22_1100	s	s	9	3	SIC	109	ABS	1	1	02VD 02VO 02VC 02MD 10MO 02MC 02RD 02RO	0	1	2.23572778702	None	None	None	None	1
2.7	2015_May_22_1100	s	s	9	3	SIC	110	RC	2	0	02VD 02VO 09VC 02MD 02MO 02MC 02RD 02RO	1	0	1.76021003723	-74.0	-202.0	-76	-201	1
2.7	2015_May_22_1100	s	s	9	3	SIC	111	ABS	0	2	02VD 02VO 02VC 02MD 02MO 02MC 10RD 02RO	0	1	1.91793894768	None	None	None	None	1
2.7	2015_May_22_1100	s	s	9	3	SIC	112	ABS	0	1	02VD 02VO 02VC 02MD 02MO 02MC 02RD 10RO	0	1	3.39613819122	None	None	None	None	1
2.7	2015_May_22_1100	s	s	9	3	SIC	113	RC	1	1	02VD 02VO 02VC 02MD 09MO 02MC 02RD 02RO	1	0	1.35299301147	-208.0	-166.0	-205	-159	1
2.7	2015_May_22_1100	s	s	9	3	SIC	114	RC	2	2	09VD 02VO 02VC 02MD 02MO 02MC 02RD 02RO	1	0	1.73750495911	-381.0	-62.0	-384	-57	1
2.7	2015_May_22_1100	s	s	9	3	SIC	115	RC	1	0	02VD 02VO 02VC 02MD 02MO 09MC 02RD 02RO	0	1	2.28951692581	378.0	-61.0	None	None	0
2.7	2015_May_22_1100	s	s	9	3	SIC	116	ABS	1	1	02VD 02VO 02VC 02MD 10MO 02MC 02RD 02RO	0	1	1.60824513435	None	None	None	None	1
2.7	2015_May_22_1100	s	s	9	3	SIC	117	ABS	1	2	02VD 02VO 02VC 10MD 02MO 02MC 02RD 02RO	0	1	2.38870286942	None	None	None	None	1
2.7	2015_May_22_1100	s	s	9	3	SIC	118	ABS	1	0	02VD 02VO 02VC 02MD 02MO 10MC 02RD 02RO	0	1	2.76921892166	None	None	None	None	1
2.7	2015_May_22_1100	s	s	9	3	SIC	119	RC	1	2	02VD 02VO 02VC 09MD 02MO 02MC 02RD 02RO	0	1	1.91800498962	-290.0	352.0	None	None	0
2.7	2015_May_22_1100	s	s	9	3	SIC	120	ABS	2	2	10VD 02VO 02VC 02MD 02MO 02MC 02RD 02RO	0	1	2.009141922	None	None	None	None	1
2.7	2015_May_22_1100	s	s	9	3	SIC	121	ABS	0	1	02VD 02VO 02VC 02MD 02MO 02MC 02RD 10RO	0	1	2.91843700409	None	None	None	None	1
2.7	2015_May_22_1100	s	s	9	3	SIC	122	ABS	0	2	02VD 02VO 02VC 02MD 02MO 02MC 10RD 02RO	0	1	1.72970914841	None	None	None	None	1
2.7	2015_May_22_1100	s	s	9	3	SIC	123	ABS	2	1	02VD 10VO 02VC 02MD 02MO 02MC 02RD 02RO	0	1	1.6590731144	None	None	None	None	1
2.7	2015_May_22_1100	s	s	9	3	SIC	124	RC	2	1	02VD 09VO 02VC 02MD 02MO 02MC 02RD 02RO	1	0	2.63594913483	173.0	73.0	170	80	1
2.7	2015_May_22_1100	s	s	9	3	SIC	125	RC	2	0	02VD 02VO 09VC 02MD 02MO 02MC 02RD 02RO	1	0	2.24752521515	-180.0	385.0	-178	390	1
2.7	2015_May_22_1100	s	s	9	3	SIC	126	ABS	2	0	02VD 02VO 10VC 02MD 02MO 02MC 02RD 02RO	0	1	2.28286099434	None	None	None	None	1
2.7	2015_May_22_1100	s	s	9	3	SIC	127	RC	0	1	02VD 02VO 02VC 02MD 02MO 02MC 02RD 09RO	0	1	3.01302289963	314.0	-202.0	None	None	0
2.7	2015_May_22_1100	s	s	9	3	SIC	128	RC	0	2	02VD 02VO 02VC 02MD 02MO 02MC 09RD 02RO	1	0	1.62912797928	-337.0	155.0	-340	158	1
2.7	2015_May_22_1100	s	s	9	3	SIC	129	RC	2	1	02VD 09VO 02VC 02MD 02MO 02MC 02RD 02RO	1	0	1.38817191124	452.0	-189.0	449	-183	1
2.7	2015_May_22_1100	s	s	9	3	SIC	130	RC	0	2	02VD 02VO 02VC 02MD 02MO 02MC 09RD 02RO	1	0	2.64764404297	-512.0	316.0	-514	322	1
2.7	2015_May_22_1100	s	s	9	3	SIC	131	ABS	1	2	02VD 02VO 02VC 10MD 02MO 02MC 02RD 02RO	1	0	3.04803800583	None	None	-277	118	0
2.7	2015_May_22_1100	s	s	9	3	SIC	132	RC	1	2	02VD 02VO 02VC 09MD 02MO 02MC 02RD 02RO	1	0	1.22963690758	370.0	-346.0	370	-347	1
2.7	2015_May_22_1100	s	s	9	3	SIC	133	ABS	2	2	10VD 02VO 02VC 02MD 02MO 02MC 02RD 02RO	0	1	2.08958387375	None	None	None	None	1
2.7	2015_May_22_1100	s	s	9	3	SIC	134	RC	2	2	09VD 02VO 02VC 02MD 02MO 02MC 02RD 02RO	1	0	1.07052087784	-34.0	23.0	-26	29	1
2.7	2015_May_22_1100	s	s	9	3	SIC	135	ABS	2	1	02VD 10VO 02VC 02MD 02MO 02MC 02RD 02RO	0	1	2.49474692345	None	None	None	None	1
2.7	2015_May_22_1100	s	s	9	3	SIC	136	ABS	0	2	02VD 02VO 02VC 02MD 02MO 02MC 10RD 02RO	0	1	5.17199015617	None	None	None	None	1
2.7	2015_May_22_1100	s	s	9	3	SIC	137	ABS	1	0	02VD 02VO 02VC 02MD 02MO 10MC 02RD 02RO	0	1	6.32056117058	None	None	None	None	1
2.7	2015_May_22_1100	s	s	9	3	SIC	138	RC	0	1	02VD 02VO 02VC 02MD 02MO 02MC 02RD 09RO	1	0	4.19657897949	325.0	227.0	322	224	1
2.7	2015_May_22_1100	s	s	9	3	SIC	139	ABS	0	1	02VD 02VO 02VC 02MD 02MO 02MC 02RD 10RO	0	1	3.73106193542	None	None	None	None	1
2.7	2015_May_22_1100	s	s	9	3	SIC	140	ABS	2	0	02VD 02VO 10VC 02MD 02MO 02MC 02RD 02RO	0	1	1.94153904915	None	None	None	None	1
2.7	2015_May_22_1100	s	s	9	3	SIC	141	RC	1	0	02VD 02VO 02VC 02MD 02MO 09MC 02RD 02RO	1	0	1.47760987282	279.0	-57.0	272	-53	1
2.7	2015_May_22_1100	s	s	9	3	SIC	142	RC	2	0	02VD 02VO 09VC 02MD 02MO 02MC 02RD 02RO	1	0	0.996636867523	185.0	-28.0	183	-18	1
2.7	2015_May_22_1100	s	s	9	3	SIC	143	RC	1	1	02VD 02VO 02VC 02MD 09MO 02MC 02RD 02RO	1	0	1.72967791557	118.0	-258.0	112	-251	1
2.7	2015_May_22_1100	s	s	9	3	SIC	144	ABS	1	1	02VD 02VO 02VC 02MD 10MO 02MC 02RD 02RO	0	1	2.93022990227	None	None	None	None	1
2.7	2015_May_22_1100	s	s	9	3	SIC	145	ABS	2	2	10VD 02VO 02VC 02MD 02MO 02MC 02RD 02RO	0	1	3.2548789978	None	None	None	None	1
2.7	2015_May_22_1100	s	s	9	3	SIC	146	ABS	0	1	02VD 02VO 02VC 02MD 02MO 02MC 02RD 10RO	0	1	3.75784683228	None	None	None	None	1
2.7	2015_May_22_1100	s	s	9	3	SIC	147	ABS	1	1	02VD 02VO 02VC 02MD 10MO 02MC 02RD 02RO	0	1	2.31307411194	None	None	None	None	1
2.7	2015_May_22_1100	s	s	9	3	SIC	148	ABS	2	0	02VD 02VO 10VC 02MD 02MO 02MC 02RD 02RO	0	1	2.93944001198	None	None	None	None	1
2.7	2015_May_22_1100	s	s	9	3	SIC	149	RC	0	2	02VD 02VO 02VC 02MD 02MO 02MC 09RD 02RO	1	0	2.14857912064	282.0	-334.0	278	-326	1
2.7	2015_May_22_1100	s	s	9	3	SIC	150	RC	1	2	02VD 02VO 02VC 09MD 02MO 02MC 02RD 02RO	1	0	3.1239669323	-19.0	-214.0	-23	-209	1
2.7	2015_May_22_1100	s	s	9	3	SIC	151	ABS	0	2	02VD 02VO 02VC 02MD 02MO 02MC 10RD 02RO	0	1	2.48298311234	None	None	None	None	1
2.7	2015_May_22_1100	s	s	9	3	SIC	152	RC	1	0	02VD 02VO 02VC 02MD 02MO 09MC 02RD 02RO	0	1	3.66001319885	-349.0	210.0	None	None	0
2.7	2015_May_22_1100	s	s	9	3	SIC	153	RC	2	0	02VD 02VO 09VC 02MD 02MO 02MC 02RD 02RO	1	0	1.65902996063	4.0	-168.0	0	-160	1
2.7	2015_May_22_1100	s	s	9	3	SIC	154	RC	2	1	02VD 09VO 02VC 02MD 02MO 02MC 02RD 02RO	0	1	1.99776291847	-75.0	283.0	None	None	0
2.7	2015_May_22_1100	s	s	9	3	SIC	155	RC	0	1	02VD 02VO 02VC 02MD 02MO 02MC 02RD 09RO	1	0	5.07243609428	-467.0	-342.0	-471	-336	1
2.7	2015_May_22_1100	s	s	9	3	SIC	156	ABS	2	1	02VD 10VO 02VC 02MD 02MO 02MC 02RD 02RO	0	1	1.92971110344	None	None	None	None	1
2.7	2015_May_22_1100	s	s	9	3	SIC	157	RC	2	2	09VD 02VO 02VC 02MD 02MO 02MC 02RD 02RO	1	0	2.50150704384	-198.0	95.0	-204	104	1
2.7	2015_May_22_1100	s	s	9	3	SIC	158	RC	1	1	02VD 02VO 02VC 02MD 09MO 02MC 02RD 02RO	1	0	0.723721981049	-93.0	-37.0	-96	-30	1
2.7	2015_May_22_1100	s	s	9	3	SIC	159	ABS	1	2	02VD 02VO 02VC 10MD 02MO 02MC 02RD 02RO	0	1	1.8238658905	None	None	None	None	1
2.7	2015_May_22_1100	s	s	9	3	SIC	160	ABS	1	0	02VD 02VO 02VC 02MD 02MO 10MC 02RD 02RO	0	1	3.25482916832	None	None	None	None	1
2.7	2015_May_22_1100	s	s	9	3	SIC	161	ABS	1	2	02VD 02VO 02VC 10MD 02MO 02MC 02RD 02RO	0	1	1.40831589699	None	None	None	None	1
2.7	2015_May_22_1100	s	s	9	3	SIC	162	RC	2	1	02VD 09VO 02VC 02MD 02MO 02MC 02RD 02RO	1	0	1.26498389244	-85.0	145.0	-87	150	1
2.7	2015_May_22_1100	s	s	9	3	SIC	163	ABS	2	1	02VD 10VO 02VC 02MD 02MO 02MC 02RD 02RO	0	1	2.39568591118	None	None	None	None	1
2.7	2015_May_22_1100	s	s	9	3	SIC	164	ABS	0	1	02VD 02VO 02VC 02MD 02MO 02MC 02RD 10RO	0	1	3.50742292404	None	None	None	None	1
2.7	2015_May_22_1100	s	s	9	3	SIC	165	ABS	0	2	02VD 02VO 02VC 02MD 02MO 02MC 10RD 02RO	0	1	1.41186189651	None	None	None	None	1
2.7	2015_May_22_1100	s	s	9	3	SIC	166	RC	1	1	02VD 02VO 02VC 02MD 09MO 02MC 02RD 02RO	1	0	1.97225284576	47.0	288.0	48	289	1
2.7	2015_May_22_1100	s	s	9	3	SIC	167	ABS	2	2	10VD 02VO 02VC 02MD 02MO 02MC 02RD 02RO	0	1	3.16051506996	None	None	None	None	1
2.7	2015_May_22_1100	s	s	9	3	SIC	168	RC	1	2	02VD 02VO 02VC 09MD 02MO 02MC 02RD 02RO	1	0	1.67742300034	17.0	-39.0	13	-35	1
2.7	2015_May_22_1100	s	s	9	3	SIC	169	RC	0	2	02VD 02VO 02VC 02MD 02MO 02MC 09RD 02RO	1	0	0.0854539871216	521.0	328.0	10	107	0
2.7	2015_May_22_1100	s	s	9	3	SIC	170	RC	0	1	02VD 02VO 02VC 02MD 02MO 02MC 02RD 09RO	1	0	1.84235811234	126.0	-156.0	133	-152	1
2.7	2015_May_22_1100	s	s	9	3	SIC	171	ABS	1	1	02VD 02VO 02VC 02MD 10MO 02MC 02RD 02RO	0	1	2.6595518589	None	None	None	None	1
2.7	2015_May_22_1100	s	s	9	3	SIC	172	RC	2	0	02VD 02VO 09VC 02MD 02MO 02MC 02RD 02RO	1	0	1.15284395218	434.0	-100.0	437	-103	1
2.7	2015_May_22_1100	s	s	9	3	SIC	173	ABS	1	0	02VD 02VO 02VC 02MD 02MO 10MC 02RD 02RO	0	1	2.420358181	None	None	None	None	1
2.7	2015_May_22_1100	s	s	9	3	SIC	174	RC	1	0	02VD 02VO 02VC 02MD 02MO 09MC 02RD 02RO	1	0	3.66681790352	-77.0	396.0	-70	397	1
2.7	2015_May_22_1100	s	s	9	3	SIC	175	ABS	2	0	02VD 02VO 10VC 02MD 02MO 02MC 02RD 02RO	0	1	2.20050382614	None	None	None	None	1
2.7	2015_May_22_1100	s	s	9	3	SIC	176	RC	2	2	09VD 02VO 02VC 02MD 02MO 02MC 02RD 02RO	1	0	1.23038387299	-288.0	-170.0	-286	-180	1
2.7	2015_May_22_1100	s	s	9	3	SIC	177	ABS	1	1	02VD 02VO 02VC 02MD 10MO 02MC 02RD 02RO	0	1	6.56733298302	None	None	None	None	1
2.7	2015_May_22_1100	s	s	9	3	SIC	178	RC	1	0	02VD 02VO 02VC 02MD 02MO 09MC 02RD 02RO	1	0	3.75462508202	334.0	-344.0	335	-345	1
2.7	2015_May_22_1100	s	s	9	3	SIC	179	ABS	0	2	02VD 02VO 02VC 02MD 02MO 02MC 10RD 02RO	0	1	2.65462183952	None	None	None	None	1
2.7	2015_May_22_1100	s	s	9	3	SIC	180	ABS	1	0	02VD 02VO 02VC 02MD 02MO 10MC 02RD 02RO	0	1	3.11144304276	None	None	None	None	1
2.7	2015_May_22_1100	s	s	9	3	SIC	181	RC	1	2	02VD 02VO 02VC 09MD 02MO 02MC 02RD 02RO	1	0	1.73878502846	56.0	350.0	59	354	1
2.7	2015_May_22_1100	s	s	9	3	SIC	182	RC	2	2	09VD 02VO 02VC 02MD 02MO 02MC 02RD 02RO	0	1	2.11794495583	-324.0	-390.0	None	None	0
2.7	2015_May_22_1100	s	s	9	3	SIC	183	ABS	2	1	02VD 10VO 02VC 02MD 02MO 02MC 02RD 02RO	0	1	1.91354894638	None	None	None	None	1
2.7	2015_May_22_1100	s	s	9	3	SIC	184	RC	0	1	02VD 02VO 02VC 02MD 02MO 02MC 02RD 09RO	0	1	2.68745398521	270.0	295.0	None	None	0
2.7	2015_May_22_1100	s	s	9	3	SIC	185	ABS	2	2	10VD 02VO 02VC 02MD 02MO 02MC 02RD 02RO	0	1	2.16542506218	None	None	None	None	1
2.7	2015_May_22_1100	s	s	9	3	SIC	186	RC	0	2	02VD 02VO 02VC 02MD 02MO 02MC 09RD 02RO	1	0	1.04142403603	-250.0	72.0	-258	80	1
2.7	2015_May_22_1100	s	s	9	3	SIC	187	ABS	2	0	02VD 02VO 10VC 02MD 02MO 02MC 02RD 02RO	0	1	1.57126379013	None	None	None	None	1
2.7	2015_May_22_1100	s	s	9	3	SIC	188	RC	2	0	02VD 02VO 09VC 02MD 02MO 02MC 02RD 02RO	1	0	2.06839513779	-354.0	-283.0	-360	-279	1
2.7	2015_May_22_1100	s	s	9	3	SIC	189	RC	2	1	02VD 09VO 02VC 02MD 02MO 02MC 02RD 02RO	1	0	1.11252903938	-140.0	13.0	-145	17	1
2.7	2015_May_22_1100	s	s	9	3	SIC	190	ABS	0	1	02VD 02VO 02VC 02MD 02MO 02MC 02RD 10RO	0	1	5.50828099251	None	None	None	None	1
2.7	2015_May_22_1100	s	s	9	3	SIC	191	RC	1	1	02VD 02VO 02VC 02MD 09MO 02MC 02RD 02RO	1	0	2.09459400177	281.0	158.0	279	167	1
2.7	2015_May_22_1100	s	s	9	3	SIC	192	ABS	1	2	02VD 02VO 02VC 10MD 02MO 02MC 02RD 02RO	0	1	2.67166996002	None	None	None	None	1
2.7	2015_May_22_1100	s	s	9	3	SIC	193	ABS	2	2	10VD 02VO 02VC 02MD 02MO 02MC 02RD 02RO	0	1	2.48300695419	None	None	None	None	1
2.7	2015_May_22_1100	s	s	9	3	SIC	194	RC	1	2	02VD 02VO 02VC 09MD 02MO 02MC 02RD 02RO	1	0	2.08956313133	-1.0	-330.0	0	-323	1
2.7	2015_May_22_1100	s	s	9	3	SIC	195	ABS	0	1	02VD 02VO 02VC 02MD 02MO 02MC 02RD 10RO	0	1	4.41989016533	None	None	None	None	1
2.7	2015_May_22_1100	s	s	9	3	SIC	196	RC	2	2	09VD 02VO 02VC 02MD 02MO 02MC 02RD 02RO	1	0	0.994740009308	128.0	173.0	126	182	1
2.7	2015_May_22_1100	s	s	9	3	SIC	197	ABS	1	1	02VD 02VO 02VC 02MD 10MO 02MC 02RD 02RO	0	1	2.76543188095	None	None	None	None	1
2.7	2015_May_22_1100	s	s	9	3	SIC	198	RC	0	2	02VD 02VO 02VC 02MD 02MO 02MC 09RD 02RO	1	0	0.900526046753	-58.0	124.0	-63	123	1
2.7	2015_May_22_1100	s	s	9	3	SIC	199	ABS	1	0	02VD 02VO 02VC 02MD 02MO 10MC 02RD 02RO	0	1	2.90673494339	None	None	None	None	1
2.7	2015_May_22_1100	s	s	9	3	SIC	200	ABS	2	0	02VD 02VO 10VC 02MD 02MO 02MC 02RD 02RO	0	1	2.52527785301	None	None	None	None	1
2.7	2015_May_22_1100	s	s	9	3	SIC	201	ABS	1	2	02VD 02VO 02VC 10MD 02MO 02MC 02RD 02RO	0	1	2.35367393494	None	None	None	None	1
2.7	2015_May_22_1100	s	s	9	3	SIC	202	RC	1	0	02VD 02VO 02VC 02MD 02MO 09MC 02RD 02RO	1	0	1.23563599586	-265.0	-72.0	-260	-73	1
2.7	2015_May_22_1100	s	s	9	3	SIC	203	ABS	0	2	02VD 02VO 02VC 02MD 02MO 02MC 10RD 02RO	0	1	2.47780513763	None	None	None	None	1
2.7	2015_May_22_1100	s	s	9	3	SIC	204	RC	0	1	02VD 02VO 02VC 02MD 02MO 02MC 02RD 09RO	1	0	1.78851509094	-33.0	-259.0	-36	-271	1
2.7	2015_May_22_1100	s	s	9	3	SIC	205	RC	2	1	02VD 09VO 02VC 02MD 02MO 02MC 02RD 02RO	1	0	1.30263495445	-99.0	-35.0	-95	-32	1
2.7	2015_May_22_1100	s	s	9	3	SIC	206	ABS	2	1	02VD 10VO 02VC 02MD 02MO 02MC 02RD 02RO	0	1	2.14156889915	None	None	None	None	1
2.7	2015_May_22_1100	s	s	9	3	SIC	207	RC	2	0	02VD 02VO 09VC 02MD 02MO 02MC 02RD 02RO	1	0	1.36031699181	96.0	178.0	97	184	1
2.7	2015_May_22_1100	s	s	9	3	SIC	208	RC	1	1	02VD 02VO 02VC 02MD 09MO 02MC 02RD 02RO	1	0	2.5299808979	525.0	204.0	524	205	1
2.7	2015_May_22_1100	s	s	9	3	SIC	209	ABS	0	1	02VD 02VO 02VC 02MD 02MO 02MC 02RD 10RO	0	1	4.31411385536	None	None	None	None	1
2.7	2015_May_22_1100	s	s	9	3	SIC	210	RC	2	2	09VD 02VO 02VC 02MD 02MO 02MC 02RD 02RO	1	0	1.40816497803	278.0	271.0	272	280	1
2.7	2015_May_22_1100	s	s	9	3	SIC	211	RC	1	0	02VD 02VO 02VC 02MD 02MO 09MC 02RD 02RO	0	1	1.91798686981	519.0	-12.0	None	None	0
2.7	2015_May_22_1100	s	s	9	3	SIC	212	ABS	1	0	02VD 02VO 02VC 02MD 02MO 10MC 02RD 02RO	0	1	2.28286409378	None	None	None	None	1
2.7	2015_May_22_1100	s	s	9	3	SIC	213	RC	2	0	02VD 02VO 09VC 02MD 02MO 02MC 02RD 02RO	1	0	0.947051048279	148.0	-46.0	156	-43	1
2.7	2015_May_22_1100	s	s	9	3	SIC	214	ABS	1	1	02VD 02VO 02VC 02MD 10MO 02MC 02RD 02RO	0	1	2.47123098373	None	None	None	None	1
2.7	2015_May_22_1100	s	s	9	3	SIC	215	ABS	2	0	02VD 02VO 10VC 02MD 02MO 02MC 02RD 02RO	0	1	2.67974591255	None	None	None	None	1
2.7	2015_May_22_1100	s	s	9	3	SIC	216	RC	0	1	02VD 02VO 02VC 02MD 02MO 02MC 02RD 09RO	1	0	3.26659798622	-237.0	22.0	-242	21	1
2.7	2015_May_22_1100	s	s	9	3	SIC	217	ABS	2	1	02VD 10VO 02VC 02MD 02MO 02MC 02RD 02RO	0	1	1.75985097885	None	None	None	None	1
2.7	2015_May_22_1100	s	s	9	3	SIC	218	RC	0	2	02VD 02VO 02VC 02MD 02MO 02MC 09RD 02RO	1	0	2.200496912	-374.0	-320.0	-375	-311	1
2.7	2015_May_22_1100	s	s	9	3	SIC	219	ABS	0	2	02VD 02VO 02VC 02MD 02MO 02MC 10RD 02RO	0	1	2.5418009758	None	None	None	None	1
2.7	2015_May_22_1100	s	s	9	3	SIC	220	RC	2	1	02VD 09VO 02VC 02MD 02MO 02MC 02RD 02RO	1	0	2.24754285812	495.0	-122.0	490	-117	1
2.7	2015_May_22_1100	s	s	9	3	SIC	221	RC	1	2	02VD 02VO 02VC 09MD 02MO 02MC 02RD 02RO	1	0	1.54809808731	91.0	-345.0	91	-346	1
2.7	2015_May_22_1100	s	s	9	3	SIC	222	ABS	1	2	02VD 02VO 02VC 10MD 02MO 02MC 02RD 02RO	0	1	2.46637320518	None	None	None	None	1
2.7	2015_May_22_1100	s	s	9	3	SIC	223	ABS	2	2	10VD 02VO 02VC 02MD 02MO 02MC 02RD 02RO	0	1	2.45930099487	None	None	None	None	1
2.7	2015_May_22_1100	s	s	9	3	SIC	224	RC	1	1	02VD 02VO 02VC 02MD 09MO 02MC 02RD 02RO	1	0	1.24700403214	309.0	-67.0	305	-58	1
2.7	2015_May_22_1100	s	s	9	3	SIC	225	RC	1	2	02VD 02VO 02VC 09MD 02MO 02MC 02RD 02RO	1	0	1.27427387238	367.0	-396.0	367	-387	1
2.7	2015_May_22_1100	s	s	9	3	SIC	226	RC	2	0	02VD 02VO 09VC 02MD 02MO 02MC 02RD 02RO	1	0	1.03502488136	91.0	-30.0	92	-24	1
2.7	2015_May_22_1100	s	s	9	3	SIC	227	ABS	0	2	02VD 02VO 02VC 02MD 02MO 02MC 10RD 02RO	0	1	2.30118703842	None	None	None	None	1
2.7	2015_May_22_1100	s	s	9	3	SIC	228	RC	1	1	02VD 02VO 02VC 02MD 09MO 02MC 02RD 02RO	1	0	1.10126900673	102.0	-166.0	104	-157	1
2.7	2015_May_22_1100	s	s	9	3	SIC	229	ABS	1	1	02VD 02VO 02VC 02MD 10MO 02MC 02RD 02RO	0	1	2.12983703613	None	None	None	None	1
2.7	2015_May_22_1100	s	s	9	3	SIC	230	RC	0	1	02VD 02VO 02VC 02MD 02MO 02MC 02RD 09RO	1	0	1.72967481613	37.0	-85.0	38	-79	1
2.7	2015_May_22_1100	s	s	9	3	SIC	231	RC	2	1	02VD 09VO 02VC 02MD 02MO 02MC 02RD 02RO	1	0	2.12504482269	231.0	174.0	231	177	1
2.7	2015_May_22_1100	s	s	9	3	SIC	232	ABS	2	1	02VD 10VO 02VC 02MD 02MO 02MC 02RD 02RO	0	1	1.92676210403	None	None	None	None	1
2.7	2015_May_22_1100	s	s	9	3	SIC	233	ABS	1	2	02VD 02VO 02VC 10MD 02MO 02MC 02RD 02RO	0	1	2.60829210281	None	None	None	None	1
2.7	2015_May_22_1100	s	s	9	3	SIC	234	RC	1	0	02VD 02VO 02VC 02MD 02MO 09MC 02RD 02RO	1	0	1.95337104797	-258.0	44.0	-259	34	1
2.7	2015_May_22_1100	s	s	9	3	SIC	235	ABS	0	1	02VD 02VO 02VC 02MD 02MO 02MC 02RD 10RO	0	1	2.63153195381	None	None	None	None	1
2.7	2015_May_22_1100	s	s	9	3	SIC	236	RC	0	2	02VD 02VO 02VC 02MD 02MO 02MC 09RD 02RO	1	0	3.67778992653	-118.0	249.0	-119	249	1
2.7	2015_May_22_1100	s	s	9	3	SIC	237	RC	2	2	09VD 02VO 02VC 02MD 02MO 02MC 02RD 02RO	1	0	0.911416053772	-151.0	154.0	-158	152	1
2.7	2015_May_22_1100	s	s	9	3	SIC	238	ABS	2	2	10VD 02VO 02VC 02MD 02MO 02MC 02RD 02RO	0	1	1.57167696953	None	None	None	None	1
2.7	2015_May_22_1100	s	s	9	3	SIC	239	ABS	2	0	02VD 02VO 10VC 02MD 02MO 02MC 02RD 02RO	0	1	1.34125781059	None	None	None	None	1
2.7	2015_May_22_1100	s	s	9	3	SIC	240	ABS	1	0	02VD 02VO 02VC 02MD 02MO 10MC 02RD 02RO	0	1	2.00715494156	None	None	None	None	1
2.7	2015_May_22_1100	s	s	9	3	SIC	241	RC	1	2	02VD 02VO 02VC 09MD 02MO 02MC 02RD 02RO	0	1	2.35350394249	-441.0	109.0	None	None	0
2.7	2015_May_22_1100	s	s	9	3	SIC	242	ABS	1	0	02VD 02VO 02VC 02MD 02MO 10MC 02RD 02RO	0	1	2.85961890221	None	None	None	None	1
2.7	2015_May_22_1100	s	s	9	3	SIC	243	RC	2	0	02VD 02VO 09VC 02MD 02MO 02MC 02RD 02RO	0	1	1.92972588539	128.0	-389.0	None	None	0
2.7	2015_May_22_1100	s	s	9	3	SIC	244	RC	1	1	02VD 02VO 02VC 02MD 09MO 02MC 02RD 02RO	1	0	1.16464996338	272.0	-136.0	278	-135	1
2.7	2015_May_22_1100	s	s	9	3	SIC	245	RC	1	0	02VD 02VO 02VC 02MD 02MO 09MC 02RD 02RO	0	1	1.80868291855	279.0	398.0	None	None	0
2.7	2015_May_22_1100	s	s	9	3	SIC	246	ABS	0	2	02VD 02VO 02VC 02MD 02MO 02MC 10RD 02RO	0	1	2.00444793701	None	None	None	None	1
2.7	2015_May_22_1100	s	s	9	3	SIC	247	ABS	1	2	02VD 02VO 02VC 10MD 02MO 02MC 02RD 02RO	0	1	1.98862695694	None	None	None	None	1
2.7	2015_May_22_1100	s	s	9	3	SIC	248	RC	0	2	02VD 02VO 02VC 02MD 02MO 02MC 09RD 02RO	0	1	2.03568792343	420.0	269.0	None	None	0
2.7	2015_May_22_1100	s	s	9	3	SIC	249	ABS	2	0	02VD 02VO 10VC 02MD 02MO 02MC 02RD 02RO	0	1	1.55908918381	None	None	None	None	1
2.7	2015_May_22_1100	s	s	9	3	SIC	250	ABS	0	1	02VD 02VO 02VC 02MD 02MO 02MC 02RD 10RO	0	1	2.9487888813	None	None	None	None	1
2.7	2015_May_22_1100	s	s	9	3	SIC	251	ABS	2	2	10VD 02VO 02VC 02MD 02MO 02MC 02RD 02RO	0	1	1.25386190414	None	None	None	None	1
2.7	2015_May_22_1100	s	s	9	3	SIC	252	ABS	1	1	02VD 02VO 02VC 02MD 10MO 02MC 02RD 02RO	0	1	1.53588604927	None	None	None	None	1
2.7	2015_May_22_1100	s	s	9	3	SIC	253	ABS	2	1	02VD 10VO 02VC 02MD 02MO 02MC 02RD 02RO	0	1	1.48247790337	None	None	None	None	1
2.7	2015_May_22_1100	s	s	9	3	SIC	254	RC	0	1	02VD 02VO 02VC 02MD 02MO 02MC 02RD 09RO	1	0	1.9179019928	468.0	-249.0	466	-247	1
2.7	2015_May_22_1100	s	s	9	3	SIC	255	RC	2	2	09VD 02VO 02VC 02MD 02MO 02MC 02RD 02RO	1	0	1.01839399338	405.0	-263.0	411	-267	1
2.7	2015_May_22_1100	s	s	9	3	SIC	256	RC	2	1	02VD 09VO 02VC 02MD 02MO 02MC 02RD 02RO	1	0	2.37204408646	-126.0	313.0	-120	318	1
2.7	2015_May_22_1100	s	s	9	3	SIC	257	ABS	1	1	02VD 02VO 02VC 02MD 10MO 02MC 02RD 02RO	0	1	2.10373687744	None	None	None	None	1
2.7	2015_May_22_1100	s	s	9	3	SIC	258	RC	0	1	02VD 02VO 02VC 02MD 02MO 02MC 02RD 09RO	1	0	1.91299700737	279.0	384.0	279	377	1
2.7	2015_May_22_1100	s	s	9	3	SIC	259	ABS	2	0	02VD 02VO 10VC 02MD 02MO 02MC 02RD 02RO	0	1	1.66594815254	None	None	None	None	1
2.7	2015_May_22_1100	s	s	9	3	SIC	260	RC	2	0	02VD 02VO 09VC 02MD 02MO 02MC 02RD 02RO	1	0	1.47752094269	-80.0	4.0	-78	-1	1
2.7	2015_May_22_1100	s	s	9	3	SIC	261	ABS	2	1	02VD 10VO 02VC 02MD 02MO 02MC 02RD 02RO	0	1	2.0945379734	None	None	None	None	1
2.7	2015_May_22_1100	s	s	9	3	SIC	262	RC	2	2	09VD 02VO 02VC 02MD 02MO 02MC 02RD 02RO	1	0	1.02338695526	-523.0	142.0	-522	140	1
2.7	2015_May_22_1100	s	s	9	3	SIC	263	ABS	1	0	02VD 02VO 02VC 02MD 02MO 10MC 02RD 02RO	0	1	3.46697807312	None	None	None	None	1
2.7	2015_May_22_1100	s	s	9	3	SIC	264	RC	1	1	02VD 02VO 02VC 02MD 09MO 02MC 02RD 02RO	1	0	1.84176206589	-388.0	-377.0	-390	-376	1
2.7	2015_May_22_1100	s	s	9	3	SIC	265	ABS	2	2	10VD 02VO 02VC 02MD 02MO 02MC 02RD 02RO	0	1	2.34172701836	None	None	None	None	1
2.7	2015_May_22_1100	s	s	9	3	SIC	266	RC	0	2	02VD 02VO 02VC 02MD 02MO 02MC 09RD 02RO	1	0	0.858637809753	-4.0	108.0	-3	111	1
2.7	2015_May_22_1100	s	s	9	3	SIC	267	RC	1	0	02VD 02VO 02VC 02MD 02MO 09MC 02RD 02RO	1	0	2.38403010368	-367.0	298.0	-366	300	1
2.7	2015_May_22_1100	s	s	9	3	SIC	268	RC	2	1	02VD 09VO 02VC 02MD 02MO 02MC 02RD 02RO	1	0	0.970362186432	-245.0	-113.0	-245	-106	1
2.7	2015_May_22_1100	s	s	9	3	SIC	269	ABS	0	1	02VD 02VO 02VC 02MD 02MO 02MC 02RD 10RO	1	0	3.32556390762	None	None	-65	180	0
2.7	2015_May_22_1100	s	s	9	3	SIC	270	ABS	0	2	02VD 02VO 02VC 02MD 02MO 02MC 10RD 02RO	0	1	1.82378602028	None	None	None	None	1
2.7	2015_May_22_1100	s	s	9	3	SIC	271	ABS	1	2	02VD 02VO 02VC 10MD 02MO 02MC 02RD 02RO	0	1	2.75103187561	None	None	None	None	1
2.7	2015_May_22_1100	s	s	9	3	SIC	272	RC	1	2	02VD 02VO 02VC 09MD 02MO 02MC 02RD 02RO	1	0	1.47753620148	281.0	250.0	279	259	1
2.7	2015_May_22_1100	s	s	9	3	SIC	273	ABS	0	2	02VD 02VO 02VC 02MD 02MO 02MC 10RD 02RO	0	1	2.05344009399	None	None	None	None	1
2.7	2015_May_22_1100	s	s	9	3	SIC	274	ABS	2	2	10VD 02VO 02VC 02MD 02MO 02MC 02RD 02RO	1	0	2.21225380898	None	None	151	165	0
2.7	2015_May_22_1100	s	s	9	3	SIC	275	ABS	1	0	02VD 02VO 02VC 02MD 02MO 10MC 02RD 02RO	0	1	2.24263811111	None	None	None	None	1
2.7	2015_May_22_1100	s	s	9	3	SIC	276	RC	1	1	02VD 02VO 02VC 02MD 09MO 02MC 02RD 02RO	1	0	2.20871782303	495.0	314.0	490	321	1
2.7	2015_May_22_1100	s	s	9	3	SIC	277	RC	0	1	02VD 02VO 02VC 02MD 02MO 02MC 02RD 09RO	1	0	1.80714917183	87.0	-346.0	84	-342	1
2.7	2015_May_22_1100	s	s	9	3	SIC	278	RC	1	0	02VD 02VO 02VC 02MD 02MO 09MC 02RD 02RO	1	0	1.60685515404	525.0	213.0	524	221	1
2.7	2015_May_22_1100	s	s	9	3	SIC	279	RC	2	2	09VD 02VO 02VC 02MD 02MO 02MC 02RD 02RO	1	0	1.14955306053	481.0	-25.0	477	-21	1
2.7	2015_May_22_1100	s	s	9	3	SIC	280	RC	0	2	02VD 02VO 02VC 02MD 02MO 02MC 09RD 02RO	1	0	1.18817400932	430.0	-331.0	426	-330	1
2.7	2015_May_22_1100	s	s	9	3	SIC	281	RC	1	2	02VD 02VO 02VC 09MD 02MO 02MC 02RD 02RO	1	0	0.85598897934	39.0	-198.0	32	-192	1
2.7	2015_May_22_1100	s	s	9	3	SIC	282	ABS	1	1	02VD 02VO 02VC 02MD 10MO 02MC 02RD 02RO	0	1	1.93672204018	None	None	None	None	1
2.7	2015_May_22_1100	s	s	9	3	SIC	283	ABS	2	1	02VD 10VO 02VC 02MD 02MO 02MC 02RD 02RO	0	1	1.84195113182	None	None	None	None	1
2.7	2015_May_22_1100	s	s	9	3	SIC	284	ABS	1	2	02VD 02VO 02VC 10MD 02MO 02MC 02RD 02RO	0	1	1.98863005638	None	None	None	None	1
2.7	2015_May_22_1100	s	s	9	3	SIC	285	RC	2	0	02VD 02VO 09VC 02MD 02MO 02MC 02RD 02RO	1	0	1.84234809875	395.0	272.0	394	275	1
2.7	2015_May_22_1100	s	s	9	3	SIC	286	ABS	2	0	02VD 02VO 10VC 02MD 02MO 02MC 02RD 02RO	0	1	1.53619289398	None	None	None	None	1
2.7	2015_May_22_1100	s	s	9	3	SIC	287	RC	2	1	02VD 09VO 02VC 02MD 02MO 02MC 02RD 02RO	1	0	1.3009390831	444.0	-88.0	450	-92	1
2.7	2015_May_22_1100	s	s	9	3	SIC	288	ABS	0	1	02VD 02VO 02VC 02MD 02MO 02MC 02RD 10RO	0	1	3.42006611824	None	None	None	None	1
2.7	2015_May_22_1100	s	s	9	3	SIC	289	ABS	0	2	02VD 02VO 02VC 02MD 02MO 02MC 10RD 02RO	0	1	2.04741001129	None	None	None	None	1
2.7	2015_May_22_1100	s	s	9	3	SIC	290	RC	2	2	09VD 02VO 02VC 02MD 02MO 02MC 02RD 02RO	1	0	1.16465401649	-263.0	-94.0	-263	-100	1
2.7	2015_May_22_1100	s	s	9	3	SIC	291	RC	1	1	02VD 02VO 02VC 02MD 09MO 02MC 02RD 02RO	1	0	0.749438047409	-98.0	236.0	-91	239	1
2.7	2015_May_22_1100	s	s	9	3	SIC	292	RC	1	2	02VD 02VO 02VC 09MD 02MO 02MC 02RD 02RO	1	0	1.84454107285	-164.0	-309.0	-166	-323	1
2.7	2015_May_22_1100	s	s	9	3	SIC	293	RC	1	0	02VD 02VO 02VC 02MD 02MO 09MC 02RD 02RO	1	0	1.8422601223	159.0	-180.0	163	-174	1
2.7	2015_May_22_1100	s	s	9	3	SIC	294	ABS	1	1	02VD 02VO 02VC 02MD 10MO 02MC 02RD 02RO	0	1	2.57713913918	None	None	None	None	1
2.7	2015_May_22_1100	s	s	9	3	SIC	295	RC	0	2	02VD 02VO 02VC 02MD 02MO 02MC 09RD 02RO	1	0	1.44707512856	266.0	-122.0	261	-119	1
2.7	2015_May_22_1100	s	s	9	3	SIC	296	ABS	2	1	02VD 10VO 02VC 02MD 02MO 02MC 02RD 02RO	0	1	2.16520214081	None	None	None	None	1
2.7	2015_May_22_1100	s	s	9	3	SIC	297	RC	2	1	02VD 09VO 02VC 02MD 02MO 02MC 02RD 02RO	1	0	1.68258285522	528.0	-79.0	531	-81	1
2.7	2015_May_22_1100	s	s	9	3	SIC	298	ABS	0	1	02VD 02VO 02VC 02MD 02MO 02MC 02RD 10RO	0	1	3.47992515564	None	None	None	None	1
2.7	2015_May_22_1100	s	s	9	3	SIC	299	ABS	1	2	02VD 02VO 02VC 10MD 02MO 02MC 02RD 02RO	0	1	1.91228222847	None	None	None	None	1
2.7	2015_May_22_1100	s	s	9	3	SIC	300	RC	2	0	02VD 02VO 09VC 02MD 02MO 02MC 02RD 02RO	1	0	2.24756503105	-330.0	337.0	-334	341	1
2.7	2015_May_22_1100	s	s	9	3	SIC	301	ABS	2	2	10VD 02VO 02VC 02MD 02MO 02MC 02RD 02RO	0	1	2.51335000992	None	None	None	None	1
2.7	2015_May_22_1100	s	s	9	3	SIC	302	ABS	1	0	02VD 02VO 02VC 02MD 02MO 10MC 02RD 02RO	0	1	2.49493002892	None	None	None	None	1
2.7	2015_May_22_1100	s	s	9	3	SIC	303	ABS	2	0	02VD 02VO 10VC 02MD 02MO 02MC 02RD 02RO	0	1	1.59605789185	None	None	None	None	1
2.7	2015_May_22_1100	s	s	9	3	SIC	304	RC	0	1	02VD 02VO 02VC 02MD 02MO 02MC 02RD 09RO	1	0	1.50119614601	-131.0	-133.0	-129	-128	1
2.7	2015_May_22_1100	s	s	9	3	SIC	305	RC	2	2	09VD 02VO 02VC 02MD 02MO 02MC 02RD 02RO	1	0	0.994519948959	9.0	243.0	15	247	1
2.7	2015_May_22_1100	s	s	9	3	SIC	306	ABS	1	1	02VD 02VO 02VC 02MD 10MO 02MC 02RD 02RO	0	1	1.97194886208	None	None	None	None	1
2.7	2015_May_22_1100	s	s	9	3	SIC	307	RC	2	0	02VD 02VO 09VC 02MD 02MO 02MC 02RD 02RO	1	0	0.773624897003	283.0	-204.0	273	-198	1
2.7	2015_May_22_1100	s	s	9	3	SIC	308	RC	1	2	02VD 02VO 02VC 09MD 02MO 02MC 02RD 02RO	1	0	2.75373697281	-375.0	-357.0	-378	-355	1
2.7	2015_May_22_1100	s	s	9	3	SIC	309	RC	0	2	02VD 02VO 02VC 02MD 02MO 02MC 09RD 02RO	1	0	0.752689838409	-127.0	-57.0	-129	-53	1
2.7	2015_May_22_1100	s	s	9	3	SIC	310	RC	0	1	02VD 02VO 02VC 02MD 02MO 02MC 02RD 09RO	1	0	2.55356621742	-429.0	-205.0	-431	-200	1
2.7	2015_May_22_1100	s	s	9	3	SIC	311	RC	1	0	02VD 02VO 02VC 02MD 02MO 09MC 02RD 02RO	1	0	0.811551094055	-248.0	-91.0	-251	-81	1
2.7	2015_May_22_1100	s	s	9	3	SIC	312	ABS	2	1	02VD 10VO 02VC 02MD 02MO 02MC 02RD 02RO	0	1	2.31835007668	None	None	None	None	1
2.7	2015_May_22_1100	s	s	9	3	SIC	313	ABS	0	1	02VD 02VO 02VC 02MD 02MO 02MC 02RD 10RO	0	1	4.17268610001	None	None	None	None	1
2.7	2015_May_22_1100	s	s	9	3	SIC	314	ABS	0	2	02VD 02VO 02VC 02MD 02MO 02MC 10RD 02RO	0	1	1.61196303368	None	None	None	None	1
2.7	2015_May_22_1100	s	s	9	3	SIC	315	RC	2	1	02VD 09VO 02VC 02MD 02MO 02MC 02RD 02RO	1	0	1.93848490715	192.0	178.0	187	183	1
2.7	2015_May_22_1100	s	s	9	3	SIC	316	RC	1	1	02VD 02VO 02VC 02MD 09MO 02MC 02RD 02RO	1	0	1.80028605461	-324.0	-127.0	-330	-123	1
2.7	2015_May_22_1100	s	s	9	3	SIC	317	ABS	1	0	02VD 02VO 02VC 02MD 02MO 10MC 02RD 02RO	0	1	1.61880493164	None	None	None	None	1
2.7	2015_May_22_1100	s	s	9	3	SIC	318	ABS	2	2	10VD 02VO 02VC 02MD 02MO 02MC 02RD 02RO	0	1	1.77707409859	None	None	None	None	1
2.7	2015_May_22_1100	s	s	9	3	SIC	319	ABS	2	0	02VD 02VO 10VC 02MD 02MO 02MC 02RD 02RO	0	1	1.35063695908	None	None	None	None	1
2.7	2015_May_22_1100	s	s	9	3	SIC	320	ABS	1	2	02VD 02VO 02VC 10MD 02MO 02MC 02RD 02RO	0	1	1.86604595184	None	None	None	None	1
2.7	2015_May_22_1100	s	s	9	3	SIC	321	RC	2	1	02VD 09VO 02VC 02MD 02MO 02MC 02RD 02RO	1	0	1.25341391563	-282.0	-235.0	-289	-236	1
2.7	2015_May_22_1100	s	s	9	3	SIC	322	RC	2	2	09VD 02VO 02VC 02MD 02MO 02MC 02RD 02RO	1	0	1.85397791862	527.0	198.0	528	203	1
2.7	2015_May_22_1100	s	s	9	3	SIC	323	ABS	0	1	02VD 02VO 02VC 02MD 02MO 02MC 02RD 10RO	0	1	3.81982398033	None	None	None	None	1
2.7	2015_May_22_1100	s	s	9	3	SIC	324	RC	1	2	02VD 02VO 02VC 09MD 02MO 02MC 02RD 02RO	0	1	1.91562414169	-83.0	-147.0	None	None	0
2.7	2015_May_22_1100	s	s	9	3	SIC	325	RC	0	2	02VD 02VO 02VC 02MD 02MO 02MC 09RD 02RO	1	0	2.47854685783	448.0	131.0	441	138	1
2.7	2015_May_22_1100	s	s	9	3	SIC	326	ABS	1	0	02VD 02VO 02VC 02MD 02MO 10MC 02RD 02RO	0	1	1.85674619675	None	None	None	None	1
2.7	2015_May_22_1100	s	s	9	3	SIC	327	ABS	2	0	02VD 02VO 10VC 02MD 02MO 02MC 02RD 02RO	0	1	2.20064210892	None	None	None	None	1
2.7	2015_May_22_1100	s	s	9	3	SIC	328	ABS	2	2	10VD 02VO 02VC 02MD 02MO 02MC 02RD 02RO	0	1	2.34836316109	None	None	None	None	1
2.7	2015_May_22_1100	s	s	9	3	SIC	329	ABS	2	1	02VD 10VO 02VC 02MD 02MO 02MC 02RD 02RO	0	1	1.84734511375	None	None	None	None	1
2.7	2015_May_22_1100	s	s	9	3	SIC	330	RC	1	1	02VD 02VO 02VC 02MD 09MO 02MC 02RD 02RO	1	0	1.38298416138	15.0	-135.0	11	-131	1
2.7	2015_May_22_1100	s	s	9	3	SIC	331	ABS	1	2	02VD 02VO 02VC 10MD 02MO 02MC 02RD 02RO	0	1	1.60013699532	None	None	None	None	1
2.7	2015_May_22_1100	s	s	9	3	SIC	332	RC	2	0	02VD 02VO 09VC 02MD 02MO 02MC 02RD 02RO	1	0	1.43533396721	358.0	160.0	360	165	1
2.7	2015_May_22_1100	s	s	9	3	SIC	333	RC	0	1	02VD 02VO 02VC 02MD 02MO 02MC 02RD 09RO	1	0	3.99330115318	194.0	-136.0	192	-132	1
2.7	2015_May_22_1100	s	s	9	3	SIC	334	RC	1	0	02VD 02VO 02VC 02MD 02MO 09MC 02RD 02RO	0	1	2.69482398033	416.0	-401.0	None	None	0
2.7	2015_May_22_1100	s	s	9	3	SIC	335	ABS	1	1	02VD 02VO 02VC 02MD 10MO 02MC 02RD 02RO	0	1	2.17073702812	None	None	None	None	1
2.7	2015_May_22_1100	s	s	9	3	SIC	336	ABS	0	2	02VD 02VO 02VC 02MD 02MO 02MC 10RD 02RO	0	1	2.16012096405	None	None	None	None	1
2.7	2015_May_22_1100	s	s	9	3	SIC	337	RC	2	2	09VD 02VO 02VC 02MD 02MO 02MC 02RD 02RO	1	0	1.02334904671	-317.0	-11.0	-321	-3	1
2.7	2015_May_22_1100	s	s	9	3	SIC	338	ABS	1	0	02VD 02VO 02VC 02MD 02MO 10MC 02RD 02RO	0	1	1.7711160183	None	None	None	None	1
2.7	2015_May_22_1100	s	s	9	3	SIC	339	ABS	2	1	02VD 10VO 02VC 02MD 02MO 02MC 02RD 02RO	0	1	1.33623790741	None	None	None	None	1
2.7	2015_May_22_1100	s	s	9	3	SIC	340	RC	1	0	02VD 02VO 02VC 02MD 02MO 09MC 02RD 02RO	1	0	2.28292894363	479.0	-30.0	476	-23	1
2.7	2015_May_22_1100	s	s	9	3	SIC	341	RC	2	1	02VD 09VO 02VC 02MD 02MO 02MC 02RD 02RO	1	0	1.55994486809	263.0	324.0	255	322	1
2.7	2015_May_22_1100	s	s	9	3	SIC	342	RC	2	0	02VD 02VO 09VC 02MD 02MO 02MC 02RD 02RO	1	0	1.37653899193	-429.0	180.0	-427	180	1
2.7	2015_May_22_1100	s	s	9	3	SIC	343	RC	0	1	02VD 02VO 02VC 02MD 02MO 02MC 02RD 09RO	1	0	1.28231287003	-268.0	142.0	-257	142	1
2.7	2015_May_22_1100	s	s	9	3	SIC	344	RC	1	2	02VD 02VO 02VC 09MD 02MO 02MC 02RD 02RO	1	0	0.791652917862	-69.0	203.0	-69	203	1
2.7	2015_May_22_1100	s	s	9	3	SIC	345	ABS	1	2	02VD 02VO 02VC 10MD 02MO 02MC 02RD 02RO	0	1	2.09492897987	None	None	None	None	1
2.7	2015_May_22_1100	s	s	9	3	SIC	346	RC	1	1	02VD 02VO 02VC 02MD 09MO 02MC 02RD 02RO	1	0	3.11856579781	25.0	-363.0	22	-365	1
2.7	2015_May_22_1100	s	s	9	3	SIC	347	ABS	2	0	02VD 02VO 10VC 02MD 02MO 02MC 02RD 02RO	0	1	2.12502598763	None	None	None	None	1
2.7	2015_May_22_1100	s	s	9	3	SIC	348	RC	0	2	02VD 02VO 02VC 02MD 02MO 02MC 09RD 02RO	1	0	1.8593070507	240.0	-223.0	247	-214	1
2.7	2015_May_22_1100	s	s	9	3	SIC	349	ABS	2	2	10VD 02VO 02VC 02MD 02MO 02MC 02RD 02RO	0	1	1.78851485252	None	None	None	None	1
2.7	2015_May_22_1100	s	s	9	3	SIC	350	ABS	0	2	02VD 02VO 02VC 02MD 02MO 02MC 10RD 02RO	0	1	1.7650179863	None	None	None	None	1
2.7	2015_May_22_1100	s	s	9	3	SIC	351	ABS	1	1	02VD 02VO 02VC 02MD 10MO 02MC 02RD 02RO	0	1	2.31277394295	None	None	None	None	1
2.7	2015_May_22_1100	s	s	9	3	SIC	352	ABS	0	1	02VD 02VO 02VC 02MD 02MO 02MC 02RD 10RO	0	1	3.01908183098	None	None	None	None	1
2.7	2015_May_22_1100	s	s	9	3	SIC	353	RC	1	0	02VD 02VO 02VC 02MD 02MO 09MC 02RD 02RO	1	0	2.8657989502	482.0	-268.0	488	-267	1
2.7	2015_May_22_1100	s	s	9	3	SIC	354	RC	0	1	02VD 02VO 02VC 02MD 02MO 02MC 02RD 09RO	1	0	3.1739552021	-259.0	359.0	-260	357	1
2.7	2015_May_22_1100	s	s	9	3	SIC	355	ABS	1	0	02VD 02VO 02VC 02MD 02MO 10MC 02RD 02RO	0	1	2.38296318054	None	None	None	None	1
2.7	2015_May_22_1100	s	s	9	3	SIC	356	ABS	2	0	02VD 02VO 10VC 02MD 02MO 02MC 02RD 02RO	0	1	1.62380313873	None	None	None	None	1
2.7	2015_May_22_1100	s	s	9	3	SIC	357	ABS	2	1	02VD 10VO 02VC 02MD 02MO 02MC 02RD 02RO	0	1	1.38031315804	None	None	None	None	1
2.7	2015_May_22_1100	s	s	9	3	SIC	358	RC	1	1	02VD 02VO 02VC 02MD 09MO 02MC 02RD 02RO	1	0	1.61193108559	-96.0	-168.0	-99	-175	1
2.7	2015_May_22_1100	s	s	9	3	SIC	359	ABS	0	1	02VD 02VO 02VC 02MD 02MO 02MC 02RD 10RO	0	1	3.41968894005	None	None	None	None	1
2.7	2015_May_22_1100	s	s	9	3	SIC	360	ABS	2	2	10VD 02VO 02VC 02MD 02MO 02MC 02RD 02RO	0	1	1.86837506294	None	None	None	None	1
2.7	2015_May_22_1100	s	s	9	3	SIC	361	RC	2	0	02VD 02VO 09VC 02MD 02MO 02MC 02RD 02RO	1	0	1.75315499306	528.0	-119.0	531	-114	1
2.7	2015_May_22_1100	s	s	9	3	SIC	362	ABS	1	1	02VD 02VO 02VC 02MD 10MO 02MC 02RD 02RO	0	1	2.48956298828	None	None	None	None	1
2.7	2015_May_22_1100	s	s	9	3	SIC	363	RC	2	2	09VD 02VO 02VC 02MD 02MO 02MC 02RD 02RO	1	0	1.34119582176	199.0	245.0	194	249	1
2.7	2015_May_22_1100	s	s	9	3	SIC	364	RC	1	2	02VD 02VO 02VC 09MD 02MO 02MC 02RD 02RO	1	0	2.39534401894	448.0	-81.0	445	-72	1
2.7	2015_May_22_1100	s	s	9	3	SIC	365	ABS	0	2	02VD 02VO 02VC 02MD 02MO 02MC 10RD 02RO	0	1	2.29107284546	None	None	None	None	1
2.7	2015_May_22_1100	s	s	9	3	SIC	366	RC	0	2	02VD 02VO 02VC 02MD 02MO 02MC 09RD 02RO	1	0	1.24709892273	303.0	-247.0	294	-246	1
2.7	2015_May_22_1100	s	s	9	3	SIC	367	RC	2	1	02VD 09VO 02VC 02MD 02MO 02MC 02RD 02RO	1	0	0.794783830643	254.0	-117.0	247	-112	1
2.7	2015_May_22_1100	s	s	9	3	SIC	368	ABS	1	2	02VD 02VO 02VC 10MD 02MO 02MC 02RD 02RO	0	1	2.14159297943	None	None	None	None	1
2.7	2015_May_22_1100	s	s	9	3	SIC	369	ABS	0	2	02VD 02VO 02VC 02MD 02MO 02MC 10RD 02RO	0	1	1.73878717422	None	None	None	None	1
2.7	2015_May_22_1100	s	s	9	3	SIC	370	RC	0	2	02VD 02VO 02VC 02MD 02MO 02MC 09RD 02RO	1	0	1.40008401871	-242.0	-92.0	-246	-93	1
2.7	2015_May_22_1100	s	s	9	3	SIC	371	ABS	2	1	02VD 10VO 02VC 02MD 02MO 02MC 02RD 02RO	0	1	1.93669581413	None	None	None	None	1
2.7	2015_May_22_1100	s	s	9	3	SIC	372	ABS	1	2	02VD 02VO 02VC 10MD 02MO 02MC 02RD 02RO	0	1	2.38879299164	None	None	None	None	1
2.7	2015_May_22_1100	s	s	9	3	SIC	373	RC	2	1	02VD 09VO 02VC 02MD 02MO 02MC 02RD 02RO	1	0	2.50653505325	279.0	179.0	278	186	1
2.7	2015_May_22_1100	s	s	9	3	SIC	374	ABS	1	0	02VD 02VO 02VC 02MD 02MO 10MC 02RD 02RO	0	1	2.86806297302	None	None	None	None	1
2.7	2015_May_22_1100	s	s	9	3	SIC	375	ABS	2	0	02VD 02VO 10VC 02MD 02MO 02MC 02RD 02RO	0	1	2.16044092178	None	None	None	None	1
2.7	2015_May_22_1100	s	s	9	3	SIC	376	ABS	1	1	02VD 02VO 02VC 02MD 10MO 02MC 02RD 02RO	0	1	2.30679011345	None	None	None	None	1
2.7	2015_May_22_1100	s	s	9	3	SIC	377	RC	1	1	02VD 02VO 02VC 02MD 09MO 02MC 02RD 02RO	1	0	1.53693604469	-38.0	-217.0	-43	-216	1
2.7	2015_May_22_1100	s	s	9	3	SIC	378	ABS	0	1	02VD 02VO 02VC 02MD 02MO 02MC 02RD 10RO	0	1	2.53692293167	None	None	None	None	1
2.7	2015_May_22_1100	s	s	9	3	SIC	379	ABS	2	2	10VD 02VO 02VC 02MD 02MO 02MC 02RD 02RO	0	1	1.24188303947	None	None	None	None	1
2.7	2015_May_22_1100	s	s	9	3	SIC	380	RC	2	0	02VD 02VO 09VC 02MD 02MO 02MC 02RD 02RO	0	1	1.51779007912	-6.0	150.0	None	None	0
2.7	2015_May_22_1100	s	s	9	3	SIC	381	RC	1	2	02VD 02VO 02VC 09MD 02MO 02MC 02RD 02RO	0	1	2.43267679214	-8.0	342.0	None	None	0
2.7	2015_May_22_1100	s	s	9	3	SIC	382	RC	0	1	02VD 02VO 02VC 02MD 02MO 02MC 02RD 09RO	1	0	0.658586978912	105.0	16.0	97	16	1
2.7	2015_May_22_1100	s	s	9	3	SIC	383	RC	2	2	09VD 02VO 02VC 02MD 02MO 02MC 02RD 02RO	1	0	1.88980102539	339.0	365.0	340	370	1
2.7	2015_May_22_1100	s	s	9	3	SIC	384	RC	1	0	02VD 02VO 02VC 02MD 02MO 09MC 02RD 02RO	1	0	1.31792712212	-120.0	-146.0	-121	-152	1
2.7	2015_May_22_1100	s	s	9	3	SIC	385	RC	1	2	02VD 02VO 02VC 09MD 02MO 02MC 02RD 02RO	1	0	2.28958487511	353.0	-395.0	352	-401	1
2.7	2015_May_22_1100	s	s	9	3	SIC	386	ABS	2	1	02VD 10VO 02VC 02MD 02MO 02MC 02RD 02RO	0	1	1.85913014412	None	None	None	None	1
2.7	2015_May_22_1100	s	s	9	3	SIC	387	RC	1	1	02VD 02VO 02VC 02MD 09MO 02MC 02RD 02RO	1	0	1.35297393799	511.0	-379.0	515	-381	1
2.7	2015_May_22_1100	s	s	9	3	SIC	388	RC	0	1	02VD 02VO 02VC 02MD 02MO 02MC 02RD 09RO	0	1	3.01929187775	420.0	-229.0	None	None	0
2.7	2015_May_22_1100	s	s	9	3	SIC	389	ABS	0	1	02VD 02VO 02VC 02MD 02MO 02MC 02RD 10RO	0	1	3.54241204262	None	None	None	None	1
2.7	2015_May_22_1100	s	s	9	3	SIC	390	RC	2	0	02VD 02VO 09VC 02MD 02MO 02MC 02RD 02RO	1	0	1.15290808678	-114.0	-159.0	-116	-152	1
2.7	2015_May_22_1100	s	s	9	3	SIC	391	ABS	2	2	10VD 02VO 02VC 02MD 02MO 02MC 02RD 02RO	0	1	2.02391910553	None	None	None	None	1
2.7	2015_May_22_1100	s	s	9	3	SIC	392	ABS	1	1	02VD 02VO 02VC 02MD 10MO 02MC 02RD 02RO	0	1	2.28962182999	None	None	None	None	1
2.7	2015_May_22_1100	s	s	9	3	SIC	393	ABS	2	0	02VD 02VO 10VC 02MD 02MO 02MC 02RD 02RO	0	1	2.18391084671	None	None	None	None	1
2.7	2015_May_22_1100	s	s	9	3	SIC	394	ABS	1	2	02VD 02VO 02VC 10MD 02MO 02MC 02RD 02RO	0	1	1.84247899055	None	None	None	None	1
2.7	2015_May_22_1100	s	s	9	3	SIC	395	RC	0	2	02VD 02VO 02VC 02MD 02MO 02MC 09RD 02RO	1	0	1.59742903709	333.0	288.0	331	293	1
2.7	2015_May_22_1100	s	s	9	3	SIC	396	ABS	1	0	02VD 02VO 02VC 02MD 02MO 10MC 02RD 02RO	0	1	2.48293709755	None	None	None	None	1
2.7	2015_May_22_1100	s	s	9	3	SIC	397	RC	2	1	02VD 09VO 02VC 02MD 02MO 02MC 02RD 02RO	1	0	1.07721400261	192.0	-42.0	188	-38	1
2.7	2015_May_22_1100	s	s	9	3	SIC	398	RC	2	2	09VD 02VO 02VC 02MD 02MO 02MC 02RD 02RO	1	0	1.67754411697	373.0	-11.0	373	-10	1
2.7	2015_May_22_1100	s	s	9	3	SIC	399	RC	1	0	02VD 02VO 02VC 02MD 02MO 09MC 02RD 02RO	0	1	2.73710513115	127.0	333.0	None	None	0
2.7	2015_May_22_1100	s	s	9	3	SIC	400	ABS	0	2	02VD 02VO 02VC 02MD 02MO 02MC 10RD 02RO	0	1	2.05443310738	None	None	None	None	1
2.7	2015_May_22_1100	s	s	9	3	SIC	401	RC	0	1	02VD 02VO 02VC 02MD 02MO 02MC 02RD 09RO	0	1	3.03620004654	-401.0	-395.0	None	None	0
2.7	2015_May_22_1100	s	s	9	3	SIC	402	RC	1	2	02VD 02VO 02VC 09MD 02MO 02MC 02RD 02RO	1	0	1.70613718033	-270.0	-119.0	-270	-117	1
2.7	2015_May_22_1100	s	s	9	3	SIC	403	ABS	2	0	02VD 02VO 10VC 02MD 02MO 02MC 02RD 02RO	0	1	3.17514300346	None	None	None	None	1
2.7	2015_May_22_1100	s	s	9	3	SIC	404	ABS	0	1	02VD 02VO 02VC 02MD 02MO 02MC 02RD 10RO	0	1	3.45992398262	None	None	None	None	1
2.7	2015_May_22_1100	s	s	9	3	SIC	405	ABS	1	0	02VD 02VO 02VC 02MD 02MO 10MC 02RD 02RO	0	1	2.32464289665	None	None	None	None	1
2.7	2015_May_22_1100	s	s	9	3	SIC	406	RC	2	0	02VD 02VO 09VC 02MD 02MO 02MC 02RD 02RO	1	0	1.08227205276	333.0	-234.0	328	-231	1
2.7	2015_May_22_1100	s	s	9	3	SIC	407	RC	2	2	09VD 02VO 02VC 02MD 02MO 02MC 02RD 02RO	1	0	1.65401506424	538.0	-171.0	535	-170	1
2.7	2015_May_22_1100	s	s	9	3	SIC	408	ABS	2	1	02VD 10VO 02VC 02MD 02MO 02MC 02RD 02RO	0	1	2.23097896576	None	None	None	None	1
2.7	2015_May_22_1100	s	s	9	3	SIC	409	RC	0	2	02VD 02VO 02VC 02MD 02MO 02MC 09RD 02RO	1	0	1.04690217972	369.0	-96.0	368	-90	1
2.7	2015_May_22_1100	s	s	9	3	SIC	410	ABS	1	2	02VD 02VO 02VC 10MD 02MO 02MC 02RD 02RO	0	1	1.52455997467	None	None	None	None	1
2.7	2015_May_22_1100	s	s	9	3	SIC	411	ABS	0	2	02VD 02VO 02VC 02MD 02MO 02MC 10RD 02RO	0	1	1.95991706848	None	None	None	None	1
2.7	2015_May_22_1100	s	s	9	3	SIC	412	RC	1	1	02VD 02VO 02VC 02MD 09MO 02MC 02RD 02RO	1	0	1.41877508163	198.0	304.0	197	301	1
2.7	2015_May_22_1100	s	s	9	3	SIC	413	RC	2	1	02VD 09VO 02VC 02MD 02MO 02MC 02RD 02RO	1	0	1.15295100212	514.0	-8.0	514	-3	1
2.7	2015_May_22_1100	s	s	9	3	SIC	414	RC	1	0	02VD 02VO 02VC 02MD 02MO 09MC 02RD 02RO	1	0	1.22351098061	-168.0	-307.0	-167	-302	1
2.7	2015_May_22_1100	s	s	9	3	SIC	415	ABS	2	2	10VD 02VO 02VC 02MD 02MO 02MC 02RD 02RO	1	0	0.89760684967	None	None	-279	225	0
2.7	2015_May_22_1100	s	s	9	3	SIC	416	ABS	1	1	02VD 02VO 02VC 02MD 10MO 02MC 02RD 02RO	0	1	2.2896361351	None	None	None	None	1
2.7	2015_May_22_1100	s	s	9	3	SIC	417	ABS	0	1	02VD 02VO 02VC 02MD 02MO 02MC 02RD 10RO	0	1	4.21319198608	None	None	None	None	1
2.7	2015_May_22_1100	s	s	9	3	SIC	418	RC	1	0	02VD 02VO 02VC 02MD 02MO 09MC 02RD 02RO	1	0	1.30585408211	-172.0	-5.0	-179	4	1
2.7	2015_May_22_1100	s	s	9	3	SIC	419	ABS	2	2	10VD 02VO 02VC 02MD 02MO 02MC 02RD 02RO	0	1	2.08887696266	None	None	None	None	1
2.7	2015_May_22_1100	s	s	9	3	SIC	420	ABS	2	1	02VD 10VO 02VC 02MD 02MO 02MC 02RD 02RO	0	1	2.23581886292	None	None	None	None	1
2.7	2015_May_22_1100	s	s	9	3	SIC	421	RC	2	0	02VD 02VO 09VC 02MD 02MO 02MC 02RD 02RO	1	0	1.5294778347	-282.0	320.0	-289	329	1
2.7	2015_May_22_1100	s	s	9	3	SIC	422	ABS	0	2	02VD 02VO 02VC 02MD 02MO 02MC 10RD 02RO	0	1	1.51784396172	None	None	None	None	1
2.7	2015_May_22_1100	s	s	9	3	SIC	423	RC	0	2	02VD 02VO 02VC 02MD 02MO 02MC 09RD 02RO	1	0	2.00723195076	138.0	-250.0	139	-243	1
2.7	2015_May_22_1100	s	s	9	3	SIC	424	ABS	2	0	02VD 02VO 10VC 02MD 02MO 02MC 02RD 02RO	0	1	1.53634309769	None	None	None	None	1
2.7	2015_May_22_1100	s	s	9	3	SIC	425	RC	1	1	02VD 02VO 02VC 02MD 09MO 02MC 02RD 02RO	1	0	2.47842288017	-486.0	254.0	-488	259	1
2.7	2015_May_22_1100	s	s	9	3	SIC	426	RC	1	2	02VD 02VO 02VC 09MD 02MO 02MC 02RD 02RO	1	0	0.889948129654	119.0	-384.0	112	-381	1
2.7	2015_May_22_1100	s	s	9	3	SIC	427	RC	2	2	09VD 02VO 02VC 02MD 02MO 02MC 02RD 02RO	1	0	0.952764034271	-279.0	-277.0	-283	-279	1
2.7	2015_May_22_1100	s	s	9	3	SIC	428	ABS	1	0	02VD 02VO 02VC 02MD 02MO 10MC 02RD 02RO	0	1	2.81954479218	None	None	None	None	1
2.7	2015_May_22_1100	s	s	9	3	SIC	429	ABS	1	2	02VD 02VO 02VC 10MD 02MO 02MC 02RD 02RO	0	1	1.60926103592	None	None	None	None	1
2.7	2015_May_22_1100	s	s	9	3	SIC	430	RC	0	1	02VD 02VO 02VC 02MD 02MO 02MC 02RD 09RO	0	1	2.53035306931	-406.0	361.0	None	None	0
2.7	2015_May_22_1100	s	s	9	3	SIC	431	ABS	1	1	02VD 02VO 02VC 02MD 10MO 02MC 02RD 02RO	0	1	2.04751300812	None	None	None	None	1
2.7	2015_May_22_1100	s	s	9	3	SIC	432	RC	2	1	02VD 09VO 02VC 02MD 02MO 02MC 02RD 02RO	1	0	1.54814291	-514.0	-88.0	-516	-86	1
2.7	2015_May_22_1100	s	s	9	3	SIC	433	ABS	2	1	02VD 10VO 02VC 02MD 02MO 02MC 02RD 02RO	0	1	2.03569602966	None	None	None	None	1
2.7	2015_May_22_1100	s	s	9	3	SIC	434	RC	1	0	02VD 02VO 02VC 02MD 02MO 09MC 02RD 02RO	1	0	2.38878107071	248.0	-85.0	246	-84	1
2.7	2015_May_22_1100	s	s	9	3	SIC	435	ABS	1	1	02VD 02VO 02VC 02MD 10MO 02MC 02RD 02RO	0	1	2.32989192009	None	None	None	None	1
2.7	2015_May_22_1100	s	s	9	3	SIC	436	ABS	2	0	02VD 02VO 10VC 02MD 02MO 02MC 02RD 02RO	0	1	1.72955799103	None	None	None	None	1
2.7	2015_May_22_1100	s	s	9	3	SIC	437	RC	0	1	02VD 02VO 02VC 02MD 02MO 02MC 02RD 09RO	1	0	3.41977000237	74.0	391.0	74	389	1
2.7	2015_May_22_1100	s	s	9	3	SIC	438	RC	1	1	02VD 02VO 02VC 02MD 09MO 02MC 02RD 02RO	0	1	3.38934516907	-238.0	297.0	None	None	0
2.7	2015_May_22_1100	s	s	9	3	SIC	439	RC	2	2	09VD 02VO 02VC 02MD 02MO 02MC 02RD 02RO	1	0	0.752629995346	244.0	-83.0	243	-82	1
2.7	2015_May_22_1100	s	s	9	3	SIC	440	RC	1	2	02VD 02VO 02VC 09MD 02MO 02MC 02RD 02RO	1	0	2.60059285164	405.0	-262.0	407	-274	1
2.7	2015_May_22_1100	s	s	9	3	SIC	441	ABS	0	2	02VD 02VO 02VC 02MD 02MO 02MC 10RD 02RO	0	1	1.74182796478	None	None	None	None	1
2.7	2015_May_22_1100	s	s	9	3	SIC	442	RC	0	2	02VD 02VO 02VC 02MD 02MO 02MC 09RD 02RO	1	0	0.79975104332	-123.0	-91.0	-124	-99	1
2.7	2015_May_22_1100	s	s	9	3	SIC	443	RC	2	0	02VD 02VO 09VC 02MD 02MO 02MC 02RD 02RO	1	0	2.04254388809	-114.0	61.0	-117	62	1
2.7	2015_May_22_1100	s	s	9	3	SIC	444	ABS	0	1	02VD 02VO 02VC 02MD 02MO 02MC 02RD 10RO	0	1	3.65499997139	None	None	None	None	1
2.7	2015_May_22_1100	s	s	9	3	SIC	445	ABS	2	2	10VD 02VO 02VC 02MD 02MO 02MC 02RD 02RO	0	1	1.78847908974	None	None	None	None	1
2.7	2015_May_22_1100	s	s	9	3	SIC	446	RC	2	1	02VD 09VO 02VC 02MD 02MO 02MC 02RD 02RO	1	0	0.646739006042	-44.0	-43.0	-48	-38	1
2.7	2015_May_22_1100	s	s	9	3	SIC	447	ABS	1	0	02VD 02VO 02VC 02MD 02MO 10MC 02RD 02RO	0	1	1.87073993683	None	None	None	None	1
2.7	2015_May_22_1100	s	s	9	3	SIC	448	ABS	1	2	02VD 02VO 02VC 10MD 02MO 02MC 02RD 02RO	0	1	1.561398983	None	None	None	None	1
2.7	2015_May_22_1100	s	s	9	3	SIC	449	RC	1	1	02VD 02VO 02VC 02MD 09MO 02MC 02RD 02RO	1	0	0.988042116165	206.0	218.0	203	227	1
2.7	2015_May_22_1100	s	s	9	3	SIC	450	ABS	1	1	02VD 02VO 02VC 02MD 10MO 02MC 02RD 02RO	0	1	2.12380218506	None	None	None	None	1
2.7	2015_May_22_1100	s	s	9	3	SIC	451	ABS	2	2	10VD 02VO 02VC 02MD 02MO 02MC 02RD 02RO	0	1	2.48301005363	None	None	None	None	1
2.7	2015_May_22_1100	s	s	9	3	SIC	452	RC	1	2	02VD 02VO 02VC 09MD 02MO 02MC 02RD 02RO	1	0	2.6124689579	-519.0	395.0	-521	391	1
2.7	2015_May_22_1100	s	s	9	3	SIC	453	RC	2	2	09VD 02VO 02VC 02MD 02MO 02MC 02RD 02RO	1	0	1.6564040184	252.0	-319.0	256	-329	1
2.7	2015_May_22_1100	s	s	9	3	SIC	454	ABS	2	0	02VD 02VO 10VC 02MD 02MO 02MC 02RD 02RO	0	1	2.75368404388	None	None	None	None	1
2.7	2015_May_22_1100	s	s	9	3	SIC	455	RC	2	0	02VD 02VO 09VC 02MD 02MO 02MC 02RD 02RO	1	0	1.07797789574	-374.0	158.0	-371	157	1
2.7	2015_May_22_1100	s	s	9	3	SIC	456	ABS	0	2	02VD 02VO 02VC 02MD 02MO 02MC 10RD 02RO	0	1	2.92548894882	None	None	None	None	1
2.7	2015_May_22_1100	s	s	9	3	SIC	457	RC	2	1	02VD 09VO 02VC 02MD 02MO 02MC 02RD 02RO	1	0	0.855340003967	242.0	-42.0	242	-46	1
2.7	2015_May_22_1100	s	s	9	3	SIC	458	ABS	0	1	02VD 02VO 02VC 02MD 02MO 02MC 02RD 10RO	0	1	3.48338508606	None	None	None	None	1
2.7	2015_May_22_1100	s	s	9	3	SIC	459	ABS	1	0	02VD 02VO 02VC 02MD 02MO 10MC 02RD 02RO	0	1	1.95362496376	None	None	None	None	1
2.7	2015_May_22_1100	s	s	9	3	SIC	460	ABS	1	2	02VD 02VO 02VC 10MD 02MO 02MC 02RD 02RO	0	1	2.57445192337	None	None	None	None	1
2.7	2015_May_22_1100	s	s	9	3	SIC	461	ABS	2	1	02VD 10VO 02VC 02MD 02MO 02MC 02RD 02RO	0	1	1.72696590424	None	None	None	None	1
2.7	2015_May_22_1100	s	s	9	3	SIC	462	RC	1	0	02VD 02VO 02VC 02MD 02MO 09MC 02RD 02RO	1	0	3.19812011719	-280.0	-244.0	-282	-247	1
2.7	2015_May_22_1100	s	s	9	3	SIC	463	RC	0	1	02VD 02VO 02VC 02MD 02MO 02MC 02RD 09RO	1	0	0.729259967804	-127.0	-72.0	-129	-70	1
2.7	2015_May_22_1100	s	s	9	3	SIC	464	RC	0	2	02VD 02VO 02VC 02MD 02MO 02MC 09RD 02RO	1	0	0.835147857666	-305.0	11.0	-304	6	1
2.7	2015_May_22_1100	s	s	9	3	SIC	465	ABS	1	1	02VD 02VO 02VC 02MD 10MO 02MC 02RD 02RO	0	1	2.66627001762	None	None	None	None	1
2.7	2015_May_22_1100	s	s	9	3	SIC	466	RC	0	2	02VD 02VO 02VC 02MD 02MO 02MC 09RD 02RO	1	0	0.723941802979	-334.0	-91.0	-337	-104	1
2.7	2015_May_22_1100	s	s	9	3	SIC	467	RC	1	1	02VD 02VO 02VC 02MD 09MO 02MC 02RD 02RO	1	0	1.41840219498	-497.0	49.0	-490	47	1
2.7	2015_May_22_1100	s	s	9	3	SIC	468	RC	1	2	02VD 02VO 02VC 09MD 02MO 02MC 02RD 02RO	1	0	0.870311975479	-382.0	79.0	-382	80	1
2.7	2015_May_22_1100	s	s	9	3	SIC	469	ABS	0	2	02VD 02VO 02VC 02MD 02MO 02MC 10RD 02RO	0	1	2.77721619606	None	None	None	None	1
2.7	2015_May_22_1100	s	s	9	3	SIC	470	RC	1	0	02VD 02VO 02VC 02MD 02MO 09MC 02RD 02RO	1	0	1.8212621212	130.0	-329.0	134	-327	1
2.7	2015_May_22_1100	s	s	9	3	SIC	471	ABS	1	0	02VD 02VO 02VC 02MD 02MO 10MC 02RD 02RO	0	1	2.70166707039	None	None	None	None	1
2.7	2015_May_22_1100	s	s	9	3	SIC	472	ABS	2	1	02VD 10VO 02VC 02MD 02MO 02MC 02RD 02RO	0	1	1.9890229702	None	None	None	None	1
2.7	2015_May_22_1100	s	s	9	3	SIC	473	ABS	2	0	02VD 02VO 10VC 02MD 02MO 02MC 02RD 02RO	0	1	1.78369903564	None	None	None	None	1
2.7	2015_May_22_1100	s	s	9	3	SIC	474	RC	0	1	02VD 02VO 02VC 02MD 02MO 02MC 02RD 09RO	1	0	3.91576814651	-157.0	-236.0	-158	-228	1
2.7	2015_May_22_1100	s	s	9	3	SIC	475	ABS	0	1	02VD 02VO 02VC 02MD 02MO 02MC 02RD 10RO	0	1	3.47170901299	None	None	None	None	1
2.7	2015_May_22_1100	s	s	9	3	SIC	476	RC	2	2	09VD 02VO 02VC 02MD 02MO 02MC 02RD 02RO	1	0	1.63554906845	112.0	385.0	112	392	1
2.7	2015_May_22_1100	s	s	9	3	SIC	477	RC	2	0	02VD 02VO 09VC 02MD 02MO 02MC 02RD 02RO	1	0	2.74204492569	254.0	369.0	257	377	1
2.7	2015_May_22_1100	s	s	9	3	SIC	478	RC	2	1	02VD 09VO 02VC 02MD 02MO 02MC 02RD 02RO	1	0	2.17695713043	-423.0	-244.0	-426	-241	1
2.7	2015_May_22_1100	s	s	9	3	SIC	479	ABS	1	2	02VD 02VO 02VC 10MD 02MO 02MC 02RD 02RO	0	1	2.30115699768	None	None	None	None	1
2.7	2015_May_22_1100	s	s	9	3	SIC	480	ABS	2	2	10VD 02VO 02VC 02MD 02MO 02MC 02RD 02RO	0	1	1.64207196236	None	None	None	None	1
