Version	Date	Stimuli	Method	Subject	Session	Condition	Trial	Target	Channel1	Channel2	Distractors	LMouseButton	RMouseButton	RT	TargetX	TargetY	ResponseX	ResponseY	Correct
2.7	2015_May_18_1103	s	s	9	1	Capacity	1	ABS	2	0	16VC 08MC	1	0	1.78858089447	None	None	97	100	0
2.7	2015_May_18_1103	s	s	9	1	Capacity	2	RC	2	0	15VC 08MC	1	0	2.48984217644	319.0	301.0	-165	255	0
2.7	2015_May_18_1103	s	s	9	1	Capacity	3	RC	1	0	08VC 15MC	1	0	3.2548661232	-362.0	131.0	44	324	0
2.7	2015_May_18_1103	s	s	9	1	Capacity	4	ABS	1	0	08VC 16MC	1	0	0.947783946991	None	None	-25	197	0
2.7	2015_May_18_1103	s	s	9	1	Capacity	5	ABS	2	0	16VC 08MC	1	0	0.936402082443	None	None	144	259	0
2.7	2015_May_18_1103	s	s	9	1	Capacity	6	ABS	1	0	08VC 16MC	1	0	0.924285173416	None	None	82	295	0
2.7	2015_May_18_1103	s	s	9	1	Capacity	7	RC	1	0	08VC 15MC	1	0	1.0586938858	-79.0	288.0	-81	284	1
2.7	2015_May_18_1103	s	s	9	1	Capacity	8	RC	2	0	15VC 08MC	1	0	0.717329025269	-284.0	390.0	-183	287	0
2.7	2015_May_18_1103	s	s	9	1	Capacity	9	ABS	1	0	08VC 16MC	1	0	1.7837100029	None	None	-213	188	0
2.7	2015_May_18_1103	s	s	9	1	Capacity	10	ABS	2	0	16VC 08MC	1	0	1.2705988884	None	None	-25	27	0
2.7	2015_May_18_1103	s	s	9	1	Capacity	11	RC	2	0	15VC 08MC	1	0	1.02720999718	-312.0	-115.0	-314	-115	1
2.7	2015_May_18_1103	s	s	9	1	Capacity	12	RC	1	0	08VC 15MC	1	0	0.917299985886	125.0	324.0	-233	129	0
2.7	2015_May_18_1103	s	s	9	1	Capacity	13	ABS	1	0	08VC 16MC	1	0	0.846801996231	None	None	-393	257	0
2.7	2015_May_18_1103	s	s	9	1	Capacity	14	RC	1	0	08VC 15MC	1	0	0.971247911453	73.0	-63.0	-243	270	0
2.7	2015_May_18_1103	s	s	9	1	Capacity	15	RC	2	0	15VC 08MC	1	0	1.19996809959	-305.0	-308.0	-107	93	0
2.7	2015_May_18_1103	s	s	9	1	Capacity	16	ABS	2	0	16VC 08MC	1	0	0.933100223541	None	None	-74	342	0
2.7	2015_May_18_1103	s	s	9	1	Capacity	17	RC	1	0	08VC 15MC	1	0	0.78302693367	13.0	330.0	132	134	0
2.7	2015_May_18_1103	s	s	9	1	Capacity	18	ABS	2	0	16VC 08MC	1	0	1.04428911209	None	None	-267	275	0
2.7	2015_May_18_1103	s	s	9	1	Capacity	19	RC	2	0	15VC 08MC	1	0	0.799660921097	-471.0	61.0	-466	364	0
2.7	2015_May_18_1103	s	s	9	1	Capacity	20	ABS	1	0	08VC 16MC	1	0	0.724290847778	None	None	-123	271	0
2.7	2015_May_18_1103	s	s	9	1	Capacity	21	RC	2	0	15VC 08MC	1	0	0.705562114716	-66.0	175.0	-67	171	1
2.7	2015_May_18_1103	s	s	9	1	Capacity	22	RC	1	0	08VC 15MC	1	0	2.18273186684	-364.0	213.0	-353	215	1
2.7	2015_May_18_1103	s	s	9	1	Capacity	23	ABS	2	0	16VC 08MC	1	0	0.971400022507	None	None	-12	382	0
2.7	2015_May_18_1103	s	s	9	1	Capacity	24	ABS	1	0	08VC 16MC	1	0	0.715029001236	None	None	-29	390	0
2.7	2015_May_18_1103	s	s	9	1	Capacity	25	RC	1	0	08VC 15MC	1	0	0.724157094955	-317.0	10.0	256	379	0
2.7	2015_May_18_1103	s	s	9	1	Capacity	26	ABS	1	0	08VC 16MC	1	0	2.59563612938	None	None	-94	-65	0
2.7	2015_May_18_1103	s	s	9	1	Capacity	27	RC	2	0	15VC 08MC	1	0	0.829226970673	429.0	315.0	-266	47	0
2.7	2015_May_18_1103	s	s	9	1	Capacity	28	ABS	2	0	16VC 08MC	1	0	0.947242975235	None	None	-173	198	0
2.7	2015_May_18_1103	s	s	9	1	Capacity	29	ABS	1	0	08VC 16MC	1	0	2.96063303947	None	None	-130	382	0
2.7	2015_May_18_1103	s	s	9	1	Capacity	30	RC	2	0	15VC 08MC	1	0	1.01868605614	374.0	410.0	110	15	0
2.7	2015_May_18_1103	s	s	9	1	Capacity	31	RC	1	0	08VC 15MC	1	0	2.04279088974	-484.0	397.0	-45	53	0
2.7	2015_May_18_1103	s	s	9	1	Capacity	32	ABS	2	0	16VC 08MC	1	0	1.05872797966	None	None	-424	-122	0
2.7	2015_May_18_1103	s	s	9	1	Capacity	33	RC	2	0	15VC 08MC	1	0	0.878823041916	-407.0	-91.0	-13	-107	0
2.7	2015_May_18_1103	s	s	9	1	Capacity	34	ABS	1	0	08VC 16MC	1	0	1.32948088646	None	None	199	11	0
2.7	2015_May_18_1103	s	s	9	1	Capacity	35	RC	1	0	08VC 15MC	1	0	2.62197494507	503.0	-108.0	-371	-153	0
2.7	2015_May_18_1103	s	s	9	1	Capacity	36	ABS	2	0	16VC 08MC	1	0	0.7590239048	None	None	-265	-42	0
2.7	2015_May_18_1103	s	s	9	1	Capacity	37	RC	1	0	08VC 15MC	1	0	0.962115049362	259.0	-134.0	135	187	0
2.7	2015_May_18_1103	s	s	9	1	Capacity	38	ABS	2	0	16VC 08MC	1	0	0.870307922363	None	None	158	35	0
2.7	2015_May_18_1103	s	s	9	1	Capacity	39	ABS	1	0	08VC 16MC	1	0	0.685945034027	None	None	-174	13	0
2.7	2015_May_18_1103	s	s	9	1	Capacity	40	RC	2	0	15VC 08MC	1	0	0.641360044479	-152.0	196.0	-145	195	1
2.7	2015_May_18_1103	s	s	9	1	Capacity	41	ABS	2	0	16VC 08MC	1	0	0.983509063721	None	None	-192	-94	0
2.7	2015_May_18_1103	s	s	9	1	Capacity	42	ABS	1	0	08VC 16MC	1	0	1.43532991409	None	None	-211	179	0
2.7	2015_May_18_1103	s	s	9	1	Capacity	43	RC	2	0	15VC 08MC	1	0	0.807362794876	292.0	255.0	-27	-37	0
2.7	2015_May_18_1103	s	s	9	1	Capacity	44	RC	1	0	08VC 15MC	1	0	0.689253091812	222.0	377.0	-53	-55	0
2.7	2015_May_18_1103	s	s	9	1	Capacity	45	RC	1	0	08VC 15MC	1	0	0.623212814331	-203.0	241.0	-27	-82	0
2.7	2015_May_18_1103	s	s	9	1	Capacity	46	ABS	1	0	08VC 16MC	1	0	0.92924118042	None	None	-9	107	0
2.7	2015_May_18_1103	s	s	9	1	Capacity	47	RC	2	0	15VC 08MC	1	0	0.623187065125	74.0	-321.0	-191	75	0
2.7	2015_May_18_1103	s	s	9	1	Capacity	48	ABS	2	0	16VC 08MC	1	0	1.0233809948	None	None	-53	131	0
2.7	2015_May_18_1103	s	s	9	1	Capacity	49	RC	2	0	15VC 08MC	1	0	0.638814926147	298.0	184.0	-69	79	0
2.7	2015_May_18_1103	s	s	9	1	Capacity	50	ABS	2	0	16VC 08MC	1	0	2.95376110077	None	None	-146	-29	0
2.7	2015_May_18_1103	s	s	9	1	Capacity	51	ABS	1	0	08VC 16MC	1	0	0.70560002327	None	None	-195	-87	0
2.7	2015_May_18_1103	s	s	9	1	Capacity	52	RC	1	0	08VC 15MC	1	0	0.799734115601	16.0	-274.0	-117	177	0
2.7	2015_May_18_1103	s	s	9	1	Capacity	53	RC	2	0	15VC 08MC	1	0	0.623235940933	-257.0	28.0	-251	24	1
2.7	2015_May_18_1103	s	s	9	1	Capacity	54	RC	1	0	08VC 15MC	1	0	1.91025090218	-335.0	239.0	11	225	0
2.7	2015_May_18_1103	s	s	9	1	Capacity	55	ABS	2	0	16VC 08MC	1	0	0.641805887222	None	None	92	120	0
2.7	2015_May_18_1103	s	s	9	1	Capacity	56	ABS	1	0	08VC 16MC	1	0	0.870388031006	None	None	-226	78	0
2.7	2015_May_18_1103	s	s	9	1	Capacity	57	ABS	1	0	08VC 16MC	1	0	0.724189043045	None	None	30	92	0
2.7	2015_May_18_1103	s	s	9	1	Capacity	58	RC	2	0	15VC 08MC	1	0	0.665041208267	-176.0	-80.0	-150	78	0
2.7	2015_May_18_1103	s	s	9	1	Capacity	59	ABS	2	0	16VC 08MC	1	0	1.1715528965	None	None	89	263	0
2.7	2015_May_18_1103	s	s	9	1	Capacity	60	RC	1	0	08VC 15MC	1	0	0.697903871536	265.0	-378.0	-26	26	0
2.7	2015_May_18_1103	s	s	9	1	Capacity	61	ABS	2	0	16VC 08MC	1	0	0.594746112823	None	None	-41	41	0
2.7	2015_May_18_1103	s	s	9	1	Capacity	62	RC	1	0	08VC 15MC	1	0	1.07739210129	-439.0	319.0	235	88	0
2.7	2015_May_18_1103	s	s	9	1	Capacity	63	RC	2	0	15VC 08MC	1	0	0.688759088516	-88.0	-110.0	-101	0	0
2.7	2015_May_18_1103	s	s	9	1	Capacity	64	ABS	1	0	08VC 16MC	1	0	0.55259013176	None	None	93	141	0
2.7	2015_May_18_1103	s	s	9	1	Capacity	1	ABS	0	1	08RD 16RO	0	1	5.62569117546	None	None	None	None	1
2.7	2015_May_18_1103	s	s	9	1	Capacity	2	RC	0	1	08RD 15RO	1	0	8.3044500351	7.0	-256.0	2	-258	1
2.7	2015_May_18_1103	s	s	9	1	Capacity	3	ABS	0	2	16RD 08RO	0	1	5.6700258255	None	None	None	None	1
2.7	2015_May_18_1103	s	s	9	1	Capacity	4	RC	0	2	15RD 08RO	1	0	0.0176820755005	-249.0	-180.0	27	141	0
2.7	2015_May_18_1103	s	s	9	1	Capacity	5	ABS	0	2	16RD 08RO	0	1	5.44910311699	None	None	None	None	1
2.7	2015_May_18_1103	s	s	9	1	Capacity	6	ABS	0	1	08RD 16RO	1	0	10.804749012	None	None	22	-19	0
2.7	2015_May_18_1103	s	s	9	1	Capacity	7	RC	0	2	15RD 08RO	1	0	2.0003798008	-229.0	217.0	-229	222	1
2.7	2015_May_18_1103	s	s	9	1	Capacity	8	RC	0	1	08RD 15RO	1	0	2.43577599525	270.0	188.0	274	190	1
2.7	2015_May_18_1103	s	s	9	1	Capacity	9	RC	0	2	15RD 08RO	1	0	1.18347787857	249.0	197.0	252	200	1
2.7	2015_May_18_1103	s	s	9	1	Capacity	10	RC	0	1	08RD 15RO	1	0	2.85727596283	-516.0	-14.0	-516	-8	1
2.7	2015_May_18_1103	s	s	9	1	Capacity	11	ABS	0	2	16RD 08RO	0	1	5.49622011185	None	None	None	None	1
2.7	2015_May_18_1103	s	s	9	1	Capacity	12	ABS	0	1	08RD 16RO	0	1	5.88192009926	None	None	None	None	1
2.7	2015_May_18_1103	s	s	9	1	Capacity	13	ABS	0	2	16RD 08RO	0	1	4.66053295135	None	None	None	None	1
2.7	2015_May_18_1103	s	s	9	1	Capacity	14	RC	0	1	08RD 15RO	1	0	3.3390390873	249.0	-119.0	250	-120	1
2.7	2015_May_18_1103	s	s	9	1	Capacity	15	ABS	0	1	08RD 16RO	0	1	8.96478700638	None	None	None	None	1
2.7	2015_May_18_1103	s	s	9	1	Capacity	16	RC	0	2	15RD 08RO	1	0	2.52528595924	153.0	-82.0	165	-80	1
2.7	2015_May_18_1103	s	s	9	1	Capacity	17	RC	0	2	15RD 08RO	1	0	1.30965614319	103.0	149.0	105	146	1
2.7	2015_May_18_1103	s	s	9	1	Capacity	18	ABS	0	2	16RD 08RO	0	1	4.90788292885	None	None	None	None	1
2.7	2015_May_18_1103	s	s	9	1	Capacity	19	RC	0	1	08RD 15RO	1	0	1.45412397385	-10.0	217.0	-19	224	1
2.7	2015_May_18_1103	s	s	9	1	Capacity	20	ABS	0	1	08RD 16RO	0	1	8.3918569088	None	None	None	None	1
2.7	2015_May_18_1103	s	s	9	1	Capacity	21	RC	0	2	15RD 08RO	1	0	3.77291083336	-467.0	-225.0	-466	-227	1
2.7	2015_May_18_1103	s	s	9	1	Capacity	22	ABS	0	2	16RD 08RO	0	1	3.74238085747	None	None	None	None	1
2.7	2015_May_18_1103	s	s	9	1	Capacity	23	RC	0	1	08RD 15RO	1	0	3.50200200081	-281.0	289.0	-281	291	1
2.7	2015_May_18_1103	s	s	9	1	Capacity	24	ABS	0	1	08RD 16RO	0	1	5.1077580452	None	None	None	None	1
2.7	2015_May_18_1103	s	s	9	1	Capacity	25	ABS	0	2	16RD 08RO	0	1	4.61341714859	None	None	None	None	1
2.7	2015_May_18_1103	s	s	9	1	Capacity	26	ABS	0	1	08RD 16RO	0	1	5.30339193344	None	None	None	None	1
2.7	2015_May_18_1103	s	s	9	1	Capacity	27	RC	0	1	08RD 15RO	1	0	5.15490007401	407.0	289.0	412	293	1
2.7	2015_May_18_1103	s	s	9	1	Capacity	28	RC	0	2	15RD 08RO	1	0	1.41875886917	-107.0	-12.0	-113	-8	1
2.7	2015_May_18_1103	s	s	9	1	Capacity	29	RC	0	1	08RD 15RO	1	0	1.98856306076	-394.0	342.0	-397	340	1
2.7	2015_May_18_1103	s	s	9	1	Capacity	30	ABS	0	2	16RD 08RO	0	1	5.04892611504	None	None	None	None	1
2.7	2015_May_18_1103	s	s	9	1	Capacity	31	RC	0	2	15RD 08RO	1	0	2.06630992889	-119.0	136.0	-115	145	1
2.7	2015_May_18_1103	s	s	9	1	Capacity	32	ABS	0	1	08RD 16RO	0	1	6.30351996422	None	None	None	None	1
2.7	2015_May_18_1103	s	s	9	1	Capacity	33	RC	0	2	15RD 08RO	1	0	1.02339577675	-138.0	-77.0	-135	-77	1
2.7	2015_May_18_1103	s	s	9	1	Capacity	34	ABS	0	1	08RD 16RO	0	1	5.55505800247	None	None	None	None	1
2.7	2015_May_18_1103	s	s	9	1	Capacity	35	ABS	0	2	16RD 08RO	0	1	3.20092988014	None	None	None	None	1
2.7	2015_May_18_1103	s	s	9	1	Capacity	36	RC	0	1	08RD 15RO	1	0	3.57180094719	74.0	208.0	84	206	1
2.7	2015_May_18_1103	s	s	9	1	Capacity	37	ABS	0	1	08RD 16RO	0	1	4.47919487953	None	None	None	None	1
2.7	2015_May_18_1103	s	s	9	1	Capacity	38	RC	0	1	08RD 15RO	1	0	4.37809896469	249.0	-55.0	251	-46	1
2.7	2015_May_18_1103	s	s	9	1	Capacity	39	RC	0	2	15RD 08RO	0	1	1.51235818863	-378.0	126.0	None	None	0
2.7	2015_May_18_1103	s	s	9	1	Capacity	40	ABS	0	2	16RD 08RO	0	1	3.15831208229	None	None	None	None	1
2.7	2015_May_18_1103	s	s	9	1	Capacity	41	RC	0	2	15RD 08RO	1	0	2.70175504684	163.0	-203.0	165	-206	1
2.7	2015_May_18_1103	s	s	9	1	Capacity	42	ABS	0	2	16RD 08RO	0	1	6.10817503929	None	None	None	None	1
2.7	2015_May_18_1103	s	s	9	1	Capacity	43	ABS	0	1	08RD 16RO	0	1	5.59965109825	None	None	None	None	1
2.7	2015_May_18_1103	s	s	9	1	Capacity	44	RC	0	1	08RD 15RO	1	0	3.57760310173	464.0	-400.0	469	-397	1
2.7	2015_May_18_1103	s	s	9	1	Capacity	45	ABS	0	1	08RD 16RO	0	1	4.85561704636	None	None	None	None	1
2.7	2015_May_18_1103	s	s	9	1	Capacity	46	RC	0	2	15RD 08RO	1	0	3.5894370079	306.0	-28.0	316	-30	1
2.7	2015_May_18_1103	s	s	9	1	Capacity	47	ABS	0	2	16RD 08RO	0	1	3.33043408394	None	None	None	None	1
2.7	2015_May_18_1103	s	s	9	1	Capacity	48	RC	0	1	08RD 15RO	1	0	1.34808492661	-483.0	248.0	-483	245	1
2.7	2015_May_18_1103	s	s	9	1	Capacity	49	ABS	0	2	16RD 08RO	0	1	4.10730099678	None	None	None	None	1
2.7	2015_May_18_1103	s	s	9	1	Capacity	50	ABS	0	1	08RD 16RO	0	1	6.73896193504	None	None	None	None	1
2.7	2015_May_18_1103	s	s	9	1	Capacity	51	RC	0	2	15RD 08RO	1	0	2.8902888298	15.0	-104.0	23	-105	1
2.7	2015_May_18_1103	s	s	9	1	Capacity	52	RC	0	1	08RD 15RO	1	0	3.26669406891	54.0	126.0	57	125	1
2.7	2015_May_18_1103	s	s	9	1	Capacity	53	ABS	0	2	16RD 08RO	0	1	3.62473106384	None	None	None	None	1
2.7	2015_May_18_1103	s	s	9	1	Capacity	54	ABS	0	1	08RD 16RO	0	1	5.62246394157	None	None	None	None	1
2.7	2015_May_18_1103	s	s	9	1	Capacity	55	RC	0	1	08RD 15RO	1	0	4.60867810249	-262.0	-158.0	-261	-157	1
2.7	2015_May_18_1103	s	s	9	1	Capacity	56	RC	0	2	15RD 08RO	1	0	5.62123513222	-306.0	84.0	-304	84	1
2.7	2015_May_18_1103	s	s	9	1	Capacity	57	ABS	0	2	16RD 08RO	0	1	4.38972806931	None	None	None	None	1
2.7	2015_May_18_1103	s	s	9	1	Capacity	58	RC	0	1	08RD 15RO	0	1	6.78760695457	13.0	89.0	None	None	0
2.7	2015_May_18_1103	s	s	9	1	Capacity	59	RC	0	2	15RD 08RO	0	1	3.32548809052	-89.0	-362.0	None	None	0
2.7	2015_May_18_1103	s	s	9	1	Capacity	60	ABS	0	1	08RD 16RO	0	1	3.67877697945	None	None	None	None	1
2.7	2015_May_18_1103	s	s	9	1	Capacity	61	RC	0	2	15RD 08RO	1	0	2.73017907143	-424.0	-204.0	-429	-202	1
2.7	2015_May_18_1103	s	s	9	1	Capacity	62	ABS	0	2	16RD 08RO	0	1	3.01260495186	None	None	None	None	1
2.7	2015_May_18_1103	s	s	9	1	Capacity	63	ABS	0	1	08RD 16RO	0	1	6.59799385071	None	None	None	None	1
2.7	2015_May_18_1103	s	s	9	1	Capacity	64	RC	0	1	08RD 15RO	1	0	1.69431209564	-354.0	-115.0	-361	-111	1
2.7	2015_May_18_1103	s	s	9	1	SIC	1	ABS	1	2	02VD 02VO 02VC 10MD 02MO 02MC 02RD 02RO	0	1	3.88367295265	None	None	None	None	1
2.7	2015_May_18_1103	s	s	9	1	SIC	2	RC	0	2	02VD 02VO 02VC 02MD 02MO 02MC 09RD 02RO	1	0	3.08308815956	-487.0	57.0	-496	55	1
2.7	2015_May_18_1103	s	s	9	1	SIC	3	ABS	0	2	02VD 02VO 02VC 02MD 02MO 02MC 10RD 02RO	1	0	7.55102801323	None	None	410	48	0
2.7	2015_May_18_1103	s	s	9	1	SIC	4	ABS	1	1	02VD 02VO 02VC 02MD 10MO 02MC 02RD 02RO	1	0	8.31881284714	None	None	219	192	0
2.7	2015_May_18_1103	s	s	9	1	SIC	5	RC	2	0	02VD 02VO 09VC 02MD 02MO 02MC 02RD 02RO	1	0	6.85666894913	-516.0	212.0	-513	211	1
2.7	2015_May_18_1103	s	s	9	1	SIC	6	RC	0	1	02VD 02VO 02VC 02MD 02MO 02MC 02RD 09RO	1	0	1.48995304108	30.0	-95.0	29	-90	1
2.7	2015_May_18_1103	s	s	9	1	SIC	7	ABS	2	0	02VD 02VO 10VC 02MD 02MO 02MC 02RD 02RO	0	1	5.56184720993	None	None	None	None	1
2.7	2015_May_18_1103	s	s	9	1	SIC	8	RC	1	0	02VD 02VO 02VC 02MD 02MO 09MC 02RD 02RO	1	0	2.85961794853	-195.0	109.0	-191	114	1
2.7	2015_May_18_1103	s	s	9	1	SIC	9	RC	1	2	02VD 02VO 02VC 09MD 02MO 02MC 02RD 02RO	1	0	3.99889802933	291.0	186.0	294	189	1
2.7	2015_May_18_1103	s	s	9	1	SIC	10	ABS	1	0	02VD 02VO 02VC 02MD 02MO 10MC 02RD 02RO	0	1	6.04696011543	None	None	None	None	1
2.7	2015_May_18_1103	s	s	9	1	SIC	11	RC	1	1	02VD 02VO 02VC 02MD 09MO 02MC 02RD 02RO	1	0	2.04403090477	194.0	-21.0	198	-22	1
2.7	2015_May_18_1103	s	s	9	1	SIC	12	ABS	2	1	02VD 10VO 02VC 02MD 02MO 02MC 02RD 02RO	0	1	9.22807097435	None	None	None	None	1
2.7	2015_May_18_1103	s	s	9	1	SIC	13	ABS	0	1	02VD 02VO 02VC 02MD 02MO 02MC 02RD 10RO	0	1	5.74379301071	None	None	None	None	1
2.7	2015_May_18_1103	s	s	9	1	SIC	14	ABS	2	2	10VD 02VO 02VC 02MD 02MO 02MC 02RD 02RO	0	1	3.39629077911	None	None	None	None	1
2.7	2015_May_18_1103	s	s	9	1	SIC	15	RC	2	1	02VD 09VO 02VC 02MD 02MO 02MC 02RD 02RO	1	0	2.43965911865	-525.0	307.0	-523	314	1
2.7	2015_May_18_1103	s	s	9	1	SIC	16	RC	2	2	09VD 02VO 02VC 02MD 02MO 02MC 02RD 02RO	1	0	11.1347208023	76.0	313.0	84	318	1
2.7	2015_May_18_1103	s	s	9	1	SIC	17	RC	1	0	02VD 02VO 02VC 02MD 02MO 09MC 02RD 02RO	1	0	2.67132878304	179.0	387.0	174	384	1
2.7	2015_May_18_1103	s	s	9	1	SIC	18	RC	2	2	09VD 02VO 02VC 02MD 02MO 02MC 02RD 02RO	1	0	3.40473604202	378.0	-221.0	374	-223	1
2.7	2015_May_18_1103	s	s	9	1	SIC	19	RC	0	1	02VD 02VO 02VC 02MD 02MO 02MC 02RD 09RO	1	0	3.20097899437	-250.0	83.0	-248	89	1
2.7	2015_May_18_1103	s	s	9	1	SIC	20	ABS	2	1	02VD 10VO 02VC 02MD 02MO 02MC 02RD 02RO	0	1	3.34906697273	None	None	None	None	1
2.7	2015_May_18_1103	s	s	9	1	SIC	21	ABS	0	1	02VD 02VO 02VC 02MD 02MO 02MC 02RD 10RO	0	1	4.16613101959	None	None	None	None	1
2.7	2015_May_18_1103	s	s	9	1	SIC	22	RC	1	2	02VD 02VO 02VC 09MD 02MO 02MC 02RD 02RO	1	0	3.58577489853	485.0	386.0	483	384	1
2.7	2015_May_18_1103	s	s	9	1	SIC	23	RC	1	1	02VD 02VO 02VC 02MD 09MO 02MC 02RD 02RO	1	0	2.72794103622	-212.0	215.0	-215	217	1
2.7	2015_May_18_1103	s	s	9	1	SIC	24	RC	2	1	02VD 09VO 02VC 02MD 02MO 02MC 02RD 02RO	1	0	1.87464690208	-7.0	5.0	-11	10	1
2.7	2015_May_18_1103	s	s	9	1	SIC	25	ABS	2	0	02VD 02VO 10VC 02MD 02MO 02MC 02RD 02RO	0	1	2.87179088593	None	None	None	None	1
2.7	2015_May_18_1103	s	s	9	1	SIC	26	ABS	1	1	02VD 02VO 02VC 02MD 10MO 02MC 02RD 02RO	1	0	1.6430990696	None	None	358	-16	0
2.7	2015_May_18_1103	s	s	9	1	SIC	27	ABS	0	2	02VD 02VO 02VC 02MD 02MO 02MC 10RD 02RO	0	1	5.3147521019	None	None	None	None	1
2.7	2015_May_18_1103	s	s	9	1	SIC	28	ABS	1	2	02VD 02VO 02VC 10MD 02MO 02MC 02RD 02RO	0	1	4.09110617638	None	None	None	None	1
2.7	2015_May_18_1103	s	s	9	1	SIC	29	ABS	1	0	02VD 02VO 02VC 02MD 02MO 10MC 02RD 02RO	0	1	3.60115504265	None	None	None	None	1
2.7	2015_May_18_1103	s	s	9	1	SIC	30	RC	0	2	02VD 02VO 02VC 02MD 02MO 02MC 09RD 02RO	1	0	1.28969883919	404.0	-29.0	408	-30	1
2.7	2015_May_18_1103	s	s	9	1	SIC	31	RC	2	0	02VD 02VO 09VC 02MD 02MO 02MC 02RD 02RO	1	0	2.72459983826	-447.0	364.0	-450	363	1
2.7	2015_May_18_1103	s	s	9	1	SIC	32	ABS	2	2	10VD 02VO 02VC 02MD 02MO 02MC 02RD 02RO	0	1	2.79609203339	None	None	None	None	1
2.7	2015_May_18_1103	s	s	9	1	SIC	33	ABS	2	0	02VD 02VO 10VC 02MD 02MO 02MC 02RD 02RO	0	1	3.92580294609	None	None	None	None	1
2.7	2015_May_18_1103	s	s	9	1	SIC	34	ABS	0	1	02VD 02VO 02VC 02MD 02MO 02MC 02RD 10RO	0	1	3.94250702858	None	None	None	None	1
2.7	2015_May_18_1103	s	s	9	1	SIC	35	ABS	2	2	10VD 02VO 02VC 02MD 02MO 02MC 02RD 02RO	0	1	3.31381201744	None	None	None	None	1
2.7	2015_May_18_1103	s	s	9	1	SIC	36	ABS	1	0	02VD 02VO 02VC 02MD 02MO 10MC 02RD 02RO	0	1	3.53056406975	None	None	None	None	1
2.7	2015_May_18_1103	s	s	9	1	SIC	37	RC	0	2	02VD 02VO 02VC 02MD 02MO 02MC 09RD 02RO	1	0	2.80768084526	-512.0	-124.0	-515	-127	1
2.7	2015_May_18_1103	s	s	9	1	SIC	38	RC	2	2	09VD 02VO 02VC 02MD 02MO 02MC 02RD 02RO	1	0	1.63159894943	67.0	32.0	66	33	1
2.7	2015_May_18_1103	s	s	9	1	SIC	39	RC	2	1	02VD 09VO 02VC 02MD 02MO 02MC 02RD 02RO	1	0	2.07785701752	67.0	-274.0	66	-273	1
2.7	2015_May_18_1103	s	s	9	1	SIC	40	ABS	0	2	02VD 02VO 02VC 02MD 02MO 02MC 10RD 02RO	0	1	4.96695995331	None	None	None	None	1
2.7	2015_May_18_1103	s	s	9	1	SIC	41	RC	1	2	02VD 02VO 02VC 09MD 02MO 02MC 02RD 02RO	1	0	1.35993909836	188.0	242.0	184	250	1
2.7	2015_May_18_1103	s	s	9	1	SIC	42	ABS	2	1	02VD 10VO 02VC 02MD 02MO 02MC 02RD 02RO	0	1	4.07742094994	None	None	None	None	1
2.7	2015_May_18_1103	s	s	9	1	SIC	43	ABS	1	1	02VD 02VO 02VC 02MD 10MO 02MC 02RD 02RO	0	1	5.20872616768	None	None	None	None	1
2.7	2015_May_18_1103	s	s	9	1	SIC	44	RC	2	0	02VD 02VO 09VC 02MD 02MO 02MC 02RD 02RO	0	1	3.24252104759	494.0	-200.0	None	None	0
2.7	2015_May_18_1103	s	s	9	1	SIC	45	RC	0	1	02VD 02VO 02VC 02MD 02MO 02MC 02RD 09RO	1	0	3.0094640255	30.0	145.0	27	150	1
2.7	2015_May_18_1103	s	s	9	1	SIC	46	ABS	1	2	02VD 02VO 02VC 10MD 02MO 02MC 02RD 02RO	0	1	3.43164801598	None	None	None	None	1
2.7	2015_May_18_1103	s	s	9	1	SIC	47	RC	1	0	02VD 02VO 02VC 02MD 02MO 09MC 02RD 02RO	1	0	2.28966403008	367.0	270.0	366	274	1
2.7	2015_May_18_1103	s	s	9	1	SIC	48	RC	1	1	02VD 02VO 02VC 02MD 09MO 02MC 02RD 02RO	1	0	1.61899399757	417.0	-84.0	423	-77	1
2.7	2015_May_18_1103	s	s	9	1	SIC	49	ABS	1	2	02VD 02VO 02VC 10MD 02MO 02MC 02RD 02RO	0	1	3.00089502335	None	None	None	None	1
2.7	2015_May_18_1103	s	s	9	1	SIC	50	ABS	2	2	10VD 02VO 02VC 02MD 02MO 02MC 02RD 02RO	0	1	2.80935716629	None	None	None	None	1
2.7	2015_May_18_1103	s	s	9	1	SIC	51	ABS	0	1	02VD 02VO 02VC 02MD 02MO 02MC 02RD 10RO	0	1	4.51437497139	None	None	None	None	1
2.7	2015_May_18_1103	s	s	9	1	SIC	52	ABS	0	2	02VD 02VO 02VC 02MD 02MO 02MC 10RD 02RO	0	1	3.18915104866	None	None	None	None	1
2.7	2015_May_18_1103	s	s	9	1	SIC	53	RC	2	1	02VD 09VO 02VC 02MD 02MO 02MC 02RD 02RO	1	0	2.46641302109	-51.0	-376.0	-53	-369	1
2.7	2015_May_18_1103	s	s	9	1	SIC	54	RC	1	1	02VD 02VO 02VC 02MD 09MO 02MC 02RD 02RO	1	0	1.53642606735	-425.0	-191.0	-430	-183	1
2.7	2015_May_18_1103	s	s	9	1	SIC	55	RC	2	0	02VD 02VO 09VC 02MD 02MO 02MC 02RD 02RO	0	1	2.04251194	-431.0	346.0	None	None	0
2.7	2015_May_18_1103	s	s	9	1	SIC	56	RC	1	2	02VD 02VO 02VC 09MD 02MO 02MC 02RD 02RO	1	0	2.13062119484	308.0	145.0	307	154	1
2.7	2015_May_18_1103	s	s	9	1	SIC	57	ABS	1	0	02VD 02VO 02VC 02MD 02MO 10MC 02RD 02RO	0	1	5.32723212242	None	None	None	None	1
2.7	2015_May_18_1103	s	s	9	1	SIC	58	RC	0	1	02VD 02VO 02VC 02MD 02MO 02MC 02RD 09RO	1	0	2.8807349205	-450.0	349.0	-451	356	1
2.7	2015_May_18_1103	s	s	9	1	SIC	59	ABS	2	1	02VD 10VO 02VC 02MD 02MO 02MC 02RD 02RO	0	1	2.65955996513	None	None	None	None	1
2.7	2015_May_18_1103	s	s	9	1	SIC	60	RC	0	2	02VD 02VO 02VC 02MD 02MO 02MC 09RD 02RO	1	0	4.93120098114	-433.0	-223.0	-438	-217	1
2.7	2015_May_18_1103	s	s	9	1	SIC	61	ABS	2	0	02VD 02VO 10VC 02MD 02MO 02MC 02RD 02RO	0	1	5.20867609978	None	None	None	None	1
2.7	2015_May_18_1103	s	s	9	1	SIC	62	ABS	1	1	02VD 02VO 02VC 02MD 10MO 02MC 02RD 02RO	0	1	12.0994520187	None	None	None	None	1
2.7	2015_May_18_1103	s	s	9	1	SIC	63	RC	1	0	02VD 02VO 02VC 02MD 02MO 09MC 02RD 02RO	1	0	7.51581192017	157.0	-221.0	161	-216	1
2.7	2015_May_18_1103	s	s	9	1	SIC	64	RC	2	2	09VD 02VO 02VC 02MD 02MO 02MC 02RD 02RO	1	0	2.5771420002	-346.0	101.0	-350	104	1
2.7	2015_May_18_1103	s	s	9	1	SIC	65	RC	2	2	09VD 02VO 02VC 02MD 02MO 02MC 02RD 02RO	1	0	2.85474205017	286.0	-295.0	283	-298	1
2.7	2015_May_18_1103	s	s	9	1	SIC	66	ABS	2	0	02VD 02VO 10VC 02MD 02MO 02MC 02RD 02RO	1	0	3.50352883339	None	None	-261	284	0
2.7	2015_May_18_1103	s	s	9	1	SIC	67	ABS	0	2	02VD 02VO 02VC 02MD 02MO 02MC 10RD 02RO	0	1	3.56225681305	None	None	None	None	1
2.7	2015_May_18_1103	s	s	9	1	SIC	68	RC	2	0	02VD 02VO 09VC 02MD 02MO 02MC 02RD 02RO	1	0	1.43100690842	-123.0	-71.0	-130	-68	1
2.7	2015_May_18_1103	s	s	9	1	SIC	69	ABS	1	0	02VD 02VO 02VC 02MD 02MO 10MC 02RD 02RO	1	0	4.33767008781	None	None	-117	-225	0
2.7	2015_May_18_1103	s	s	9	1	SIC	70	RC	1	2	02VD 02VO 02VC 09MD 02MO 02MC 02RD 02RO	1	0	1.2117099762	-251.0	-277.0	-253	-269	1
2.7	2015_May_18_1103	s	s	9	1	SIC	71	ABS	1	1	02VD 02VO 02VC 02MD 10MO 02MC 02RD 02RO	0	1	4.2097837925	None	None	None	None	1
2.7	2015_May_18_1103	s	s	9	1	SIC	72	ABS	1	2	02VD 02VO 02VC 10MD 02MO 02MC 02RD 02RO	1	0	5.78568887711	None	None	73	-213	0
2.7	2015_May_18_1103	s	s	9	1	SIC	73	ABS	0	1	02VD 02VO 02VC 02MD 02MO 02MC 02RD 10RO	0	1	5.00190496445	None	None	None	None	1
2.7	2015_May_18_1103	s	s	9	1	SIC	74	RC	1	1	02VD 02VO 02VC 02MD 09MO 02MC 02RD 02RO	1	0	4.03156304359	51.0	-315.0	48	-307	1
2.7	2015_May_18_1103	s	s	9	1	SIC	75	RC	2	1	02VD 09VO 02VC 02MD 02MO 02MC 02RD 02RO	0	1	3.14215898514	522.0	-85.0	None	None	0
2.7	2015_May_18_1103	s	s	9	1	SIC	76	ABS	2	1	02VD 10VO 02VC 02MD 02MO 02MC 02RD 02RO	0	1	3.8194270134	None	None	None	None	1
2.7	2015_May_18_1103	s	s	9	1	SIC	77	RC	1	0	02VD 02VO 02VC 02MD 02MO 09MC 02RD 02RO	1	0	4.18572592735	-306.0	-367.0	-308	-358	1
2.7	2015_May_18_1103	s	s	9	1	SIC	78	ABS	2	2	10VD 02VO 02VC 02MD 02MO 02MC 02RD 02RO	0	1	4.39659190178	None	None	None	None	1
2.7	2015_May_18_1103	s	s	9	1	SIC	79	RC	0	2	02VD 02VO 02VC 02MD 02MO 02MC 09RD 02RO	1	0	2.76045203209	-149.0	-276.0	-152	-267	1
2.7	2015_May_18_1103	s	s	9	1	SIC	80	RC	0	1	02VD 02VO 02VC 02MD 02MO 02MC 02RD 09RO	1	0	1.03310799599	249.0	-39.0	249	-30	1
2.7	2015_May_18_1103	s	s	9	1	SIC	81	RC	0	2	02VD 02VO 02VC 02MD 02MO 02MC 09RD 02RO	1	0	2.02392101288	135.0	36.0	129	44	1
2.7	2015_May_18_1103	s	s	9	1	SIC	82	ABS	2	2	10VD 02VO 02VC 02MD 02MO 02MC 02RD 02RO	0	1	2.70090293884	None	None	None	None	1
2.7	2015_May_18_1103	s	s	9	1	SIC	83	ABS	0	1	02VD 02VO 02VC 02MD 02MO 02MC 02RD 10RO	0	1	4.77824401855	None	None	None	None	1
2.7	2015_May_18_1103	s	s	9	1	SIC	84	RC	2	2	09VD 02VO 02VC 02MD 02MO 02MC 02RD 02RO	1	0	1.03037905693	15.0	62.0	9	70	1
2.7	2015_May_18_1103	s	s	9	1	SIC	85	ABS	2	1	02VD 10VO 02VC 02MD 02MO 02MC 02RD 02RO	0	1	2.56186103821	None	None	None	None	1
2.7	2015_May_18_1103	s	s	9	1	SIC	86	ABS	0	2	02VD 02VO 02VC 02MD 02MO 02MC 10RD 02RO	0	1	3.77239513397	None	None	None	None	1
2.7	2015_May_18_1103	s	s	9	1	SIC	87	RC	2	0	02VD 02VO 09VC 02MD 02MO 02MC 02RD 02RO	1	0	2.20044994354	4.0	384.0	-1	391	1
2.7	2015_May_18_1103	s	s	9	1	SIC	88	ABS	1	0	02VD 02VO 02VC 02MD 02MO 10MC 02RD 02RO	0	1	3.71428394318	None	None	None	None	1
2.7	2015_May_18_1103	s	s	9	1	SIC	89	RC	0	1	02VD 02VO 02VC 02MD 02MO 02MC 02RD 09RO	1	0	1.01163387299	45.0	-63.0	46	-59	1
2.7	2015_May_18_1103	s	s	9	1	SIC	90	ABS	1	2	02VD 02VO 02VC 10MD 02MO 02MC 02RD 02RO	0	1	3.18428492546	None	None	None	None	1
2.7	2015_May_18_1103	s	s	9	1	SIC	91	ABS	2	0	02VD 02VO 10VC 02MD 02MO 02MC 02RD 02RO	0	1	4.58780407906	None	None	None	None	1
2.7	2015_May_18_1103	s	s	9	1	SIC	92	RC	2	1	02VD 09VO 02VC 02MD 02MO 02MC 02RD 02RO	1	0	1.83079719543	336.0	-28.0	334	-20	1
2.7	2015_May_18_1103	s	s	9	1	SIC	93	RC	1	0	02VD 02VO 02VC 02MD 02MO 09MC 02RD 02RO	1	0	1.63550305367	-166.0	281.0	-169	290	1
2.7	2015_May_18_1103	s	s	9	1	SIC	94	ABS	1	1	02VD 02VO 02VC 02MD 10MO 02MC 02RD 02RO	0	1	4.20843505859	None	None	None	None	1
2.7	2015_May_18_1103	s	s	9	1	SIC	95	RC	1	2	02VD 02VO 02VC 09MD 02MO 02MC 02RD 02RO	1	0	2.46781301498	-496.0	337.0	-501	336	1
2.7	2015_May_18_1103	s	s	9	1	SIC	96	RC	1	1	02VD 02VO 02VC 02MD 09MO 02MC 02RD 02RO	1	0	2.5266559124	149.0	-146.0	143	-141	1
2.7	2015_May_18_1103	s	s	9	1	SIC	97	ABS	2	2	10VD 02VO 02VC 02MD 02MO 02MC 02RD 02RO	0	1	2.14719200134	None	None	None	None	1
2.7	2015_May_18_1103	s	s	9	1	SIC	98	ABS	1	0	02VD 02VO 02VC 02MD 02MO 10MC 02RD 02RO	0	1	3.24847197533	None	None	None	None	1
2.7	2015_May_18_1103	s	s	9	1	SIC	99	RC	2	0	02VD 02VO 09VC 02MD 02MO 02MC 02RD 02RO	1	0	2.18870687485	234.0	300.0	237	306	1
2.7	2015_May_18_1103	s	s	9	1	SIC	100	RC	2	1	02VD 09VO 02VC 02MD 02MO 02MC 02RD 02RO	1	0	1.10345005989	250.0	-83.0	244	-77	1
2.7	2015_May_18_1103	s	s	9	1	SIC	101	ABS	1	1	02VD 02VO 02VC 02MD 10MO 02MC 02RD 02RO	0	1	3.50186610222	None	None	None	None	1
2.7	2015_May_18_1103	s	s	9	1	SIC	102	RC	2	2	09VD 02VO 02VC 02MD 02MO 02MC 02RD 02RO	1	0	1.53335595131	-425.0	-79.0	-429	-76	1
2.7	2015_May_18_1103	s	s	9	1	SIC	103	RC	0	1	02VD 02VO 02VC 02MD 02MO 02MC 02RD 09RO	1	0	4.3661980629	-354.0	-373.0	-358	-364	1
2.7	2015_May_18_1103	s	s	9	1	SIC	104	ABS	2	0	02VD 02VO 10VC 02MD 02MO 02MC 02RD 02RO	1	0	2.00039291382	None	None	-396	349	0
2.7	2015_May_18_1103	s	s	9	1	SIC	105	ABS	1	2	02VD 02VO 02VC 10MD 02MO 02MC 02RD 02RO	0	1	4.35442304611	None	None	None	None	1
2.7	2015_May_18_1103	s	s	9	1	SIC	106	RC	1	1	02VD 02VO 02VC 02MD 09MO 02MC 02RD 02RO	1	0	2.30231904984	-90.0	-265.0	-361	347	0
2.7	2015_May_18_1103	s	s	9	1	SIC	107	RC	0	2	02VD 02VO 02VC 02MD 02MO 02MC 09RD 02RO	1	0	1.67067098618	436.0	40.0	435	47	1
2.7	2015_May_18_1103	s	s	9	1	SIC	108	ABS	0	2	02VD 02VO 02VC 02MD 02MO 02MC 10RD 02RO	0	1	2.89046597481	None	None	None	None	1
2.7	2015_May_18_1103	s	s	9	1	SIC	109	ABS	0	1	02VD 02VO 02VC 02MD 02MO 02MC 02RD 10RO	0	1	3.58409905434	None	None	None	None	1
2.7	2015_May_18_1103	s	s	9	1	SIC	110	RC	1	0	02VD 02VO 02VC 02MD 02MO 09MC 02RD 02RO	1	0	1.43546819687	376.0	-250.0	-113	-38	0
2.7	2015_May_18_1103	s	s	9	1	SIC	111	ABS	2	1	02VD 10VO 02VC 02MD 02MO 02MC 02RD 02RO	0	1	4.90448188782	None	None	None	None	1
2.7	2015_May_18_1103	s	s	9	1	SIC	112	RC	1	2	02VD 02VO 02VC 09MD 02MO 02MC 02RD 02RO	1	0	2.1720468998	-33.0	149.0	-39	157	1
2.7	2015_May_18_1103	s	s	9	1	SIC	113	RC	1	0	02VD 02VO 02VC 02MD 02MO 09MC 02RD 02RO	1	0	3.29081201553	185.0	-110.0	179	-101	1
2.7	2015_May_18_1103	s	s	9	1	SIC	114	RC	2	0	02VD 02VO 09VC 02MD 02MO 02MC 02RD 02RO	1	0	1.21852493286	-180.0	214.0	-178	217	1
2.7	2015_May_18_1103	s	s	9	1	SIC	115	RC	0	1	02VD 02VO 02VC 02MD 02MO 02MC 02RD 09RO	1	0	2.50149202347	468.0	151.0	466	151	1
2.7	2015_May_18_1103	s	s	9	1	SIC	116	ABS	1	2	02VD 02VO 02VC 10MD 02MO 02MC 02RD 02RO	0	1	6.03330397606	None	None	None	None	1
2.7	2015_May_18_1103	s	s	9	1	SIC	117	RC	0	2	02VD 02VO 02VC 02MD 02MO 02MC 09RD 02RO	1	0	0.948832988739	289.0	101.0	289	106	1
2.7	2015_May_18_1103	s	s	9	1	SIC	118	ABS	2	0	02VD 02VO 10VC 02MD 02MO 02MC 02RD 02RO	1	0	4.86063790321	None	None	525	-235	0
2.7	2015_May_18_1103	s	s	9	1	SIC	119	RC	2	1	02VD 09VO 02VC 02MD 02MO 02MC 02RD 02RO	1	0	1.24217700958	175.0	-316.0	172	-310	1
2.7	2015_May_18_1103	s	s	9	1	SIC	120	RC	1	1	02VD 02VO 02VC 02MD 09MO 02MC 02RD 02RO	1	0	4.48397803307	-489.0	29.0	-232	-367	0
2.7	2015_May_18_1103	s	s	9	1	SIC	121	ABS	2	1	02VD 10VO 02VC 02MD 02MO 02MC 02RD 02RO	0	1	4.35446691513	None	None	None	None	1
2.7	2015_May_18_1103	s	s	9	1	SIC	122	ABS	2	2	10VD 02VO 02VC 02MD 02MO 02MC 02RD 02RO	0	1	4.92622494698	None	None	None	None	1
2.7	2015_May_18_1103	s	s	9	1	SIC	123	ABS	0	2	02VD 02VO 02VC 02MD 02MO 02MC 10RD 02RO	1	0	2.20046901703	None	None	-530	-249	0
2.7	2015_May_18_1103	s	s	9	1	SIC	124	ABS	1	1	02VD 02VO 02VC 02MD 10MO 02MC 02RD 02RO	1	0	7.17500686646	None	None	140	273	0
2.7	2015_May_18_1103	s	s	9	1	SIC	125	ABS	0	1	02VD 02VO 02VC 02MD 02MO 02MC 02RD 10RO	0	1	4.46427202225	None	None	None	None	1
2.7	2015_May_18_1103	s	s	9	1	SIC	126	ABS	1	0	02VD 02VO 02VC 02MD 02MO 10MC 02RD 02RO	0	1	6.02102398872	None	None	None	None	1
2.7	2015_May_18_1103	s	s	9	1	SIC	127	RC	2	2	09VD 02VO 02VC 02MD 02MO 02MC 02RD 02RO	1	0	1.77389907837	-27.0	374.0	-33	383	1
2.7	2015_May_18_1103	s	s	9	1	SIC	128	RC	1	2	02VD 02VO 02VC 09MD 02MO 02MC 02RD 02RO	1	0	1.79574513435	470.0	229.0	466	237	1
2.7	2015_May_18_1103	s	s	9	1	SIC	129	ABS	1	1	02VD 02VO 02VC 02MD 10MO 02MC 02RD 02RO	0	1	4.09068489075	None	None	None	None	1
2.7	2015_May_18_1103	s	s	9	1	SIC	130	RC	2	1	02VD 09VO 02VC 02MD 02MO 02MC 02RD 02RO	1	0	3.86013102531	224.0	-123.0	225	-122	1
2.7	2015_May_18_1103	s	s	9	1	SIC	131	RC	1	2	02VD 02VO 02VC 09MD 02MO 02MC 02RD 02RO	1	0	1.91438984871	-243.0	63.0	-248	72	1
2.7	2015_May_18_1103	s	s	9	1	SIC	132	RC	1	1	02VD 02VO 02VC 02MD 09MO 02MC 02RD 02RO	1	0	3.60808992386	537.0	-322.0	533	-314	1
2.7	2015_May_18_1103	s	s	9	1	SIC	133	ABS	2	1	02VD 10VO 02VC 02MD 02MO 02MC 02RD 02RO	0	1	4.44365000725	None	None	None	None	1
2.7	2015_May_18_1103	s	s	9	1	SIC	134	ABS	0	2	02VD 02VO 02VC 02MD 02MO 02MC 10RD 02RO	0	1	2.83122396469	None	None	None	None	1
2.7	2015_May_18_1103	s	s	9	1	SIC	135	RC	2	2	09VD 02VO 02VC 02MD 02MO 02MC 02RD 02RO	1	0	2.63638401031	-187.0	-344.0	-193	-338	1
2.7	2015_May_18_1103	s	s	9	1	SIC	136	ABS	2	2	10VD 02VO 02VC 02MD 02MO 02MC 02RD 02RO	0	1	7.46893501282	None	None	None	None	1
2.7	2015_May_18_1103	s	s	9	1	SIC	137	ABS	1	2	02VD 02VO 02VC 10MD 02MO 02MC 02RD 02RO	0	1	2.77714896202	None	None	None	None	1
2.7	2015_May_18_1103	s	s	9	1	SIC	138	RC	1	0	02VD 02VO 02VC 02MD 02MO 09MC 02RD 02RO	1	0	2.68983983994	-232.0	-195.0	-231	-190	1
2.7	2015_May_18_1103	s	s	9	1	SIC	139	ABS	1	0	02VD 02VO 02VC 02MD 02MO 10MC 02RD 02RO	0	1	4.5848941803	None	None	None	None	1
2.7	2015_May_18_1103	s	s	9	1	SIC	140	RC	0	1	02VD 02VO 02VC 02MD 02MO 02MC 02RD 09RO	1	0	2.53703999519	-216.0	403.0	-222	408	1
2.7	2015_May_18_1103	s	s	9	1	SIC	141	RC	2	0	02VD 02VO 09VC 02MD 02MO 02MC 02RD 02RO	1	0	1.73657011986	263.0	70.0	257	75	1
2.7	2015_May_18_1103	s	s	9	1	SIC	142	ABS	0	1	02VD 02VO 02VC 02MD 02MO 02MC 02RD 10RO	0	1	3.86376094818	None	None	None	None	1
2.7	2015_May_18_1103	s	s	9	1	SIC	143	ABS	2	0	02VD 02VO 10VC 02MD 02MO 02MC 02RD 02RO	1	0	2.68928003311	None	None	468	2	0
2.7	2015_May_18_1103	s	s	9	1	SIC	144	RC	0	2	02VD 02VO 02VC 02MD 02MO 02MC 09RD 02RO	1	0	2.4072329998	-286.0	43.0	-293	50	1
2.7	2015_May_18_1103	s	s	9	1	SIC	145	RC	1	0	02VD 02VO 02VC 02MD 02MO 09MC 02RD 02RO	1	0	2.4475748539	-415.0	-246.0	-415	-241	1
2.7	2015_May_18_1103	s	s	9	1	SIC	146	RC	0	1	02VD 02VO 02VC 02MD 02MO 02MC 02RD 09RO	1	0	4.92799186707	91.0	-326.0	87	-317	1
2.7	2015_May_18_1103	s	s	9	1	SIC	147	ABS	1	1	02VD 02VO 02VC 02MD 10MO 02MC 02RD 02RO	0	1	4.58701920509	None	None	None	None	1
2.7	2015_May_18_1103	s	s	9	1	SIC	148	ABS	0	2	02VD 02VO 02VC 02MD 02MO 02MC 10RD 02RO	0	1	2.96066498756	None	None	None	None	1
2.7	2015_May_18_1103	s	s	9	1	SIC	149	RC	1	2	02VD 02VO 02VC 09MD 02MO 02MC 02RD 02RO	1	0	3.27849316597	445.0	-397.0	442	-390	1
2.7	2015_May_18_1103	s	s	9	1	SIC	150	RC	1	1	02VD 02VO 02VC 02MD 09MO 02MC 02RD 02RO	1	0	1.25883984566	-298.0	61.0	-302	66	1
2.7	2015_May_18_1103	s	s	9	1	SIC	151	RC	2	2	09VD 02VO 02VC 02MD 02MO 02MC 02RD 02RO	1	0	1.58848595619	378.0	-67.0	373	-59	1
2.7	2015_May_18_1103	s	s	9	1	SIC	152	ABS	2	2	10VD 02VO 02VC 02MD 02MO 02MC 02RD 02RO	1	0	0.764472007751	None	None	116	11	0
2.7	2015_May_18_1103	s	s	9	1	SIC	153	ABS	1	2	02VD 02VO 02VC 10MD 02MO 02MC 02RD 02RO	1	0	5.39709019661	None	None	-417	-296	0
2.7	2015_May_18_1103	s	s	9	1	SIC	154	ABS	2	0	02VD 02VO 10VC 02MD 02MO 02MC 02RD 02RO	0	1	3.05486297607	None	None	None	None	1
2.7	2015_May_18_1103	s	s	9	1	SIC	155	ABS	1	0	02VD 02VO 02VC 02MD 02MO 10MC 02RD 02RO	0	1	3.76098108292	None	None	None	None	1
2.7	2015_May_18_1103	s	s	9	1	SIC	156	RC	2	1	02VD 09VO 02VC 02MD 02MO 02MC 02RD 02RO	1	0	1.76002597809	516.0	-131.0	512	-127	1
2.7	2015_May_18_1103	s	s	9	1	SIC	157	ABS	0	1	02VD 02VO 02VC 02MD 02MO 02MC 02RD 10RO	0	1	4.46717000008	None	None	None	None	1
2.7	2015_May_18_1103	s	s	9	1	SIC	158	RC	2	0	02VD 02VO 09VC 02MD 02MO 02MC 02RD 02RO	1	0	1.51281785965	-317.0	333.0	-92	-129	0
2.7	2015_May_18_1103	s	s	9	1	SIC	159	ABS	2	1	02VD 10VO 02VC 02MD 02MO 02MC 02RD 02RO	1	0	2.05413889885	None	None	-222	317	0
2.7	2015_May_18_1103	s	s	9	1	SIC	160	RC	0	2	02VD 02VO 02VC 02MD 02MO 02MC 09RD 02RO	1	0	1.18816304207	-380.0	60.0	-382	67	1
2.7	2015_May_18_1103	s	s	9	1	SIC	161	RC	1	0	02VD 02VO 02VC 02MD 02MO 09MC 02RD 02RO	1	0	1.7480430603	213.0	143.0	210	149	1
2.7	2015_May_18_1103	s	s	9	1	SIC	162	ABS	1	2	02VD 02VO 02VC 10MD 02MO 02MC 02RD 02RO	0	1	2.54870009422	None	None	None	None	1
2.7	2015_May_18_1103	s	s	9	1	SIC	163	ABS	0	1	02VD 02VO 02VC 02MD 02MO 02MC 02RD 10RO	0	1	3.64870095253	None	None	None	None	1
2.7	2015_May_18_1103	s	s	9	1	SIC	164	RC	2	1	02VD 09VO 02VC 02MD 02MO 02MC 02RD 02RO	1	0	2.15332007408	-426.0	-68.0	-432	-64	1
2.7	2015_May_18_1103	s	s	9	1	SIC	165	RC	0	1	02VD 02VO 02VC 02MD 02MO 02MC 02RD 09RO	1	0	1.51290297508	-356.0	-73.0	-362	-70	1
2.7	2015_May_18_1103	s	s	9	1	SIC	166	ABS	0	2	02VD 02VO 02VC 02MD 02MO 02MC 10RD 02RO	0	1	3.39635682106	None	None	None	None	1
2.7	2015_May_18_1103	s	s	9	1	SIC	167	ABS	2	0	02VD 02VO 10VC 02MD 02MO 02MC 02RD 02RO	0	1	2.48963999748	None	None	None	None	1
2.7	2015_May_18_1103	s	s	9	1	SIC	168	RC	2	0	02VD 02VO 09VC 02MD 02MO 02MC 02RD 02RO	1	0	1.24748396873	-242.0	337.0	-246	344	1
2.7	2015_May_18_1103	s	s	9	1	SIC	169	RC	1	2	02VD 02VO 02VC 09MD 02MO 02MC 02RD 02RO	1	0	1.35296106339	-507.0	3.0	-513	8	1
2.7	2015_May_18_1103	s	s	9	1	SIC	170	ABS	2	2	10VD 02VO 02VC 02MD 02MO 02MC 02RD 02RO	0	1	2.36041688919	None	None	None	None	1
2.7	2015_May_18_1103	s	s	9	1	SIC	171	ABS	2	1	02VD 10VO 02VC 02MD 02MO 02MC 02RD 02RO	0	1	2.7394900322	None	None	None	None	1
2.7	2015_May_18_1103	s	s	9	1	SIC	172	RC	0	2	02VD 02VO 02VC 02MD 02MO 02MC 09RD 02RO	1	0	2.96559286118	-155.0	-225.0	27	-82	0
2.7	2015_May_18_1103	s	s	9	1	SIC	173	ABS	1	0	02VD 02VO 02VC 02MD 02MO 10MC 02RD 02RO	0	1	9.82769703865	None	None	None	None	1
2.7	2015_May_18_1103	s	s	9	1	SIC	174	RC	1	1	02VD 02VO 02VC 02MD 09MO 02MC 02RD 02RO	1	0	3.61938691139	69.0	-354.0	77	-348	1
2.7	2015_May_18_1103	s	s	9	1	SIC	175	ABS	1	1	02VD 02VO 02VC 02MD 10MO 02MC 02RD 02RO	0	1	3.91398215294	None	None	None	None	1
2.7	2015_May_18_1103	s	s	9	1	SIC	176	RC	2	2	09VD 02VO 02VC 02MD 02MO 02MC 02RD 02RO	1	0	1.8826880455	319.0	163.0	315	169	1
2.7	2015_May_18_1103	s	s	9	1	SIC	177	ABS	2	1	02VD 10VO 02VC 02MD 02MO 02MC 02RD 02RO	0	1	2.57719302177	None	None	None	None	1
2.7	2015_May_18_1103	s	s	9	1	SIC	178	RC	1	0	02VD 02VO 02VC 02MD 02MO 09MC 02RD 02RO	1	0	1.9061050415	-435.0	61.0	-440	67	1
2.7	2015_May_18_1103	s	s	9	1	SIC	179	ABS	1	0	02VD 02VO 02VC 02MD 02MO 10MC 02RD 02RO	0	1	4.42508482933	None	None	None	None	1
2.7	2015_May_18_1103	s	s	9	1	SIC	180	RC	0	1	02VD 02VO 02VC 02MD 02MO 02MC 02RD 09RO	1	0	1.48928785324	-81.0	179.0	-77	183	1
2.7	2015_May_18_1103	s	s	9	1	SIC	181	ABS	0	1	02VD 02VO 02VC 02MD 02MO 02MC 02RD 10RO	0	1	3.62469100952	None	None	None	None	1
2.7	2015_May_18_1103	s	s	9	1	SIC	182	RC	0	2	02VD 02VO 02VC 02MD 02MO 02MC 09RD 02RO	1	0	1.55996894836	215.0	-146.0	213	-140	1
2.7	2015_May_18_1103	s	s	9	1	SIC	183	ABS	2	0	02VD 02VO 10VC 02MD 02MO 02MC 02RD 02RO	1	0	1.92971301079	None	None	-253	-17	0
2.7	2015_May_18_1103	s	s	9	1	SIC	184	RC	1	1	02VD 02VO 02VC 02MD 09MO 02MC 02RD 02RO	1	0	1.24475002289	-258.0	-205.0	-261	-196	1
2.7	2015_May_18_1103	s	s	9	1	SIC	185	RC	2	2	09VD 02VO 02VC 02MD 02MO 02MC 02RD 02RO	1	0	1.66806292534	-448.0	-318.0	-444	-323	1
2.7	2015_May_18_1103	s	s	9	1	SIC	186	ABS	1	1	02VD 02VO 02VC 02MD 10MO 02MC 02RD 02RO	1	0	1.11758899689	None	None	-306	110	0
2.7	2015_May_18_1103	s	s	9	1	SIC	187	RC	1	2	02VD 02VO 02VC 09MD 02MO 02MC 02RD 02RO	1	0	2.47118401527	-482.0	-171.0	-482	-168	1
2.7	2015_May_18_1103	s	s	9	1	SIC	188	RC	2	1	02VD 09VO 02VC 02MD 02MO 02MC 02RD 02RO	1	0	2.9067158699	-261.0	-84.0	-267	-75	1
2.7	2015_May_18_1103	s	s	9	1	SIC	189	RC	2	0	02VD 02VO 09VC 02MD 02MO 02MC 02RD 02RO	1	0	2.36080980301	183.0	-261.0	57	-183	0
2.7	2015_May_18_1103	s	s	9	1	SIC	190	ABS	1	2	02VD 02VO 02VC 10MD 02MO 02MC 02RD 02RO	0	1	3.44012403488	None	None	None	None	1
2.7	2015_May_18_1103	s	s	9	1	SIC	191	ABS	2	2	10VD 02VO 02VC 02MD 02MO 02MC 02RD 02RO	1	0	2.44250917435	None	None	225	99	0
2.7	2015_May_18_1103	s	s	9	1	SIC	192	ABS	0	2	02VD 02VO 02VC 02MD 02MO 02MC 10RD 02RO	0	1	2.78463983536	None	None	None	None	1
2.7	2015_May_18_1103	s	s	9	1	SIC	193	ABS	2	1	02VD 10VO 02VC 02MD 02MO 02MC 02RD 02RO	1	0	2.48306584358	None	None	386	192	0
2.7	2015_May_18_1103	s	s	9	1	SIC	194	RC	0	1	02VD 02VO 02VC 02MD 02MO 02MC 02RD 09RO	1	0	3.47175192833	-72.0	-183.0	-77	-175	1
2.7	2015_May_18_1103	s	s	9	1	SIC	195	ABS	2	0	02VD 02VO 10VC 02MD 02MO 02MC 02RD 02RO	1	0	1.08223891258	None	None	70	-55	0
2.7	2015_May_18_1103	s	s	9	1	SIC	196	RC	2	1	02VD 09VO 02VC 02MD 02MO 02MC 02RD 02RO	1	0	1.23080897331	-32.0	-11.0	164	48	0
2.7	2015_May_18_1103	s	s	9	1	SIC	197	RC	2	2	09VD 02VO 02VC 02MD 02MO 02MC 02RD 02RO	1	0	2.43090701103	87.0	-302.0	82	-299	1
2.7	2015_May_18_1103	s	s	9	1	SIC	198	ABS	2	2	10VD 02VO 02VC 02MD 02MO 02MC 02RD 02RO	0	1	2.86631894112	None	None	None	None	1
2.7	2015_May_18_1103	s	s	9	1	SIC	199	ABS	0	1	02VD 02VO 02VC 02MD 02MO 02MC 02RD 10RO	0	1	5.40211606026	None	None	None	None	1
2.7	2015_May_18_1103	s	s	9	1	SIC	200	ABS	1	0	02VD 02VO 02VC 02MD 02MO 10MC 02RD 02RO	0	1	3.37797379494	None	None	None	None	1
2.7	2015_May_18_1103	s	s	9	1	SIC	201	RC	1	2	02VD 02VO 02VC 09MD 02MO 02MC 02RD 02RO	1	0	1.71265506744	271.0	-221.0	268	-213	1
2.7	2015_May_18_1103	s	s	9	1	SIC	202	RC	1	1	02VD 02VO 02VC 02MD 09MO 02MC 02RD 02RO	1	0	0.995002985001	112.0	-42.0	109	-40	1
2.7	2015_May_18_1103	s	s	9	1	SIC	203	RC	1	0	02VD 02VO 02VC 02MD 02MO 09MC 02RD 02RO	1	0	3.73066401482	-142.0	324.0	-146	332	1
2.7	2015_May_18_1103	s	s	9	1	SIC	204	ABS	1	1	02VD 02VO 02VC 02MD 10MO 02MC 02RD 02RO	0	1	2.50180315971	None	None	None	None	1
2.7	2015_May_18_1103	s	s	9	1	SIC	205	RC	0	2	02VD 02VO 02VC 02MD 02MO 02MC 09RD 02RO	1	0	1.14109516144	-47.0	32.0	-52	40	1
2.7	2015_May_18_1103	s	s	9	1	SIC	206	ABS	0	2	02VD 02VO 02VC 02MD 02MO 02MC 10RD 02RO	0	1	2.53676199913	None	None	None	None	1
2.7	2015_May_18_1103	s	s	9	1	SIC	207	ABS	1	2	02VD 02VO 02VC 10MD 02MO 02MC 02RD 02RO	0	1	2.25434303284	None	None	None	None	1
2.7	2015_May_18_1103	s	s	9	1	SIC	208	RC	2	0	02VD 02VO 09VC 02MD 02MO 02MC 02RD 02RO	1	0	2.29465103149	-109.0	-320.0	-113	-315	1
2.7	2015_May_18_1103	s	s	9	1	SIC	209	RC	1	2	02VD 02VO 02VC 09MD 02MO 02MC 02RD 02RO	1	0	2.20792508125	442.0	292.0	436	296	1
2.7	2015_May_18_1103	s	s	9	1	SIC	210	ABS	1	0	02VD 02VO 02VC 02MD 02MO 10MC 02RD 02RO	1	0	2.55379605293	None	None	-485	6	0
2.7	2015_May_18_1103	s	s	9	1	SIC	211	ABS	0	1	02VD 02VO 02VC 02MD 02MO 02MC 02RD 10RO	0	1	3.44260311127	None	None	None	None	1
2.7	2015_May_18_1103	s	s	9	1	SIC	212	RC	1	1	02VD 02VO 02VC 02MD 09MO 02MC 02RD 02RO	1	0	1.23021101952	-28.0	166.0	-32	175	1
2.7	2015_May_18_1103	s	s	9	1	SIC	213	ABS	1	2	02VD 02VO 02VC 10MD 02MO 02MC 02RD 02RO	0	1	2.61952400208	None	None	None	None	1
2.7	2015_May_18_1103	s	s	9	1	SIC	214	ABS	0	2	02VD 02VO 02VC 02MD 02MO 02MC 10RD 02RO	0	1	2.27835488319	None	None	None	None	1
2.7	2015_May_18_1103	s	s	9	1	SIC	215	ABS	2	2	10VD 02VO 02VC 02MD 02MO 02MC 02RD 02RO	0	1	4.63252902031	None	None	None	None	1
2.7	2015_May_18_1103	s	s	9	1	SIC	216	ABS	2	0	02VD 02VO 10VC 02MD 02MO 02MC 02RD 02RO	1	0	2.89528489113	None	None	221	-372	0
2.7	2015_May_18_1103	s	s	9	1	SIC	217	RC	2	2	09VD 02VO 02VC 02MD 02MO 02MC 02RD 02RO	1	0	1.25399494171	453.0	163.0	446	167	1
2.7	2015_May_18_1103	s	s	9	1	SIC	218	RC	2	1	02VD 09VO 02VC 02MD 02MO 02MC 02RD 02RO	1	0	4.61717987061	-447.0	361.0	-453	369	1
2.7	2015_May_18_1103	s	s	9	1	SIC	219	RC	0	1	02VD 02VO 02VC 02MD 02MO 02MC 02RD 09RO	1	0	3.20774006844	480.0	-113.0	481	-107	1
2.7	2015_May_18_1103	s	s	9	1	SIC	220	RC	1	0	02VD 02VO 02VC 02MD 02MO 09MC 02RD 02RO	0	1	4.07874107361	-211.0	-256.0	None	None	0
2.7	2015_May_18_1103	s	s	9	1	SIC	221	RC	2	0	02VD 02VO 09VC 02MD 02MO 02MC 02RD 02RO	1	0	0.964334964752	211.0	164.0	208	168	1
2.7	2015_May_18_1103	s	s	9	1	SIC	222	RC	0	2	02VD 02VO 02VC 02MD 02MO 02MC 09RD 02RO	1	0	1.41832995415	-490.0	91.0	-490	96	1
2.7	2015_May_18_1103	s	s	9	1	SIC	223	ABS	2	1	02VD 10VO 02VC 02MD 02MO 02MC 02RD 02RO	0	1	3.01010417938	None	None	None	None	1
2.7	2015_May_18_1103	s	s	9	1	SIC	224	ABS	1	1	02VD 02VO 02VC 02MD 10MO 02MC 02RD 02RO	0	1	3.33691287041	None	None	None	None	1
2.7	2015_May_18_1103	s	s	9	1	SIC	225	RC	2	0	02VD 02VO 09VC 02MD 02MO 02MC 02RD 02RO	1	0	2.54882097244	296.0	-343.0	291	-338	1
2.7	2015_May_18_1103	s	s	9	1	SIC	226	ABS	1	0	02VD 02VO 02VC 02MD 02MO 10MC 02RD 02RO	0	1	3.76599121094	None	None	None	None	1
2.7	2015_May_18_1103	s	s	9	1	SIC	227	ABS	2	1	02VD 10VO 02VC 02MD 02MO 02MC 02RD 02RO	0	1	2.76543188095	None	None	None	None	1
2.7	2015_May_18_1103	s	s	9	1	SIC	228	RC	2	1	02VD 09VO 02VC 02MD 02MO 02MC 02RD 02RO	1	0	1.77119994164	352.0	-46.0	346	-38	1
2.7	2015_May_18_1103	s	s	9	1	SIC	229	ABS	0	1	02VD 02VO 02VC 02MD 02MO 02MC 02RD 10RO	0	1	4.3041779995	None	None	None	None	1
2.7	2015_May_18_1103	s	s	9	1	SIC	230	RC	0	2	02VD 02VO 02VC 02MD 02MO 02MC 09RD 02RO	1	0	1.80027914047	245.0	297.0	243	303	1
2.7	2015_May_18_1103	s	s	9	1	SIC	231	ABS	1	2	02VD 02VO 02VC 10MD 02MO 02MC 02RD 02RO	1	0	3.77402710915	None	None	-154	-175	0
2.7	2015_May_18_1103	s	s	9	1	SIC	232	RC	1	0	02VD 02VO 02VC 02MD 02MO 09MC 02RD 02RO	1	0	3.1280579567	388.0	28.0	389	34	1
2.7	2015_May_18_1103	s	s	9	1	SIC	233	ABS	1	1	02VD 02VO 02VC 02MD 10MO 02MC 02RD 02RO	0	1	8.332914114	None	None	None	None	1
2.7	2015_May_18_1103	s	s	9	1	SIC	234	RC	1	2	02VD 02VO 02VC 09MD 02MO 02MC 02RD 02RO	1	0	2.10631608963	-98.0	4.0	-106	10	1
2.7	2015_May_18_1103	s	s	9	1	SIC	235	RC	2	2	09VD 02VO 02VC 02MD 02MO 02MC 02RD 02RO	1	0	1.17646098137	-498.0	213.0	-498	219	1
2.7	2015_May_18_1103	s	s	9	1	SIC	236	RC	0	1	02VD 02VO 02VC 02MD 02MO 02MC 02RD 09RO	1	0	2.71856689453	-155.0	402.0	-158	410	1
2.7	2015_May_18_1103	s	s	9	1	SIC	237	ABS	0	2	02VD 02VO 02VC 02MD 02MO 02MC 10RD 02RO	0	1	1.98285698891	None	None	None	None	1
2.7	2015_May_18_1103	s	s	9	1	SIC	238	ABS	2	2	10VD 02VO 02VC 02MD 02MO 02MC 02RD 02RO	0	1	2.31819987297	None	None	None	None	1
2.7	2015_May_18_1103	s	s	9	1	SIC	239	RC	1	1	02VD 02VO 02VC 02MD 09MO 02MC 02RD 02RO	1	0	1.6190328598	7.0	-249.0	-2	-247	1
2.7	2015_May_18_1103	s	s	9	1	SIC	240	ABS	2	0	02VD 02VO 10VC 02MD 02MO 02MC 02RD 02RO	0	1	3.29033708572	None	None	None	None	1
2.7	2015_May_18_1103	s	s	9	1	SIC	241	RC	1	2	02VD 02VO 02VC 09MD 02MO 02MC 02RD 02RO	0	1	2.87807393074	399.0	-274.0	None	None	0
2.7	2015_May_18_1103	s	s	9	1	SIC	242	RC	2	1	02VD 09VO 02VC 02MD 02MO 02MC 02RD 02RO	0	1	2.11803603172	165.0	49.0	None	None	0
2.7	2015_May_18_1103	s	s	9	1	SIC	243	ABS	1	2	02VD 02VO 02VC 10MD 02MO 02MC 02RD 02RO	0	1	1.71321821213	None	None	None	None	1
2.7	2015_May_18_1103	s	s	9	1	SIC	244	ABS	2	1	02VD 10VO 02VC 02MD 02MO 02MC 02RD 02RO	0	1	1.85912895203	None	None	None	None	1
2.7	2015_May_18_1103	s	s	9	1	SIC	245	RC	0	1	02VD 02VO 02VC 02MD 02MO 02MC 02RD 09RO	0	1	3.50697994232	-170.0	289.0	None	None	0
2.7	2015_May_18_1103	s	s	9	1	SIC	246	ABS	0	1	02VD 02VO 02VC 02MD 02MO 02MC 02RD 10RO	0	1	2.71357107162	None	None	None	None	1
2.7	2015_May_18_1103	s	s	9	1	SIC	247	RC	1	0	02VD 02VO 02VC 02MD 02MO 09MC 02RD 02RO	0	1	3.3516960144	-369.0	92.0	None	None	0
2.7	2015_May_18_1103	s	s	9	1	SIC	248	ABS	2	2	10VD 02VO 02VC 02MD 02MO 02MC 02RD 02RO	0	1	2.00075101852	None	None	None	None	1
2.7	2015_May_18_1103	s	s	9	1	SIC	249	ABS	1	1	02VD 02VO 02VC 02MD 10MO 02MC 02RD 02RO	0	1	2.58387517929	None	None	None	None	1
2.7	2015_May_18_1103	s	s	9	1	SIC	250	RC	2	0	02VD 02VO 09VC 02MD 02MO 02MC 02RD 02RO	0	1	1.39509916306	-99.0	91.0	None	None	0
2.7	2015_May_18_1103	s	s	9	1	SIC	251	RC	1	1	02VD 02VO 02VC 02MD 09MO 02MC 02RD 02RO	1	0	1.95951199532	-159.0	-128.0	-159	-124	1
2.7	2015_May_18_1103	s	s	9	1	SIC	252	RC	2	2	09VD 02VO 02VC 02MD 02MO 02MC 02RD 02RO	0	1	1.63059806824	-322.0	94.0	None	None	0
2.7	2015_May_18_1103	s	s	9	1	SIC	253	ABS	2	0	02VD 02VO 10VC 02MD 02MO 02MC 02RD 02RO	0	1	2.10636591911	None	None	None	None	1
2.7	2015_May_18_1103	s	s	9	1	SIC	254	RC	0	2	02VD 02VO 02VC 02MD 02MO 02MC 09RD 02RO	1	0	1.41178202629	-82.0	253.0	-87	261	1
2.7	2015_May_18_1103	s	s	9	1	SIC	255	ABS	1	0	02VD 02VO 02VC 02MD 02MO 10MC 02RD 02RO	0	1	2.32983922958	None	None	None	None	1
2.7	2015_May_18_1103	s	s	9	1	SIC	256	ABS	0	2	02VD 02VO 02VC 02MD 02MO 02MC 10RD 02RO	0	1	2.61243891716	None	None	None	None	1
2.7	2015_May_18_1103	s	s	9	1	SIC	257	RC	1	0	02VD 02VO 02VC 02MD 02MO 09MC 02RD 02RO	1	0	1.92971110344	528.0	210.0	526	215	1
2.7	2015_May_18_1103	s	s	9	1	SIC	258	ABS	1	2	02VD 02VO 02VC 10MD 02MO 02MC 02RD 02RO	0	1	1.70119309425	None	None	None	None	1
2.7	2015_May_18_1103	s	s	9	1	SIC	259	ABS	2	2	10VD 02VO 02VC 02MD 02MO 02MC 02RD 02RO	0	1	1.91487312317	None	None	None	None	1
2.7	2015_May_18_1103	s	s	9	1	SIC	260	ABS	1	0	02VD 02VO 02VC 02MD 02MO 10MC 02RD 02RO	0	1	2.35345983505	None	None	None	None	1
2.7	2015_May_18_1103	s	s	9	1	SIC	261	RC	1	2	02VD 02VO 02VC 09MD 02MO 02MC 02RD 02RO	1	0	1.74143195152	-218.0	161.0	-221	170	1
2.7	2015_May_18_1103	s	s	9	1	SIC	262	ABS	2	0	02VD 02VO 10VC 02MD 02MO 02MC 02RD 02RO	0	1	1.98355603218	None	None	None	None	1
2.7	2015_May_18_1103	s	s	9	1	SIC	263	ABS	2	1	02VD 10VO 02VC 02MD 02MO 02MC 02RD 02RO	0	1	1.58448696136	None	None	None	None	1
2.7	2015_May_18_1103	s	s	9	1	SIC	264	RC	2	1	02VD 09VO 02VC 02MD 02MO 02MC 02RD 02RO	1	0	1.48954391479	-501.0	9.0	-502	14	1
2.7	2015_May_18_1103	s	s	9	1	SIC	265	ABS	0	1	02VD 02VO 02VC 02MD 02MO 02MC 02RD 10RO	0	1	3.76252293587	None	None	None	None	1
2.7	2015_May_18_1103	s	s	9	1	SIC	266	RC	0	1	02VD 02VO 02VC 02MD 02MO 02MC 02RD 09RO	1	0	2.35349607468	-184.0	284.0	-188	290	1
2.7	2015_May_18_1103	s	s	9	1	SIC	267	ABS	0	2	02VD 02VO 02VC 02MD 02MO 02MC 10RD 02RO	0	1	2.22810792923	None	None	None	None	1
2.7	2015_May_18_1103	s	s	9	1	SIC	268	RC	2	2	09VD 02VO 02VC 02MD 02MO 02MC 02RD 02RO	1	0	1.58839201927	-536.0	-302.0	-539	-299	1
2.7	2015_May_18_1103	s	s	9	1	SIC	269	RC	1	1	02VD 02VO 02VC 02MD 09MO 02MC 02RD 02RO	1	0	1.30593395233	-209.0	288.0	-210	297	1
2.7	2015_May_18_1103	s	s	9	1	SIC	270	RC	2	0	02VD 02VO 09VC 02MD 02MO 02MC 02RD 02RO	1	0	2.12988495827	451.0	-9.0	446	-4	1
2.7	2015_May_18_1103	s	s	9	1	SIC	271	ABS	1	1	02VD 02VO 02VC 02MD 10MO 02MC 02RD 02RO	0	1	2.48296308517	None	None	None	None	1
2.7	2015_May_18_1103	s	s	9	1	SIC	272	RC	0	2	02VD 02VO 02VC 02MD 02MO 02MC 09RD 02RO	1	0	3.00762104988	-17.0	-207.0	-22	-201	1
2.7	2015_May_18_1103	s	s	9	1	SIC	273	ABS	1	0	02VD 02VO 02VC 02MD 02MO 10MC 02RD 02RO	0	1	3.93815207481	None	None	None	None	1
2.7	2015_May_18_1103	s	s	9	1	SIC	274	ABS	1	2	02VD 02VO 02VC 10MD 02MO 02MC 02RD 02RO	0	1	2.56033205986	None	None	None	None	1
2.7	2015_May_18_1103	s	s	9	1	SIC	275	ABS	1	1	02VD 02VO 02VC 02MD 10MO 02MC 02RD 02RO	0	1	4.59637904167	None	None	None	None	1
2.7	2015_May_18_1103	s	s	9	1	SIC	276	RC	1	2	02VD 02VO 02VC 09MD 02MO 02MC 02RD 02RO	1	0	3.33744907379	27.0	-378.0	-485	-304	0
2.7	2015_May_18_1103	s	s	9	1	SIC	277	RC	2	1	02VD 09VO 02VC 02MD 02MO 02MC 02RD 02RO	1	0	2.12987112999	-158.0	-259.0	-160	-251	1
2.7	2015_May_18_1103	s	s	9	1	SIC	278	RC	1	1	02VD 02VO 02VC 02MD 09MO 02MC 02RD 02RO	1	0	2.82193899155	141.0	-399.0	142	-392	1
2.7	2015_May_18_1103	s	s	9	1	SIC	279	RC	0	1	02VD 02VO 02VC 02MD 02MO 02MC 02RD 09RO	1	0	2.43104290962	-347.0	71.0	-350	77	1
2.7	2015_May_18_1103	s	s	9	1	SIC	280	RC	1	0	02VD 02VO 02VC 02MD 02MO 09MC 02RD 02RO	1	0	2.28827595711	-418.0	256.0	-425	263	1
2.7	2015_May_18_1103	s	s	9	1	SIC	281	ABS	0	2	02VD 02VO 02VC 02MD 02MO 02MC 10RD 02RO	0	1	2.38396716118	None	None	None	None	1
2.7	2015_May_18_1103	s	s	9	1	SIC	282	RC	0	2	02VD 02VO 02VC 02MD 02MO 02MC 09RD 02RO	1	0	1.99510908127	299.0	-1.0	293	7	1
2.7	2015_May_18_1103	s	s	9	1	SIC	283	RC	2	0	02VD 02VO 09VC 02MD 02MO 02MC 02RD 02RO	1	0	1.11761403084	-491.0	208.0	-493	217	1
2.7	2015_May_18_1103	s	s	9	1	SIC	284	ABS	0	1	02VD 02VO 02VC 02MD 02MO 02MC 02RD 10RO	0	1	3.24806880951	None	None	None	None	1
2.7	2015_May_18_1103	s	s	9	1	SIC	285	ABS	2	1	02VD 10VO 02VC 02MD 02MO 02MC 02RD 02RO	0	1	1.98535203934	None	None	None	None	1
2.7	2015_May_18_1103	s	s	9	1	SIC	286	RC	2	2	09VD 02VO 02VC 02MD 02MO 02MC 02RD 02RO	1	0	0.850593090057	-71.0	252.0	-75	261	1
2.7	2015_May_18_1103	s	s	9	1	SIC	287	ABS	2	2	10VD 02VO 02VC 02MD 02MO 02MC 02RD 02RO	0	1	2.08932995796	None	None	None	None	1
2.7	2015_May_18_1103	s	s	9	1	SIC	288	ABS	2	0	02VD 02VO 10VC 02MD 02MO 02MC 02RD 02RO	0	1	2.14842391014	None	None	None	None	1
2.7	2015_May_18_1103	s	s	9	1	SIC	289	ABS	0	1	02VD 02VO 02VC 02MD 02MO 02MC 02RD 10RO	0	1	3.56965208054	None	None	None	None	1
2.7	2015_May_18_1103	s	s	9	1	SIC	290	ABS	1	2	02VD 02VO 02VC 10MD 02MO 02MC 02RD 02RO	1	0	1.80067896843	None	None	-325	-263	0
2.7	2015_May_18_1103	s	s	9	1	SIC	291	ABS	1	0	02VD 02VO 02VC 02MD 02MO 10MC 02RD 02RO	1	0	3.08312702179	None	None	467	-170	0
2.7	2015_May_18_1103	s	s	9	1	SIC	292	RC	1	0	02VD 02VO 02VC 02MD 02MO 09MC 02RD 02RO	1	0	1.41888999939	139.0	-93.0	-219	102	0
2.7	2015_May_18_1103	s	s	9	1	SIC	293	ABS	2	1	02VD 10VO 02VC 02MD 02MO 02MC 02RD 02RO	1	0	4.76151585579	None	None	356	-361	0
2.7	2015_May_18_1103	s	s	9	1	SIC	294	RC	0	2	02VD 02VO 02VC 02MD 02MO 02MC 09RD 02RO	1	0	1.34918689728	-405.0	242.0	-405	247	1
2.7	2015_May_18_1103	s	s	9	1	SIC	295	ABS	1	1	02VD 02VO 02VC 02MD 10MO 02MC 02RD 02RO	0	1	3.91896295547	None	None	None	None	1
2.7	2015_May_18_1103	s	s	9	1	SIC	296	ABS	2	0	02VD 02VO 10VC 02MD 02MO 02MC 02RD 02RO	1	0	2.95376586914	None	None	503	97	0
2.7	2015_May_18_1103	s	s	9	1	SIC	297	RC	1	1	02VD 02VO 02VC 02MD 09MO 02MC 02RD 02RO	1	0	1.8055331707	-83.0	-348.0	-87	-340	1
2.7	2015_May_18_1103	s	s	9	1	SIC	298	RC	2	0	02VD 02VO 09VC 02MD 02MO 02MC 02RD 02RO	1	0	2.46351504326	510.0	344.0	501	352	1
2.7	2015_May_18_1103	s	s	9	1	SIC	299	RC	2	2	09VD 02VO 02VC 02MD 02MO 02MC 02RD 02RO	1	0	1.34484910965	-52.0	-169.0	-57	-163	1
2.7	2015_May_18_1103	s	s	9	1	SIC	300	RC	1	2	02VD 02VO 02VC 09MD 02MO 02MC 02RD 02RO	1	0	3.07148814201	-457.0	-383.0	-461	-377	1
2.7	2015_May_18_1103	s	s	9	1	SIC	301	ABS	0	2	02VD 02VO 02VC 02MD 02MO 02MC 10RD 02RO	1	0	2.21224403381	None	None	143	182	0
2.7	2015_May_18_1103	s	s	9	1	SIC	302	ABS	2	2	10VD 02VO 02VC 02MD 02MO 02MC 02RD 02RO	1	0	3.34248209	None	None	498	-317	0
2.7	2015_May_18_1103	s	s	9	1	SIC	303	RC	2	1	02VD 09VO 02VC 02MD 02MO 02MC 02RD 02RO	1	0	1.7953619957	258.0	398.0	253	406	1
2.7	2015_May_18_1103	s	s	9	1	SIC	304	RC	0	1	02VD 02VO 02VC 02MD 02MO 02MC 02RD 09RO	1	0	1.14790892601	11.0	237.0	6	242	1
2.7	2015_May_18_1103	s	s	9	1	SIC	305	RC	0	2	02VD 02VO 02VC 02MD 02MO 02MC 09RD 02RO	1	0	1.27049183846	237.0	-125.0	231	-119	1
2.7	2015_May_18_1103	s	s	9	1	SIC	306	RC	0	1	02VD 02VO 02VC 02MD 02MO 02MC 02RD 09RO	1	0	1.47727799416	-217.0	-82.0	370	-150	0
2.7	2015_May_18_1103	s	s	9	1	SIC	307	ABS	1	1	02VD 02VO 02VC 02MD 10MO 02MC 02RD 02RO	0	1	3.70138001442	None	None	None	None	1
2.7	2015_May_18_1103	s	s	9	1	SIC	308	RC	1	1	02VD 02VO 02VC 02MD 09MO 02MC 02RD 02RO	1	0	3.3539659977	-297.0	21.0	-301	27	1
2.7	2015_May_18_1103	s	s	9	1	SIC	309	RC	2	2	09VD 02VO 02VC 02MD 02MO 02MC 02RD 02RO	1	0	2.3416800499	-419.0	5.0	-418	13	1
2.7	2015_May_18_1103	s	s	9	1	SIC	310	ABS	2	1	02VD 10VO 02VC 02MD 02MO 02MC 02RD 02RO	0	1	1.94804787636	None	None	None	None	1
2.7	2015_May_18_1103	s	s	9	1	SIC	311	ABS	2	0	02VD 02VO 10VC 02MD 02MO 02MC 02RD 02RO	0	1	2.32996606827	None	None	None	None	1
2.7	2015_May_18_1103	s	s	9	1	SIC	312	RC	1	0	02VD 02VO 02VC 02MD 02MO 09MC 02RD 02RO	0	1	4.42507195473	-43.0	303.0	None	None	0
2.7	2015_May_18_1103	s	s	9	1	SIC	313	RC	1	2	02VD 02VO 02VC 09MD 02MO 02MC 02RD 02RO	1	0	1.07756090164	36.0	-150.0	32	-145	1
2.7	2015_May_18_1103	s	s	9	1	SIC	314	ABS	2	2	10VD 02VO 02VC 02MD 02MO 02MC 02RD 02RO	0	1	2.02396607399	None	None	None	None	1
2.7	2015_May_18_1103	s	s	9	1	SIC	315	ABS	0	1	02VD 02VO 02VC 02MD 02MO 02MC 02RD 10RO	0	1	4.42064404488	None	None	None	None	1
2.7	2015_May_18_1103	s	s	9	1	SIC	316	ABS	0	2	02VD 02VO 02VC 02MD 02MO 02MC 10RD 02RO	0	1	2.89158201218	None	None	None	None	1
2.7	2015_May_18_1103	s	s	9	1	SIC	317	RC	2	1	02VD 09VO 02VC 02MD 02MO 02MC 02RD 02RO	1	0	1.31258893013	316.0	-119.0	315	-113	1
2.7	2015_May_18_1103	s	s	9	1	SIC	318	RC	2	0	02VD 02VO 09VC 02MD 02MO 02MC 02RD 02RO	1	0	0.900626897812	130.0	-7.0	128	-1	1
2.7	2015_May_18_1103	s	s	9	1	SIC	319	ABS	1	0	02VD 02VO 02VC 02MD 02MO 10MC 02RD 02RO	0	1	4.32596588135	None	None	None	None	1
2.7	2015_May_18_1103	s	s	9	1	SIC	320	ABS	1	2	02VD 02VO 02VC 10MD 02MO 02MC 02RD 02RO	0	1	3.07844805717	None	None	None	None	1
2.7	2015_May_18_1103	s	s	9	1	SIC	321	RC	1	1	02VD 02VO 02VC 02MD 09MO 02MC 02RD 02RO	1	0	3.36585211754	7.0	-133.0	1	-125	1
2.7	2015_May_18_1103	s	s	9	1	SIC	322	RC	1	2	02VD 02VO 02VC 09MD 02MO 02MC 02RD 02RO	0	1	2.11306810379	187.0	-314.0	None	None	0
2.7	2015_May_18_1103	s	s	9	1	SIC	323	RC	2	1	02VD 09VO 02VC 02MD 02MO 02MC 02RD 02RO	1	0	3.50204491615	140.0	-288.0	134	-285	1
2.7	2015_May_18_1103	s	s	9	1	SIC	324	ABS	1	0	02VD 02VO 02VC 02MD 02MO 10MC 02RD 02RO	0	1	3.64330101013	None	None	None	None	1
2.7	2015_May_18_1103	s	s	9	1	SIC	325	RC	0	2	02VD 02VO 02VC 02MD 02MO 02MC 09RD 02RO	1	0	2.32435011864	-391.0	-46.0	-394	-38	1
2.7	2015_May_18_1103	s	s	9	1	SIC	326	ABS	2	2	10VD 02VO 02VC 02MD 02MO 02MC 02RD 02RO	0	1	2.36533713341	None	None	None	None	1
2.7	2015_May_18_1103	s	s	9	1	SIC	327	RC	0	1	02VD 02VO 02VC 02MD 02MO 02MC 02RD 09RO	1	0	2.73945999146	-517.0	130.0	-524	135	1
2.7	2015_May_18_1103	s	s	9	1	SIC	328	RC	2	2	09VD 02VO 02VC 02MD 02MO 02MC 02RD 02RO	1	0	1.14140200615	-234.0	148.0	-236	157	1
2.7	2015_May_18_1103	s	s	9	1	SIC	329	ABS	0	1	02VD 02VO 02VC 02MD 02MO 02MC 02RD 10RO	0	1	3.84840798378	None	None	None	None	1
2.7	2015_May_18_1103	s	s	9	1	SIC	330	ABS	1	2	02VD 02VO 02VC 10MD 02MO 02MC 02RD 02RO	0	1	3.3657078743	None	None	None	None	1
2.7	2015_May_18_1103	s	s	9	1	SIC	331	ABS	0	2	02VD 02VO 02VC 02MD 02MO 02MC 10RD 02RO	0	1	2.54882597923	None	None	None	None	1
2.7	2015_May_18_1103	s	s	9	1	SIC	332	RC	2	0	02VD 02VO 09VC 02MD 02MO 02MC 02RD 02RO	1	0	1.27748918533	-191.0	164.0	-197	173	1
2.7	2015_May_18_1103	s	s	9	1	SIC	333	ABS	2	0	02VD 02VO 10VC 02MD 02MO 02MC 02RD 02RO	0	1	2.74189805984	None	None	None	None	1
2.7	2015_May_18_1103	s	s	9	1	SIC	334	RC	1	0	02VD 02VO 02VC 02MD 02MO 09MC 02RD 02RO	1	0	2.15338897705	130.0	-22.0	131	-18	1
2.7	2015_May_18_1103	s	s	9	1	SIC	335	ABS	1	1	02VD 02VO 02VC 02MD 10MO 02MC 02RD 02RO	0	1	4.70758891106	None	None	None	None	1
2.7	2015_May_18_1103	s	s	9	1	SIC	336	ABS	2	1	02VD 10VO 02VC 02MD 02MO 02MC 02RD 02RO	0	1	2.44280600548	None	None	None	None	1
2.7	2015_May_18_1103	s	s	9	1	SIC	337	RC	1	0	02VD 02VO 02VC 02MD 02MO 09MC 02RD 02RO	1	0	8.03545498848	323.0	214.0	238	-372	0
2.7	2015_May_18_1103	s	s	9	1	SIC	338	ABS	0	1	02VD 02VO 02VC 02MD 02MO 02MC 02RD 10RO	0	1	3.93697094917	None	None	None	None	1
2.7	2015_May_18_1103	s	s	9	1	SIC	339	RC	0	1	02VD 02VO 02VC 02MD 02MO 02MC 02RD 09RO	1	0	1.98386788368	-67.0	212.0	-71	220	1
2.7	2015_May_18_1103	s	s	9	1	SIC	340	ABS	1	2	02VD 02VO 02VC 10MD 02MO 02MC 02RD 02RO	0	1	5.01362514496	None	None	None	None	1
2.7	2015_May_18_1103	s	s	9	1	SIC	341	RC	2	1	02VD 09VO 02VC 02MD 02MO 02MC 02RD 02RO	1	0	2.72685003281	-10.0	-398.0	-13	-390	1
2.7	2015_May_18_1103	s	s	9	1	SIC	342	ABS	2	2	10VD 02VO 02VC 02MD 02MO 02MC 02RD 02RO	0	1	2.90666484833	None	None	None	None	1
2.7	2015_May_18_1103	s	s	9	1	SIC	343	RC	0	2	02VD 02VO 02VC 02MD 02MO 02MC 09RD 02RO	1	0	1.57169485092	74.0	24.0	71	33	1
2.7	2015_May_18_1103	s	s	9	1	SIC	344	ABS	2	0	02VD 02VO 10VC 02MD 02MO 02MC 02RD 02RO	1	0	3.42465496063	None	None	-189	221	0
2.7	2015_May_18_1103	s	s	9	1	SIC	345	RC	1	2	02VD 02VO 02VC 09MD 02MO 02MC 02RD 02RO	1	0	1.8826508522	-49.0	-206.0	-55	-198	1
2.7	2015_May_18_1103	s	s	9	1	SIC	346	ABS	1	0	02VD 02VO 02VC 02MD 02MO 10MC 02RD 02RO	0	1	3.243227005	None	None	None	None	1
2.7	2015_May_18_1103	s	s	9	1	SIC	347	RC	2	0	02VD 02VO 09VC 02MD 02MO 02MC 02RD 02RO	1	0	1.44247913361	217.0	-240.0	215	-234	1
2.7	2015_May_18_1103	s	s	9	1	SIC	348	ABS	2	1	02VD 10VO 02VC 02MD 02MO 02MC 02RD 02RO	0	1	2.56036305428	None	None	None	None	1
2.7	2015_May_18_1103	s	s	9	1	SIC	349	RC	1	1	02VD 02VO 02VC 02MD 09MO 02MC 02RD 02RO	1	0	0.997365951538	-70.0	88.0	-75	95	1
2.7	2015_May_18_1103	s	s	9	1	SIC	350	RC	2	2	09VD 02VO 02VC 02MD 02MO 02MC 02RD 02RO	1	0	1.67770886421	307.0	262.0	305	269	1
2.7	2015_May_18_1103	s	s	9	1	SIC	351	ABS	0	2	02VD 02VO 02VC 02MD 02MO 02MC 10RD 02RO	0	1	2.18360304832	None	None	None	None	1
2.7	2015_May_18_1103	s	s	9	1	SIC	352	ABS	1	1	02VD 02VO 02VC 02MD 10MO 02MC 02RD 02RO	0	1	2.96085500717	None	None	None	None	1
2.7	2015_May_18_1103	s	s	9	1	SIC	353	RC	2	2	09VD 02VO 02VC 02MD 02MO 02MC 02RD 02RO	1	0	1.32993602753	-388.0	144.0	-391	152	1
2.7	2015_May_18_1103	s	s	9	1	SIC	354	RC	0	1	02VD 02VO 02VC 02MD 02MO 02MC 02RD 09RO	1	0	1.10058188438	-349.0	153.0	-349	162	1
2.7	2015_May_18_1103	s	s	9	1	SIC	355	RC	1	0	02VD 02VO 02VC 02MD 02MO 09MC 02RD 02RO	1	0	1.31753993034	51.0	89.0	45	96	1
2.7	2015_May_18_1103	s	s	9	1	SIC	356	ABS	2	1	02VD 10VO 02VC 02MD 02MO 02MC 02RD 02RO	1	0	2.40735220909	None	None	-354	23	0
2.7	2015_May_18_1103	s	s	9	1	SIC	357	ABS	1	2	02VD 02VO 02VC 10MD 02MO 02MC 02RD 02RO	0	1	3.37284302711	None	None	None	None	1
2.7	2015_May_18_1103	s	s	9	1	SIC	358	RC	1	1	02VD 02VO 02VC 02MD 09MO 02MC 02RD 02RO	1	0	2.20048904419	-247.0	22.0	-246	29	1
2.7	2015_May_18_1103	s	s	9	1	SIC	359	ABS	2	0	02VD 02VO 10VC 02MD 02MO 02MC 02RD 02RO	1	0	3.82481098175	None	None	49	-383	0
2.7	2015_May_18_1103	s	s	9	1	SIC	360	ABS	2	2	10VD 02VO 02VC 02MD 02MO 02MC 02RD 02RO	0	1	2.9842941761	None	None	None	None	1
2.7	2015_May_18_1103	s	s	9	1	SIC	361	ABS	0	2	02VD 02VO 02VC 02MD 02MO 02MC 10RD 02RO	1	0	3.25983595848	None	None	-176	56	0
2.7	2015_May_18_1103	s	s	9	1	SIC	362	ABS	1	1	02VD 02VO 02VC 02MD 10MO 02MC 02RD 02RO	0	1	4.00131702423	None	None	None	None	1
2.7	2015_May_18_1103	s	s	9	1	SIC	363	RC	1	2	02VD 02VO 02VC 09MD 02MO 02MC 02RD 02RO	1	0	1.44222211838	148.0	-194.0	146	-186	1
2.7	2015_May_18_1103	s	s	9	1	SIC	364	RC	2	0	02VD 02VO 09VC 02MD 02MO 02MC 02RD 02RO	1	0	0.866969108582	-144.0	20.0	-146	28	1
2.7	2015_May_18_1103	s	s	9	1	SIC	365	RC	2	1	02VD 09VO 02VC 02MD 02MO 02MC 02RD 02RO	1	0	1.90609383583	421.0	324.0	415	330	1
2.7	2015_May_18_1103	s	s	9	1	SIC	366	ABS	0	1	02VD 02VO 02VC 02MD 02MO 02MC 02RD 10RO	0	1	5.33817791939	None	None	None	None	1
2.7	2015_May_18_1103	s	s	9	1	SIC	367	RC	0	2	02VD 02VO 02VC 02MD 02MO 02MC 09RD 02RO	1	0	3.11352610588	-196.0	339.0	-200	346	1
2.7	2015_May_18_1103	s	s	9	1	SIC	368	ABS	1	0	02VD 02VO 02VC 02MD 02MO 10MC 02RD 02RO	0	1	6.15533089638	None	None	None	None	1
2.7	2015_May_18_1103	s	s	9	1	SIC	369	RC	1	2	02VD 02VO 02VC 09MD 02MO 02MC 02RD 02RO	1	0	1.48930621147	-310.0	82.0	-312	92	1
2.7	2015_May_18_1103	s	s	9	1	SIC	370	RC	1	1	02VD 02VO 02VC 02MD 09MO 02MC 02RD 02RO	1	0	3.01298499107	487.0	-328.0	481	-319	1
2.7	2015_May_18_1103	s	s	9	1	SIC	371	ABS	0	2	02VD 02VO 02VC 02MD 02MO 02MC 10RD 02RO	0	1	2.77250099182	None	None	None	None	1
2.7	2015_May_18_1103	s	s	9	1	SIC	372	RC	2	0	02VD 02VO 09VC 02MD 02MO 02MC 02RD 02RO	1	0	0.940992832184	132.0	211.0	127	217	1
2.7	2015_May_18_1103	s	s	9	1	SIC	373	RC	0	2	02VD 02VO 02VC 02MD 02MO 02MC 09RD 02RO	1	0	2.02055311203	-472.0	205.0	-478	210	1
2.7	2015_May_18_1103	s	s	9	1	SIC	374	ABS	0	1	02VD 02VO 02VC 02MD 02MO 02MC 02RD 10RO	0	1	2.97254490852	None	None	None	None	1
2.7	2015_May_18_1103	s	s	9	1	SIC	375	ABS	2	1	02VD 10VO 02VC 02MD 02MO 02MC 02RD 02RO	1	0	1.04234194756	None	None	-148	163	0
2.7	2015_May_18_1103	s	s	9	1	SIC	376	ABS	1	0	02VD 02VO 02VC 02MD 02MO 10MC 02RD 02RO	1	0	2.90187215805	None	None	188	-11	0
2.7	2015_May_18_1103	s	s	9	1	SIC	377	ABS	2	2	10VD 02VO 02VC 02MD 02MO 02MC 02RD 02RO	1	0	1.00687217712	None	None	255	-157	0
2.7	2015_May_18_1103	s	s	9	1	SIC	378	RC	2	2	09VD 02VO 02VC 02MD 02MO 02MC 02RD 02RO	1	0	0.84677696228	4.0	116.0	-4	118	1
2.7	2015_May_18_1103	s	s	9	1	SIC	379	RC	0	1	02VD 02VO 02VC 02MD 02MO 02MC 02RD 09RO	1	0	1.15282797813	47.0	-55.0	43	-48	1
2.7	2015_May_18_1103	s	s	9	1	SIC	380	RC	2	1	02VD 09VO 02VC 02MD 02MO 02MC 02RD 02RO	1	0	1.4567399025	235.0	-189.0	234	-182	1
2.7	2015_May_18_1103	s	s	9	1	SIC	381	RC	1	0	02VD 02VO 02VC 02MD 02MO 09MC 02RD 02RO	1	0	2.82430791855	-118.0	-29.0	-122	-25	1
2.7	2015_May_18_1103	s	s	9	1	SIC	382	ABS	2	0	02VD 02VO 10VC 02MD 02MO 02MC 02RD 02RO	1	0	1.54814815521	None	None	-214	-235	0
2.7	2015_May_18_1103	s	s	9	1	SIC	383	ABS	1	2	02VD 02VO 02VC 10MD 02MO 02MC 02RD 02RO	0	1	3.37422704697	None	None	None	None	1
2.7	2015_May_18_1103	s	s	9	1	SIC	384	ABS	1	1	02VD 02VO 02VC 02MD 10MO 02MC 02RD 02RO	1	0	8.21520781517	None	None	-108	50	0
2.7	2015_May_18_1103	s	s	9	1	SIC	385	RC	2	0	02VD 02VO 09VC 02MD 02MO 02MC 02RD 02RO	1	0	0.64230799675	76.0	130.0	79	137	1
2.7	2015_May_18_1103	s	s	9	1	SIC	386	RC	1	2	02VD 02VO 02VC 09MD 02MO 02MC 02RD 02RO	1	0	0.783368825912	254.0	344.0	251	353	1
2.7	2015_May_18_1103	s	s	9	1	SIC	387	RC	1	0	02VD 02VO 02VC 02MD 02MO 09MC 02RD 02RO	1	0	1.25885081291	-308.0	23.0	0	-2	0
2.7	2015_May_18_1103	s	s	9	1	SIC	388	RC	2	2	09VD 02VO 02VC 02MD 02MO 02MC 02RD 02RO	1	0	1.50096607208	53.0	267.0	57	271	1
2.7	2015_May_18_1103	s	s	9	1	SIC	389	ABS	0	2	02VD 02VO 02VC 02MD 02MO 02MC 10RD 02RO	0	1	3.30248594284	None	None	None	None	1
2.7	2015_May_18_1103	s	s	9	1	SIC	390	ABS	1	0	02VD 02VO 02VC 02MD 02MO 10MC 02RD 02RO	0	1	6.56738305092	None	None	None	None	1
2.7	2015_May_18_1103	s	s	9	1	SIC	391	ABS	2	2	10VD 02VO 02VC 02MD 02MO 02MC 02RD 02RO	0	1	1.79494285583	None	None	None	None	1
2.7	2015_May_18_1103	s	s	9	1	SIC	392	RC	0	2	02VD 02VO 02VC 02MD 02MO 02MC 09RD 02RO	1	0	1.58620715141	-184.0	56.0	-187	63	1
2.7	2015_May_18_1103	s	s	9	1	SIC	393	ABS	2	0	02VD 02VO 10VC 02MD 02MO 02MC 02RD 02RO	1	0	1.66581487656	None	None	129	184	0
2.7	2015_May_18_1103	s	s	9	1	SIC	394	RC	0	1	02VD 02VO 02VC 02MD 02MO 02MC 02RD 09RO	1	0	3.13042593002	-80.0	-249.0	-84	-242	1
2.7	2015_May_18_1103	s	s	9	1	SIC	395	ABS	1	1	02VD 02VO 02VC 02MD 10MO 02MC 02RD 02RO	0	1	4.05556607246	None	None	None	None	1
2.7	2015_May_18_1103	s	s	9	1	SIC	396	ABS	0	1	02VD 02VO 02VC 02MD 02MO 02MC 02RD 10RO	0	1	3.54954385757	None	None	None	None	1
2.7	2015_May_18_1103	s	s	9	1	SIC	397	RC	2	1	02VD 09VO 02VC 02MD 02MO 02MC 02RD 02RO	1	0	1.94855999947	-57.0	-254.0	-60	-251	1
2.7	2015_May_18_1103	s	s	9	1	SIC	398	ABS	1	2	02VD 02VO 02VC 10MD 02MO 02MC 02RD 02RO	0	1	3.58934903145	None	None	None	None	1
2.7	2015_May_18_1103	s	s	9	1	SIC	399	RC	1	1	02VD 02VO 02VC 02MD 09MO 02MC 02RD 02RO	0	1	2.43084096909	314.0	351.0	None	None	0
2.7	2015_May_18_1103	s	s	9	1	SIC	400	ABS	2	1	02VD 10VO 02VC 02MD 02MO 02MC 02RD 02RO	0	1	2.43594694138	None	None	None	None	1
2.7	2015_May_18_1103	s	s	9	1	SIC	401	ABS	1	1	02VD 02VO 02VC 02MD 10MO 02MC 02RD 02RO	0	1	4.35446190834	None	None	None	None	1
2.7	2015_May_18_1103	s	s	9	1	SIC	402	ABS	1	0	02VD 02VO 02VC 02MD 02MO 10MC 02RD 02RO	0	1	10.4944348335	None	None	None	None	1
2.7	2015_May_18_1103	s	s	9	1	SIC	403	ABS	0	1	02VD 02VO 02VC 02MD 02MO 02MC 02RD 10RO	0	1	3.67187690735	None	None	None	None	1
2.7	2015_May_18_1103	s	s	9	1	SIC	404	RC	2	0	02VD 02VO 09VC 02MD 02MO 02MC 02RD 02RO	1	0	4.69081711769	-485.0	-111.0	-492	-106	1
2.7	2015_May_18_1103	s	s	9	1	SIC	405	ABS	2	0	02VD 02VO 10VC 02MD 02MO 02MC 02RD 02RO	0	1	2.72635817528	None	None	None	None	1
2.7	2015_May_18_1103	s	s	9	1	SIC	406	RC	1	2	02VD 02VO 02VC 09MD 02MO 02MC 02RD 02RO	1	0	3.68955206871	532.0	402.0	528	408	1
2.7	2015_May_18_1103	s	s	9	1	SIC	407	RC	1	1	02VD 02VO 02VC 02MD 09MO 02MC 02RD 02RO	1	0	7.29215788841	316.0	28.0	305	35	1
2.7	2015_May_18_1103	s	s	9	1	SIC	408	RC	0	1	02VD 02VO 02VC 02MD 02MO 02MC 02RD 09RO	1	0	3.46667313576	427.0	-219.0	425	-217	1
2.7	2015_May_18_1103	s	s	9	1	SIC	409	RC	2	1	02VD 09VO 02VC 02MD 02MO 02MC 02RD 02RO	1	0	1.20011591911	-144.0	-237.0	-149	-238	1
2.7	2015_May_18_1103	s	s	9	1	SIC	410	RC	0	2	02VD 02VO 02VC 02MD 02MO 02MC 09RD 02RO	1	0	0.840570926666	-198.0	231.0	-196	235	1
2.7	2015_May_18_1103	s	s	9	1	SIC	411	ABS	1	2	02VD 02VO 02VC 10MD 02MO 02MC 02RD 02RO	1	0	0.893946886063	None	None	-135	-142	0
2.7	2015_May_18_1103	s	s	9	1	SIC	412	ABS	2	1	02VD 10VO 02VC 02MD 02MO 02MC 02RD 02RO	0	1	2.80831813812	None	None	None	None	1
2.7	2015_May_18_1103	s	s	9	1	SIC	413	RC	1	0	02VD 02VO 02VC 02MD 02MO 09MC 02RD 02RO	1	0	1.56480503082	5.0	-198.0	4	-194	1
2.7	2015_May_18_1103	s	s	9	1	SIC	414	ABS	2	2	10VD 02VO 02VC 02MD 02MO 02MC 02RD 02RO	0	1	2.2122387886	None	None	None	None	1
2.7	2015_May_18_1103	s	s	9	1	SIC	415	ABS	0	2	02VD 02VO 02VC 02MD 02MO 02MC 10RD 02RO	0	1	2.49482703209	None	None	None	None	1
2.7	2015_May_18_1103	s	s	9	1	SIC	416	RC	2	2	09VD 02VO 02VC 02MD 02MO 02MC 02RD 02RO	1	0	0.70090508461	40.0	172.0	34	179	1
2.7	2015_May_18_1103	s	s	9	1	SIC	417	ABS	1	0	02VD 02VO 02VC 02MD 02MO 10MC 02RD 02RO	0	1	3.72577595711	None	None	None	None	1
2.7	2015_May_18_1103	s	s	9	1	SIC	418	ABS	1	1	02VD 02VO 02VC 02MD 10MO 02MC 02RD 02RO	0	1	3.02122402191	None	None	None	None	1
2.7	2015_May_18_1103	s	s	9	1	SIC	419	ABS	1	2	02VD 02VO 02VC 10MD 02MO 02MC 02RD 02RO	0	1	2.40729188919	None	None	None	None	1
2.7	2015_May_18_1103	s	s	9	1	SIC	420	RC	2	1	02VD 09VO 02VC 02MD 02MO 02MC 02RD 02RO	1	0	0.740868091583	41.0	55.0	40	65	1
2.7	2015_May_18_1103	s	s	9	1	SIC	421	ABS	0	1	02VD 02VO 02VC 02MD 02MO 02MC 02RD 10RO	0	1	3.40102100372	None	None	None	None	1
2.7	2015_May_18_1103	s	s	9	1	SIC	422	RC	1	0	02VD 02VO 02VC 02MD 02MO 09MC 02RD 02RO	1	0	2.16027808189	532.0	367.0	527	373	1
2.7	2015_May_18_1103	s	s	9	1	SIC	423	ABS	2	2	10VD 02VO 02VC 02MD 02MO 02MC 02RD 02RO	0	1	2.46758103371	None	None	None	None	1
2.7	2015_May_18_1103	s	s	9	1	SIC	424	RC	0	2	02VD 02VO 02VC 02MD 02MO 02MC 09RD 02RO	1	0	1.44714784622	-507.0	78.0	-512	86	1
2.7	2015_May_18_1103	s	s	9	1	SIC	425	ABS	0	2	02VD 02VO 02VC 02MD 02MO 02MC 10RD 02RO	0	1	1.92697882652	None	None	None	None	1
2.7	2015_May_18_1103	s	s	9	1	SIC	426	ABS	2	1	02VD 10VO 02VC 02MD 02MO 02MC 02RD 02RO	0	1	1.48251008987	None	None	None	None	1
2.7	2015_May_18_1103	s	s	9	1	SIC	427	RC	1	2	02VD 02VO 02VC 09MD 02MO 02MC 02RD 02RO	1	0	1.63115715981	-414.0	337.0	-418	346	1
2.7	2015_May_18_1103	s	s	9	1	SIC	428	RC	0	1	02VD 02VO 02VC 02MD 02MO 02MC 02RD 09RO	1	0	2.0772600174	-321.0	54.0	-318	59	1
2.7	2015_May_18_1103	s	s	9	1	SIC	429	RC	2	2	09VD 02VO 02VC 02MD 02MO 02MC 02RD 02RO	0	1	2.65449690819	-424.0	-335.0	None	None	0
2.7	2015_May_18_1103	s	s	9	1	SIC	430	RC	1	1	02VD 02VO 02VC 02MD 09MO 02MC 02RD 02RO	1	0	0.8349609375	-385.0	-121.0	-385	-116	1
2.7	2015_May_18_1103	s	s	9	1	SIC	431	ABS	2	0	02VD 02VO 10VC 02MD 02MO 02MC 02RD 02RO	0	1	2.89484906197	None	None	None	None	1
2.7	2015_May_18_1103	s	s	9	1	SIC	432	RC	2	0	02VD 02VO 09VC 02MD 02MO 02MC 02RD 02RO	1	0	2.18656587601	449.0	-40.0	450	-32	1
2.7	2015_May_18_1103	s	s	9	1	SIC	433	RC	1	1	02VD 02VO 02VC 02MD 09MO 02MC 02RD 02RO	0	1	2.90178394318	207.0	313.0	None	None	0
2.7	2015_May_18_1103	s	s	9	1	SIC	434	ABS	1	0	02VD 02VO 02VC 02MD 02MO 10MC 02RD 02RO	0	1	3.28088307381	None	None	None	None	1
2.7	2015_May_18_1103	s	s	9	1	SIC	435	ABS	2	1	02VD 10VO 02VC 02MD 02MO 02MC 02RD 02RO	0	1	2.7773001194	None	None	None	None	1
2.7	2015_May_18_1103	s	s	9	1	SIC	436	ABS	2	0	02VD 02VO 10VC 02MD 02MO 02MC 02RD 02RO	1	0	1.64246916771	None	None	329	53	0
2.7	2015_May_18_1103	s	s	9	1	SIC	437	ABS	2	2	10VD 02VO 02VC 02MD 02MO 02MC 02RD 02RO	0	1	2.53680992126	None	None	None	None	1
2.7	2015_May_18_1103	s	s	9	1	SIC	438	ABS	1	1	02VD 02VO 02VC 02MD 10MO 02MC 02RD 02RO	0	1	3.12548208237	None	None	None	None	1
2.7	2015_May_18_1103	s	s	9	1	SIC	439	RC	0	1	02VD 02VO 02VC 02MD 02MO 02MC 02RD 09RO	1	0	2.34862303734	271.0	-409.0	272	-403	1
2.7	2015_May_18_1103	s	s	9	1	SIC	440	RC	0	2	02VD 02VO 02VC 02MD 02MO 02MC 09RD 02RO	0	1	2.56913590431	84.0	35.0	None	None	0
2.7	2015_May_18_1103	s	s	9	1	SIC	441	RC	2	2	09VD 02VO 02VC 02MD 02MO 02MC 02RD 02RO	1	0	2.2357480526	-235.0	-384.0	-240	-382	1
2.7	2015_May_18_1103	s	s	9	1	SIC	442	RC	1	0	02VD 02VO 02VC 02MD 02MO 09MC 02RD 02RO	1	0	0.830417156219	85.0	-83.0	82	-77	1
2.7	2015_May_18_1103	s	s	9	1	SIC	443	RC	2	1	02VD 09VO 02VC 02MD 02MO 02MC 02RD 02RO	1	0	2.0710208416	-271.0	259.0	-274	260	1
2.7	2015_May_18_1103	s	s	9	1	SIC	444	RC	1	2	02VD 02VO 02VC 09MD 02MO 02MC 02RD 02RO	1	0	1.4311709404	212.0	-79.0	209	-72	1
2.7	2015_May_18_1103	s	s	9	1	SIC	445	ABS	0	1	02VD 02VO 02VC 02MD 02MO 02MC 02RD 10RO	0	1	2.78945708275	None	None	None	None	1
2.7	2015_May_18_1103	s	s	9	1	SIC	446	RC	2	0	02VD 02VO 09VC 02MD 02MO 02MC 02RD 02RO	1	0	1.92973208427	-182.0	-299.0	-184	-294	1
2.7	2015_May_18_1103	s	s	9	1	SIC	447	ABS	1	2	02VD 02VO 02VC 10MD 02MO 02MC 02RD 02RO	0	1	2.13655209541	None	None	None	None	1
2.7	2015_May_18_1103	s	s	9	1	SIC	448	ABS	0	2	02VD 02VO 02VC 02MD 02MO 02MC 10RD 02RO	0	1	1.99235415459	None	None	None	None	1
2.7	2015_May_18_1103	s	s	9	1	SIC	449	ABS	0	2	02VD 02VO 02VC 02MD 02MO 02MC 10RD 02RO	0	1	2.28964519501	None	None	None	None	1
2.7	2015_May_18_1103	s	s	9	1	SIC	450	RC	2	1	02VD 09VO 02VC 02MD 02MO 02MC 02RD 02RO	1	0	1.33877015114	247.0	-57.0	247	-49	1
2.7	2015_May_18_1103	s	s	9	1	SIC	451	ABS	1	1	02VD 02VO 02VC 02MD 10MO 02MC 02RD 02RO	0	1	2.68998098373	None	None	None	None	1
2.7	2015_May_18_1103	s	s	9	1	SIC	452	ABS	1	2	02VD 02VO 02VC 10MD 02MO 02MC 02RD 02RO	0	1	1.72541499138	None	None	None	None	1
2.7	2015_May_18_1103	s	s	9	1	SIC	453	RC	2	2	09VD 02VO 02VC 02MD 02MO 02MC 02RD 02RO	1	0	2.04743504524	202.0	339.0	202	348	1
2.7	2015_May_18_1103	s	s	9	1	SIC	454	ABS	1	0	02VD 02VO 02VC 02MD 02MO 10MC 02RD 02RO	1	0	6.08262205124	None	None	-423	25	0
2.7	2015_May_18_1103	s	s	9	1	SIC	455	RC	2	0	02VD 02VO 09VC 02MD 02MO 02MC 02RD 02RO	1	0	0.794967889786	-148.0	245.0	-159	251	1
2.7	2015_May_18_1103	s	s	9	1	SIC	456	RC	0	2	02VD 02VO 02VC 02MD 02MO 02MC 09RD 02RO	1	0	0.662307024002	155.0	304.0	150	306	1
2.7	2015_May_18_1103	s	s	9	1	SIC	457	ABS	2	1	02VD 10VO 02VC 02MD 02MO 02MC 02RD 02RO	0	1	4.37006306648	None	None	None	None	1
2.7	2015_May_18_1103	s	s	9	1	SIC	458	RC	1	1	02VD 02VO 02VC 02MD 09MO 02MC 02RD 02RO	1	0	1.37173700333	368.0	315.0	365	317	1
2.7	2015_May_18_1103	s	s	9	1	SIC	459	ABS	0	1	02VD 02VO 02VC 02MD 02MO 02MC 02RD 10RO	0	1	3.16566896439	None	None	None	None	1
2.7	2015_May_18_1103	s	s	9	1	SIC	460	ABS	2	0	02VD 02VO 10VC 02MD 02MO 02MC 02RD 02RO	1	0	2.21221613884	None	None	148	-379	0
2.7	2015_May_18_1103	s	s	9	1	SIC	461	ABS	2	2	10VD 02VO 02VC 02MD 02MO 02MC 02RD 02RO	0	1	2.01211810112	None	None	None	None	1
2.7	2015_May_18_1103	s	s	9	1	SIC	462	RC	0	1	02VD 02VO 02VC 02MD 02MO 02MC 02RD 09RO	1	0	2.85460686684	416.0	344.0	420	353	1
2.7	2015_May_18_1103	s	s	9	1	SIC	463	RC	1	2	02VD 02VO 02VC 09MD 02MO 02MC 02RD 02RO	1	0	2.17192292213	533.0	-349.0	534	-359	1
2.7	2015_May_18_1103	s	s	9	1	SIC	464	RC	1	0	02VD 02VO 02VC 02MD 02MO 09MC 02RD 02RO	1	0	1.87467098236	-538.0	70.0	-537	79	1
2.7	2015_May_18_1103	s	s	9	1	SIC	465	RC	1	0	02VD 02VO 02VC 02MD 02MO 09MC 02RD 02RO	1	0	1.26689505577	-163.0	87.0	-168	93	1
2.7	2015_May_18_1103	s	s	9	1	SIC	466	ABS	1	2	02VD 02VO 02VC 10MD 02MO 02MC 02RD 02RO	0	1	2.07487106323	None	None	None	None	1
2.7	2015_May_18_1103	s	s	9	1	SIC	467	RC	0	1	02VD 02VO 02VC 02MD 02MO 02MC 02RD 09RO	1	0	2.60742402077	291.0	-98.0	286	-94	1
2.7	2015_May_18_1103	s	s	9	1	SIC	468	RC	0	2	02VD 02VO 02VC 02MD 02MO 02MC 09RD 02RO	1	0	0.771045923233	-16.0	58.0	-20	65	1
2.7	2015_May_18_1103	s	s	9	1	SIC	469	ABS	2	1	02VD 10VO 02VC 02MD 02MO 02MC 02RD 02RO	1	0	2.57202100754	None	None	401	-90	0
2.7	2015_May_18_1103	s	s	9	1	SIC	470	ABS	2	0	02VD 02VO 10VC 02MD 02MO 02MC 02RD 02RO	0	1	2.16287612915	None	None	None	None	1
2.7	2015_May_18_1103	s	s	9	1	SIC	471	RC	2	1	02VD 09VO 02VC 02MD 02MO 02MC 02RD 02RO	1	0	2.71541905403	-414.0	-369.0	-419	-360	1
2.7	2015_May_18_1103	s	s	9	1	SIC	472	ABS	2	2	10VD 02VO 02VC 02MD 02MO 02MC 02RD 02RO	0	1	1.97179913521	None	None	None	None	1
2.7	2015_May_18_1103	s	s	9	1	SIC	473	ABS	1	0	02VD 02VO 02VC 02MD 02MO 10MC 02RD 02RO	0	1	3.17267894745	None	None	None	None	1
2.7	2015_May_18_1103	s	s	9	1	SIC	474	ABS	0	2	02VD 02VO 02VC 02MD 02MO 02MC 10RD 02RO	0	1	2.88995194435	None	None	None	None	1
2.7	2015_May_18_1103	s	s	9	1	SIC	475	ABS	0	1	02VD 02VO 02VC 02MD 02MO 02MC 02RD 10RO	0	1	2.75372195244	None	None	None	None	1
2.7	2015_May_18_1103	s	s	9	1	SIC	476	RC	1	2	02VD 02VO 02VC 09MD 02MO 02MC 02RD 02RO	0	1	1.58839392662	458.0	324.0	None	None	0
2.7	2015_May_18_1103	s	s	9	1	SIC	477	RC	2	2	09VD 02VO 02VC 02MD 02MO 02MC 02RD 02RO	0	1	4.71440696716	-401.0	350.0	None	None	0
2.7	2015_May_18_1103	s	s	9	1	SIC	478	RC	2	0	02VD 02VO 09VC 02MD 02MO 02MC 02RD 02RO	1	0	1.1368432045	-112.0	192.0	-116	187	1
2.7	2015_May_18_1103	s	s	9	1	SIC	479	RC	1	1	02VD 02VO 02VC 02MD 09MO 02MC 02RD 02RO	0	1	2.95384097099	-29.0	344.0	None	None	0
2.7	2015_May_18_1103	s	s	9	1	SIC	480	ABS	1	1	02VD 02VO 02VC 02MD 10MO 02MC 02RD 02RO	0	1	2.41235899925	None	None	None	None	1
