Version	Date	Stimuli	Method	Subject	Session	Condition	Trial	Target	Channel1	Channel2	Distractors	LMouseButton	RMouseButton	RT	TargetX	TargetY	ResponseX	ResponseY	Correct
2.7	2015_May_21_1102	s	s	9	2	Capacity	1	ABS	1	0	08VC 16MC	0	1	4.22515583038	None	None	None	None	1
2.7	2015_May_21_1102	s	s	9	2	Capacity	2	RC	1	0	08VC 15MC	1	0	1.08926892281	-122.0	288.0	-115	289	1
2.7	2015_May_21_1102	s	s	9	2	Capacity	3	RC	2	0	15VC 08MC	0	1	3.49569201469	211.0	408.0	None	None	0
2.7	2015_May_21_1102	s	s	9	2	Capacity	4	ABS	2	0	16VC 08MC	0	1	2.19559192657	None	None	None	None	1
2.7	2015_May_21_1102	s	s	9	2	Capacity	5	RC	1	0	08VC 15MC	1	0	2.21919083595	-154.0	-248.0	-153	-241	1
2.7	2015_May_21_1102	s	s	9	2	Capacity	6	ABS	1	0	08VC 16MC	0	1	1.56487679482	None	None	None	None	1
2.7	2015_May_21_1102	s	s	9	2	Capacity	7	ABS	2	0	16VC 08MC	0	1	2.1416311264	None	None	None	None	1
2.7	2015_May_21_1102	s	s	9	2	Capacity	8	RC	2	0	15VC 08MC	1	0	2.05928301811	360.0	291.0	364	283	1
2.7	2015_May_21_1102	s	s	9	2	Capacity	9	ABS	2	0	16VC 08MC	0	1	1.68261909485	None	None	None	None	1
2.7	2015_May_21_1102	s	s	9	2	Capacity	10	RC	1	0	08VC 15MC	1	0	2.28285884857	-286.0	-146.0	-293	-139	1
2.7	2015_May_21_1102	s	s	9	2	Capacity	11	RC	2	0	15VC 08MC	1	0	1.15061807632	-373.0	-54.0	-378	-50	1
2.7	2015_May_21_1102	s	s	9	2	Capacity	12	ABS	1	0	08VC 16MC	0	1	2.80765604973	None	None	None	None	1
2.7	2015_May_21_1102	s	s	9	2	Capacity	13	RC	2	0	15VC 08MC	1	0	1.20681214333	-35.0	143.0	-39	151	1
2.7	2015_May_21_1102	s	s	9	2	Capacity	14	ABS	1	0	08VC 16MC	0	1	3.20102214813	None	None	None	None	1
2.7	2015_May_21_1102	s	s	9	2	Capacity	15	RC	1	0	08VC 15MC	1	0	0.938419103622	167.0	177.0	163	183	1
2.7	2015_May_21_1102	s	s	9	2	Capacity	16	ABS	2	0	16VC 08MC	0	1	2.87128901482	None	None	None	None	1
2.7	2015_May_21_1102	s	s	9	2	Capacity	17	ABS	1	0	08VC 16MC	0	1	2.01851892471	None	None	None	None	1
2.7	2015_May_21_1102	s	s	9	2	Capacity	18	ABS	2	0	16VC 08MC	0	1	2.22394108772	None	None	None	None	1
2.7	2015_May_21_1102	s	s	9	2	Capacity	19	RC	1	0	08VC 15MC	1	0	1.03515982628	-177.0	240.0	-182	244	1
2.7	2015_May_21_1102	s	s	9	2	Capacity	20	RC	2	0	15VC 08MC	1	0	2.57341194153	-412.0	306.0	-420	311	1
2.7	2015_May_21_1102	s	s	9	2	Capacity	21	ABS	2	0	16VC 08MC	0	1	3.84836387634	None	None	None	None	1
2.7	2015_May_21_1102	s	s	9	2	Capacity	22	ABS	1	0	08VC 16MC	0	1	3.77280592918	None	None	None	None	1
2.7	2015_May_21_1102	s	s	9	2	Capacity	23	RC	1	0	08VC 15MC	1	0	0.988091945648	258.0	323.0	253	331	1
2.7	2015_May_21_1102	s	s	9	2	Capacity	24	RC	2	0	15VC 08MC	1	0	0.947732210159	179.0	-308.0	175	-300	1
2.7	2015_May_21_1102	s	s	9	2	Capacity	25	RC	2	0	15VC 08MC	1	0	1.24182009697	-253.0	47.0	-258	52	1
2.7	2015_May_21_1102	s	s	9	2	Capacity	26	ABS	2	0	16VC 08MC	0	1	3.06591892242	None	None	None	None	1
2.7	2015_May_21_1102	s	s	9	2	Capacity	27	ABS	1	0	08VC 16MC	0	1	3.57241487503	None	None	None	None	1
2.7	2015_May_21_1102	s	s	9	2	Capacity	28	RC	1	0	08VC 15MC	1	0	1.38342881203	530.0	396.0	525	404	1
2.7	2015_May_21_1102	s	s	9	2	Capacity	29	ABS	2	0	16VC 08MC	0	1	2.40432906151	None	None	None	None	1
2.7	2015_May_21_1102	s	s	9	2	Capacity	30	RC	2	0	15VC 08MC	1	0	2.3417429924	-43.0	-283.0	-48	-275	1
2.7	2015_May_21_1102	s	s	9	2	Capacity	31	ABS	1	0	08VC 16MC	0	1	3.99862217903	None	None	None	None	1
2.7	2015_May_21_1102	s	s	9	2	Capacity	32	RC	1	0	08VC 15MC	1	0	1.27729010582	435.0	-83.0	429	-73	1
2.7	2015_May_21_1102	s	s	9	2	Capacity	33	RC	2	0	15VC 08MC	1	0	2.51163601875	-485.0	-285.0	-492	-284	1
2.7	2015_May_21_1102	s	s	9	2	Capacity	34	RC	1	0	08VC 15MC	1	0	3.18424296379	474.0	-123.0	470	-115	1
2.7	2015_May_21_1102	s	s	9	2	Capacity	35	ABS	2	0	16VC 08MC	0	1	2.21905112267	None	None	None	None	1
2.7	2015_May_21_1102	s	s	9	2	Capacity	36	ABS	1	0	08VC 16MC	0	1	3.71383881569	None	None	None	None	1
2.7	2015_May_21_1102	s	s	9	2	Capacity	37	RC	1	0	08VC 15MC	1	0	1.27761793137	418.0	190.0	416	196	1
2.7	2015_May_21_1102	s	s	9	2	Capacity	38	ABS	2	0	16VC 08MC	0	1	1.95333409309	None	None	None	None	1
2.7	2015_May_21_1102	s	s	9	2	Capacity	39	RC	2	0	15VC 08MC	1	0	0.723908901215	212.0	-113.0	206	-105	1
2.7	2015_May_21_1102	s	s	9	2	Capacity	40	ABS	1	0	08VC 16MC	0	1	1.6525349617	None	None	None	None	1
2.7	2015_May_21_1102	s	s	9	2	Capacity	41	RC	2	0	15VC 08MC	1	0	1.08941698074	414.0	308.0	411	315	1
2.7	2015_May_21_1102	s	s	9	2	Capacity	42	ABS	2	0	16VC 08MC	0	1	2.2781329155	None	None	None	None	1
2.7	2015_May_21_1102	s	s	9	2	Capacity	43	RC	1	0	08VC 15MC	1	0	0.935976028442	-240.0	161.0	-245	168	1
2.7	2015_May_21_1102	s	s	9	2	Capacity	44	ABS	1	0	08VC 16MC	0	1	2.98954987526	None	None	None	None	1
2.7	2015_May_21_1102	s	s	9	2	Capacity	45	RC	2	0	15VC 08MC	1	0	1.23024201393	-524.0	104.0	-527	112	1
2.7	2015_May_21_1102	s	s	9	2	Capacity	46	ABS	2	0	16VC 08MC	0	1	3.92725896835	None	None	None	None	1
2.7	2015_May_21_1102	s	s	9	2	Capacity	47	RC	1	0	08VC 15MC	1	0	1.44410586357	-391.0	279.0	-396	287	1
2.7	2015_May_21_1102	s	s	9	2	Capacity	48	ABS	1	0	08VC 16MC	0	1	1.80697512627	None	None	None	None	1
2.7	2015_May_21_1102	s	s	9	2	Capacity	49	RC	1	0	08VC 15MC	1	0	1.57668495178	430.0	-14.0	426	-6	1
2.7	2015_May_21_1102	s	s	9	2	Capacity	50	ABS	2	0	16VC 08MC	0	1	2.50156116486	None	None	None	None	1
2.7	2015_May_21_1102	s	s	9	2	Capacity	51	ABS	1	0	08VC 16MC	0	1	2.1600830555	None	None	None	None	1
2.7	2015_May_21_1102	s	s	9	2	Capacity	52	RC	2	0	15VC 08MC	1	0	1.14114022255	249.0	-51.0	243	-43	1
2.7	2015_May_21_1102	s	s	9	2	Capacity	53	ABS	1	0	08VC 16MC	0	1	5.90817189217	None	None	None	None	1
2.7	2015_May_21_1102	s	s	9	2	Capacity	54	ABS	2	0	16VC 08MC	0	1	2.48331809044	None	None	None	None	1
2.7	2015_May_21_1102	s	s	9	2	Capacity	55	RC	1	0	08VC 15MC	1	0	0.941364049911	-178.0	51.0	-180	53	1
2.7	2015_May_21_1102	s	s	9	2	Capacity	56	RC	2	0	15VC 08MC	1	0	2.32743787766	-330.0	-168.0	-336	-160	1
2.7	2015_May_21_1102	s	s	9	2	Capacity	57	RC	2	0	15VC 08MC	1	0	0.830053091049	-287.0	134.0	-292	142	1
2.7	2015_May_21_1102	s	s	9	2	Capacity	58	RC	1	0	08VC 15MC	1	0	1.34119200706	-428.0	33.0	-433	40	1
2.7	2015_May_21_1102	s	s	9	2	Capacity	59	ABS	1	0	08VC 16MC	0	1	3.51395797729	None	None	None	None	1
2.7	2015_May_21_1102	s	s	9	2	Capacity	60	ABS	2	0	16VC 08MC	0	1	2.46835494041	None	None	None	None	1
2.7	2015_May_21_1102	s	s	9	2	Capacity	61	RC	1	0	08VC 15MC	1	0	0.905673027039	-401.0	-53.0	-404	-43	1
2.7	2015_May_21_1102	s	s	9	2	Capacity	62	ABS	1	0	08VC 16MC	0	1	1.98602676392	None	None	None	None	1
2.7	2015_May_21_1102	s	s	9	2	Capacity	63	RC	2	0	15VC 08MC	1	0	2.1136879921	167.0	-100.0	163	-92	1
2.7	2015_May_21_1102	s	s	9	2	Capacity	64	ABS	2	0	16VC 08MC	0	1	1.84218811989	None	None	None	None	1
2.7	2015_May_21_1102	s	s	9	2	Capacity	1	RC	0	1	08RD 15RO	1	0	1.69807386398	-426.0	-64.0	-430	-57	1
2.7	2015_May_21_1102	s	s	9	2	Capacity	2	ABS	0	2	16RD 08RO	0	1	2.93654894829	None	None	None	None	1
2.7	2015_May_21_1102	s	s	9	2	Capacity	3	RC	0	2	15RD 08RO	1	0	1.2117228508	183.0	204.0	180	199	1
2.7	2015_May_21_1102	s	s	9	2	Capacity	4	ABS	0	1	08RD 16RO	0	1	3.44816803932	None	None	None	None	1
2.7	2015_May_21_1102	s	s	9	2	Capacity	5	ABS	0	2	16RD 08RO	0	1	2.68990683556	None	None	None	None	1
2.7	2015_May_21_1102	s	s	9	2	Capacity	6	RC	0	1	08RD 15RO	1	0	2.73869395256	-259.0	-321.0	-262	-317	1
2.7	2015_May_21_1102	s	s	9	2	Capacity	7	RC	0	2	15RD 08RO	1	0	2.61913299561	369.0	20.0	365	26	1
2.7	2015_May_21_1102	s	s	9	2	Capacity	8	ABS	0	1	08RD 16RO	0	1	3.78416609764	None	None	None	None	1
2.7	2015_May_21_1102	s	s	9	2	Capacity	9	RC	0	2	15RD 08RO	1	0	2.43037414551	-443.0	-251.0	-448	-242	1
2.7	2015_May_21_1102	s	s	9	2	Capacity	10	ABS	0	2	16RD 08RO	0	1	2.78398609161	None	None	None	None	1
2.7	2015_May_21_1102	s	s	9	2	Capacity	11	RC	0	1	08RD 15RO	1	0	1.17201590538	-304.0	128.0	-308	138	1
2.7	2015_May_21_1102	s	s	9	2	Capacity	12	ABS	0	1	08RD 16RO	0	1	4.23676896095	None	None	None	None	1
2.7	2015_May_21_1102	s	s	9	2	Capacity	13	RC	0	2	15RD 08RO	1	0	3.36066699028	-481.0	-58.0	-479	-48	1
2.7	2015_May_21_1102	s	s	9	2	Capacity	14	ABS	0	1	08RD 16RO	0	1	3.36062693596	None	None	None	None	1
2.7	2015_May_21_1102	s	s	9	2	Capacity	15	ABS	0	2	16RD 08RO	0	1	2.25933289528	None	None	None	None	1
2.7	2015_May_21_1102	s	s	9	2	Capacity	16	RC	0	1	08RD 15RO	1	0	1.17134904861	-379.0	-13.0	-378	-9	1
2.7	2015_May_21_1102	s	s	9	2	Capacity	17	ABS	0	1	08RD 16RO	0	1	2.97349596024	None	None	None	None	1
2.7	2015_May_21_1102	s	s	9	2	Capacity	18	RC	0	2	15RD 08RO	1	0	2.38416099548	333.0	-234.0	330	-227	1
2.7	2015_May_21_1102	s	s	9	2	Capacity	19	RC	0	1	08RD 15RO	1	0	3.65440988541	-199.0	-411.0	-203	-402	1
2.7	2015_May_21_1102	s	s	9	2	Capacity	20	ABS	0	2	16RD 08RO	0	1	4.90230107307	None	None	None	None	1
2.7	2015_May_21_1102	s	s	9	2	Capacity	21	ABS	0	2	16RD 08RO	0	1	2.3367369175	None	None	None	None	1
2.7	2015_May_21_1102	s	s	9	2	Capacity	22	RC	0	1	08RD 15RO	1	0	3.61290407181	-441.0	-73.0	-443	-66	1
2.7	2015_May_21_1102	s	s	9	2	Capacity	23	ABS	0	1	08RD 16RO	0	1	2.71831798553	None	None	None	None	1
2.7	2015_May_21_1102	s	s	9	2	Capacity	24	RC	0	2	15RD 08RO	1	0	1.05309796333	21.0	204.0	17	211	1
2.7	2015_May_21_1102	s	s	9	2	Capacity	25	RC	0	2	15RD 08RO	1	0	2.45700192451	309.0	-216.0	305	-208	1
2.7	2015_May_21_1102	s	s	9	2	Capacity	26	ABS	0	2	16RD 08RO	0	1	4.37450790405	None	None	None	None	1
2.7	2015_May_21_1102	s	s	9	2	Capacity	27	RC	0	1	08RD 15RO	1	0	1.63551402092	-337.0	-42.0	-342	-34	1
2.7	2015_May_21_1102	s	s	9	2	Capacity	28	ABS	0	1	08RD 16RO	0	1	3.8076570034	None	None	None	None	1
2.7	2015_May_21_1102	s	s	9	2	Capacity	29	ABS	0	2	16RD 08RO	0	1	2.32974290848	None	None	None	None	1
2.7	2015_May_21_1102	s	s	9	2	Capacity	30	ABS	0	1	08RD 16RO	0	1	3.9141330719	None	None	None	None	1
2.7	2015_May_21_1102	s	s	9	2	Capacity	31	RC	0	1	08RD 15RO	0	1	2.73678398132	61.0	-412.0	None	None	0
2.7	2015_May_21_1102	s	s	9	2	Capacity	32	RC	0	2	15RD 08RO	0	1	2.43062400818	458.0	19.0	None	None	0
2.7	2015_May_21_1102	s	s	9	2	Capacity	33	ABS	0	2	16RD 08RO	0	1	2.10675406456	None	None	None	None	1
2.7	2015_May_21_1102	s	s	9	2	Capacity	34	ABS	0	1	08RD 16RO	0	1	2.52447295189	None	None	None	None	1
2.7	2015_May_21_1102	s	s	9	2	Capacity	35	RC	0	2	15RD 08RO	1	0	1.32947778702	518.0	170.0	514	173	1
2.7	2015_May_21_1102	s	s	9	2	Capacity	36	RC	0	1	08RD 15RO	1	0	2.77712702751	272.0	-321.0	268	-314	1
2.7	2015_May_21_1102	s	s	9	2	Capacity	37	RC	0	2	15RD 08RO	1	0	3.06901907921	267.0	-195.0	264	-190	1
2.7	2015_May_21_1102	s	s	9	2	Capacity	38	RC	0	1	08RD 15RO	1	0	2.17461299896	104.0	92.0	98	100	1
2.7	2015_May_21_1102	s	s	9	2	Capacity	39	ABS	0	2	16RD 08RO	0	1	2.60682296753	None	None	None	None	1
2.7	2015_May_21_1102	s	s	9	2	Capacity	40	ABS	0	1	08RD 16RO	0	1	3.83157086372	None	None	None	None	1
2.7	2015_May_21_1102	s	s	9	2	Capacity	41	RC	0	2	15RD 08RO	1	0	1.17136001587	-61.0	374.0	-67	380	1
2.7	2015_May_21_1102	s	s	9	2	Capacity	42	ABS	0	1	08RD 16RO	0	1	3.13409280777	None	None	None	None	1
2.7	2015_May_21_1102	s	s	9	2	Capacity	43	ABS	0	2	16RD 08RO	0	1	1.96241307259	None	None	None	None	1
2.7	2015_May_21_1102	s	s	9	2	Capacity	44	RC	0	1	08RD 15RO	1	0	2.68994784355	-488.0	-162.0	-490	-154	1
2.7	2015_May_21_1102	s	s	9	2	Capacity	45	ABS	0	1	08RD 16RO	0	1	3.02447414398	None	None	None	None	1
2.7	2015_May_21_1102	s	s	9	2	Capacity	46	RC	0	1	08RD 15RO	1	0	1.80874300003	435.0	-220.0	435	-217	1
2.7	2015_May_21_1102	s	s	9	2	Capacity	47	RC	0	2	15RD 08RO	1	0	1.89195299149	519.0	-192.0	517	-186	1
2.7	2015_May_21_1102	s	s	9	2	Capacity	48	ABS	0	2	16RD 08RO	0	1	2.16515016556	None	None	None	None	1
2.7	2015_May_21_1102	s	s	9	2	Capacity	49	ABS	0	1	08RD 16RO	0	1	3.48713994026	None	None	None	None	1
2.7	2015_May_21_1102	s	s	9	2	Capacity	50	RC	0	2	15RD 08RO	1	0	1.91797590256	-179.0	-393.0	-183	-384	1
2.7	2015_May_21_1102	s	s	9	2	Capacity	51	RC	0	1	08RD 15RO	0	1	3.0714609623	-122.0	233.0	None	None	0
2.7	2015_May_21_1102	s	s	9	2	Capacity	52	ABS	0	2	16RD 08RO	0	1	3.25333189964	None	None	None	None	1
2.7	2015_May_21_1102	s	s	9	2	Capacity	53	ABS	0	2	16RD 08RO	0	1	3.0836789608	None	None	None	None	1
2.7	2015_May_21_1102	s	s	9	2	Capacity	54	RC	0	1	08RD 15RO	1	0	0.9646089077	156.0	140.0	151	149	1
2.7	2015_May_21_1102	s	s	9	2	Capacity	55	RC	0	2	15RD 08RO	0	1	2.11812901497	-234.0	310.0	None	None	0
2.7	2015_May_21_1102	s	s	9	2	Capacity	56	ABS	0	1	08RD 16RO	0	1	3.77531599998	None	None	None	None	1
2.7	2015_May_21_1102	s	s	9	2	Capacity	57	ABS	0	1	08RD 16RO	0	1	2.65957093239	None	None	None	None	1
2.7	2015_May_21_1102	s	s	9	2	Capacity	58	RC	0	1	08RD 15RO	1	0	1.43540883064	404.0	26.0	403	32	1
2.7	2015_May_21_1102	s	s	9	2	Capacity	59	ABS	0	2	16RD 08RO	0	1	2.84786200523	None	None	None	None	1
2.7	2015_May_21_1102	s	s	9	2	Capacity	60	RC	0	2	15RD 08RO	1	0	1.71829390526	-514.0	-408.0	-516	-402	1
2.7	2015_May_21_1102	s	s	9	2	Capacity	61	ABS	0	1	08RD 16RO	0	1	3.39623498917	None	None	None	None	1
2.7	2015_May_21_1102	s	s	9	2	Capacity	62	ABS	0	2	16RD 08RO	0	1	2.34171509743	None	None	None	None	1
2.7	2015_May_21_1102	s	s	9	2	Capacity	63	RC	0	1	08RD 15RO	0	1	2.10611891747	-232.0	235.0	None	None	0
2.7	2015_May_21_1102	s	s	9	2	Capacity	64	RC	0	2	15RD 08RO	1	0	1.54132509232	538.0	325.0	534	333	1
2.7	2015_May_21_1102	s	s	9	2	SIC	1	ABS	2	0	02VD 02VO 10VC 02MD 02MO 02MC 02RD 02RO	0	1	2.70209789276	None	None	None	None	1
2.7	2015_May_21_1102	s	s	9	2	SIC	2	RC	0	2	02VD 02VO 02VC 02MD 02MO 02MC 09RD 02RO	1	0	1.67082190514	177.0	321.0	173	329	1
2.7	2015_May_21_1102	s	s	9	2	SIC	3	ABS	2	1	02VD 10VO 02VC 02MD 02MO 02MC 02RD 02RO	0	1	2.37063312531	None	None	None	None	1
2.7	2015_May_21_1102	s	s	9	2	SIC	4	RC	0	1	02VD 02VO 02VC 02MD 02MO 02MC 02RD 09RO	1	0	3.59610295296	405.0	-200.0	402	-196	1
2.7	2015_May_21_1102	s	s	9	2	SIC	5	ABS	0	1	02VD 02VO 02VC 02MD 02MO 02MC 02RD 10RO	0	1	3.06591582298	None	None	None	None	1
2.7	2015_May_21_1102	s	s	9	2	SIC	6	ABS	2	2	10VD 02VO 02VC 02MD 02MO 02MC 02RD 02RO	0	1	2.16524100304	None	None	None	None	1
2.7	2015_May_21_1102	s	s	9	2	SIC	7	ABS	0	2	02VD 02VO 02VC 02MD 02MO 02MC 10RD 02RO	0	1	2.00956010818	None	None	None	None	1
2.7	2015_May_21_1102	s	s	9	2	SIC	8	RC	2	1	02VD 09VO 02VC 02MD 02MO 02MC 02RD 02RO	1	0	1.63551020622	497.0	53.0	503	57	1
2.7	2015_May_21_1102	s	s	9	2	SIC	9	ABS	1	0	02VD 02VO 02VC 02MD 02MO 10MC 02RD 02RO	0	1	2.13565397263	None	None	None	None	1
2.7	2015_May_21_1102	s	s	9	2	SIC	10	ABS	1	1	02VD 02VO 02VC 02MD 10MO 02MC 02RD 02RO	0	1	2.74234199524	None	None	None	None	1
2.7	2015_May_21_1102	s	s	9	2	SIC	11	RC	1	1	02VD 02VO 02VC 02MD 09MO 02MC 02RD 02RO	0	1	3.01741099358	38.0	-240.0	None	None	0
2.7	2015_May_21_1102	s	s	9	2	SIC	12	RC	2	2	09VD 02VO 02VC 02MD 02MO 02MC 02RD 02RO	1	0	1.64249801636	-180.0	-214.0	-182	-212	1
2.7	2015_May_21_1102	s	s	9	2	SIC	13	RC	2	0	02VD 02VO 09VC 02MD 02MO 02MC 02RD 02RO	1	0	1.40578508377	-153.0	160.0	-153	162	1
2.7	2015_May_21_1102	s	s	9	2	SIC	14	RC	1	2	02VD 02VO 02VC 09MD 02MO 02MC 02RD 02RO	1	0	1.68250799179	444.0	134.0	441	140	1
2.7	2015_May_21_1102	s	s	9	2	SIC	15	ABS	1	2	02VD 02VO 02VC 10MD 02MO 02MC 02RD 02RO	0	1	1.70126008987	None	None	None	None	1
2.7	2015_May_21_1102	s	s	9	2	SIC	16	RC	1	0	02VD 02VO 02VC 02MD 02MO 09MC 02RD 02RO	1	0	2.14850711823	-305.0	-302.0	-310	-293	1
2.7	2015_May_21_1102	s	s	9	2	SIC	17	RC	1	1	02VD 02VO 02VC 02MD 09MO 02MC 02RD 02RO	1	0	1.22350597382	-449.0	-304.0	-453	-295	1
2.7	2015_May_21_1102	s	s	9	2	SIC	18	ABS	1	2	02VD 02VO 02VC 10MD 02MO 02MC 02RD 02RO	0	1	1.79534292221	None	None	None	None	1
2.7	2015_May_21_1102	s	s	9	2	SIC	19	ABS	2	0	02VD 02VO 10VC 02MD 02MO 02MC 02RD 02RO	1	0	3.21276903152	None	None	-510	-197	0
2.7	2015_May_21_1102	s	s	9	2	SIC	20	ABS	0	2	02VD 02VO 02VC 02MD 02MO 02MC 10RD 02RO	0	1	2.3390610218	None	None	None	None	1
2.7	2015_May_21_1102	s	s	9	2	SIC	21	RC	0	1	02VD 02VO 02VC 02MD 02MO 02MC 02RD 09RO	0	1	2.8089530468	26.0	-172.0	None	None	0
2.7	2015_May_21_1102	s	s	9	2	SIC	22	ABS	2	1	02VD 10VO 02VC 02MD 02MO 02MC 02RD 02RO	0	1	1.91262984276	None	None	None	None	1
2.7	2015_May_21_1102	s	s	9	2	SIC	23	ABS	1	0	02VD 02VO 02VC 02MD 02MO 10MC 02RD 02RO	0	1	1.37315917015	None	None	None	None	1
2.7	2015_May_21_1102	s	s	9	2	SIC	24	RC	1	0	02VD 02VO 02VC 02MD 02MO 09MC 02RD 02RO	1	0	1.54130911827	435.0	59.0	429	64	1
2.7	2015_May_21_1102	s	s	9	2	SIC	25	ABS	0	1	02VD 02VO 02VC 02MD 02MO 02MC 02RD 10RO	0	1	2.80081605911	None	None	None	None	1
2.7	2015_May_21_1102	s	s	9	2	SIC	26	RC	2	0	02VD 02VO 09VC 02MD 02MO 02MC 02RD 02RO	1	0	1.65899801254	-509.0	287.0	-506	293	1
2.7	2015_May_21_1102	s	s	9	2	SIC	27	RC	2	1	02VD 09VO 02VC 02MD 02MO 02MC 02RD 02RO	0	1	2.64474201202	-32.0	275.0	None	None	0
2.7	2015_May_21_1102	s	s	9	2	SIC	28	ABS	1	1	02VD 02VO 02VC 02MD 10MO 02MC 02RD 02RO	0	1	2.33007097244	None	None	None	None	1
2.7	2015_May_21_1102	s	s	9	2	SIC	29	RC	2	2	09VD 02VO 02VC 02MD 02MO 02MC 02RD 02RO	0	1	2.42107391357	-316.0	-217.0	None	None	0
2.7	2015_May_21_1102	s	s	9	2	SIC	30	ABS	2	2	10VD 02VO 02VC 02MD 02MO 02MC 02RD 02RO	0	1	1.93661117554	None	None	None	None	1
2.7	2015_May_21_1102	s	s	9	2	SIC	31	RC	1	2	02VD 02VO 02VC 09MD 02MO 02MC 02RD 02RO	1	0	2.03571486473	-265.0	-251.0	-268	-242	1
2.7	2015_May_21_1102	s	s	9	2	SIC	32	RC	0	2	02VD 02VO 02VC 02MD 02MO 02MC 09RD 02RO	1	0	1.73890709877	464.0	60.0	458	65	1
2.7	2015_May_21_1102	s	s	9	2	SIC	33	RC	1	1	02VD 02VO 02VC 02MD 09MO 02MC 02RD 02RO	1	0	3.24798607826	224.0	42.0	222	48	1
2.7	2015_May_21_1102	s	s	9	2	SIC	34	RC	2	2	09VD 02VO 02VC 02MD 02MO 02MC 02RD 02RO	1	0	2.57243299484	272.0	-260.0	269	-260	1
2.7	2015_May_21_1102	s	s	9	2	SIC	35	RC	1	0	02VD 02VO 02VC 02MD 02MO 09MC 02RD 02RO	1	0	1.54822206497	9.0	298.0	8	304	1
2.7	2015_May_21_1102	s	s	9	2	SIC	36	ABS	0	1	02VD 02VO 02VC 02MD 02MO 02MC 02RD 10RO	0	1	2.83118104935	None	None	None	None	1
2.7	2015_May_21_1102	s	s	9	2	SIC	37	ABS	1	0	02VD 02VO 02VC 02MD 02MO 10MC 02RD 02RO	0	1	2.71348190308	None	None	None	None	1
2.7	2015_May_21_1102	s	s	9	2	SIC	38	RC	2	0	02VD 02VO 09VC 02MD 02MO 02MC 02RD 02RO	1	0	1.1475789547	-38.0	74.0	-40	84	1
2.7	2015_May_21_1102	s	s	9	2	SIC	39	ABS	1	1	02VD 02VO 02VC 02MD 10MO 02MC 02RD 02RO	0	1	3.32468295097	None	None	None	None	1
2.7	2015_May_21_1102	s	s	9	2	SIC	40	RC	2	1	02VD 09VO 02VC 02MD 02MO 02MC 02RD 02RO	1	0	0.987976789474	-428.0	127.0	-426	131	1
2.7	2015_May_21_1102	s	s	9	2	SIC	41	ABS	2	1	02VD 10VO 02VC 02MD 02MO 02MC 02RD 02RO	0	1	1.58064603806	None	None	None	None	1
2.7	2015_May_21_1102	s	s	9	2	SIC	42	RC	0	1	02VD 02VO 02VC 02MD 02MO 02MC 02RD 09RO	1	0	1.19995999336	418.0	104.0	415	105	1
2.7	2015_May_21_1102	s	s	9	2	SIC	43	RC	0	2	02VD 02VO 02VC 02MD 02MO 02MC 09RD 02RO	1	0	3.3421959877	46.0	18.0	39	24	1
2.7	2015_May_21_1102	s	s	9	2	SIC	44	ABS	0	2	02VD 02VO 02VC 02MD 02MO 02MC 10RD 02RO	0	1	1.71773982048	None	None	None	None	1
2.7	2015_May_21_1102	s	s	9	2	SIC	45	ABS	2	0	02VD 02VO 10VC 02MD 02MO 02MC 02RD 02RO	0	1	1.70239782333	None	None	None	None	1
2.7	2015_May_21_1102	s	s	9	2	SIC	46	ABS	2	2	10VD 02VO 02VC 02MD 02MO 02MC 02RD 02RO	0	1	2.03058004379	None	None	None	None	1
2.7	2015_May_21_1102	s	s	9	2	SIC	47	RC	1	2	02VD 02VO 02VC 09MD 02MO 02MC 02RD 02RO	0	1	2.00694799423	-417.0	-107.0	None	None	0
2.7	2015_May_21_1102	s	s	9	2	SIC	48	ABS	1	2	02VD 02VO 02VC 10MD 02MO 02MC 02RD 02RO	0	1	2.11249279976	None	None	None	None	1
2.7	2015_May_21_1102	s	s	9	2	SIC	49	RC	0	2	02VD 02VO 02VC 02MD 02MO 02MC 09RD 02RO	1	0	2.23174715042	-341.0	-351.0	-345	-345	1
2.7	2015_May_21_1102	s	s	9	2	SIC	50	ABS	1	0	02VD 02VO 02VC 02MD 02MO 10MC 02RD 02RO	0	1	2.0660738945	None	None	None	None	1
2.7	2015_May_21_1102	s	s	9	2	SIC	51	ABS	2	2	10VD 02VO 02VC 02MD 02MO 02MC 02RD 02RO	0	1	2.08318996429	None	None	None	None	1
2.7	2015_May_21_1102	s	s	9	2	SIC	52	ABS	2	0	02VD 02VO 10VC 02MD 02MO 02MC 02RD 02RO	0	1	2.253895998	None	None	None	None	1
2.7	2015_May_21_1102	s	s	9	2	SIC	53	ABS	0	1	02VD 02VO 02VC 02MD 02MO 02MC 02RD 10RO	0	1	3.71933507919	None	None	None	None	1
2.7	2015_May_21_1102	s	s	9	2	SIC	54	RC	1	0	02VD 02VO 02VC 02MD 02MO 09MC 02RD 02RO	1	0	2.52504587173	-410.0	102.0	-409	105	1
2.7	2015_May_21_1102	s	s	9	2	SIC	55	ABS	2	1	02VD 10VO 02VC 02MD 02MO 02MC 02RD 02RO	0	1	2.14161801338	None	None	None	None	1
2.7	2015_May_21_1102	s	s	9	2	SIC	56	RC	1	2	02VD 02VO 02VC 09MD 02MO 02MC 02RD 02RO	1	0	2.10152602196	172.0	-377.0	163	-376	1
2.7	2015_May_21_1102	s	s	9	2	SIC	57	RC	2	0	02VD 02VO 09VC 02MD 02MO 02MC 02RD 02RO	1	0	1.03514194489	-57.0	89.0	-64	89	1
2.7	2015_May_21_1102	s	s	9	2	SIC	58	ABS	1	1	02VD 02VO 02VC 02MD 10MO 02MC 02RD 02RO	0	1	3.09043192863	None	None	None	None	1
2.7	2015_May_21_1102	s	s	9	2	SIC	59	ABS	0	2	02VD 02VO 02VC 02MD 02MO 02MC 10RD 02RO	0	1	2.55356502533	None	None	None	None	1
2.7	2015_May_21_1102	s	s	9	2	SIC	60	RC	2	1	02VD 09VO 02VC 02MD 02MO 02MC 02RD 02RO	1	0	1.45920205116	155.0	-8.0	151	-7	1
2.7	2015_May_21_1102	s	s	9	2	SIC	61	RC	1	1	02VD 02VO 02VC 02MD 09MO 02MC 02RD 02RO	0	1	2.40731596947	525.0	-143.0	None	None	0
2.7	2015_May_21_1102	s	s	9	2	SIC	62	RC	2	2	09VD 02VO 02VC 02MD 02MO 02MC 02RD 02RO	1	0	1.12935996056	-331.0	394.0	-328	394	1
2.7	2015_May_21_1102	s	s	9	2	SIC	63	RC	0	1	02VD 02VO 02VC 02MD 02MO 02MC 02RD 09RO	1	0	1.40016198158	-354.0	196.0	-354	196	1
2.7	2015_May_21_1102	s	s	9	2	SIC	64	ABS	1	2	02VD 02VO 02VC 10MD 02MO 02MC 02RD 02RO	0	1	2.63085389137	None	None	None	None	1
2.7	2015_May_21_1102	s	s	9	2	SIC	65	RC	1	2	02VD 02VO 02VC 09MD 02MO 02MC 02RD 02RO	1	0	1.56236600876	411.0	-165.0	404	-163	1
2.7	2015_May_21_1102	s	s	9	2	SIC	66	ABS	2	2	10VD 02VO 02VC 02MD 02MO 02MC 02RD 02RO	0	1	2.02402091026	None	None	None	None	1
2.7	2015_May_21_1102	s	s	9	2	SIC	67	ABS	0	2	02VD 02VO 02VC 02MD 02MO 02MC 10RD 02RO	0	1	2.36031913757	None	None	None	None	1
2.7	2015_May_21_1102	s	s	9	2	SIC	68	ABS	2	0	02VD 02VO 10VC 02MD 02MO 02MC 02RD 02RO	0	1	1.98855781555	None	None	None	None	1
2.7	2015_May_21_1102	s	s	9	2	SIC	69	ABS	1	0	02VD 02VO 02VC 02MD 02MO 10MC 02RD 02RO	0	1	2.46622800827	None	None	None	None	1
2.7	2015_May_21_1102	s	s	9	2	SIC	70	RC	0	1	02VD 02VO 02VC 02MD 02MO 02MC 02RD 09RO	0	1	3.1487839222	-176.0	411.0	None	None	0
2.7	2015_May_21_1102	s	s	9	2	SIC	71	RC	2	2	09VD 02VO 02VC 02MD 02MO 02MC 02RD 02RO	1	0	1.9182100296	-43.0	386.0	-47	394	1
2.7	2015_May_21_1102	s	s	9	2	SIC	72	RC	1	0	02VD 02VO 02VC 02MD 02MO 09MC 02RD 02RO	1	0	2.11383414268	-293.0	236.0	-298	241	1
2.7	2015_May_21_1102	s	s	9	2	SIC	73	RC	2	1	02VD 09VO 02VC 02MD 02MO 02MC 02RD 02RO	1	0	1.466796875	90.0	95.0	87	102	1
2.7	2015_May_21_1102	s	s	9	2	SIC	74	ABS	2	1	02VD 10VO 02VC 02MD 02MO 02MC 02RD 02RO	0	1	2.61907315254	None	None	None	None	1
2.7	2015_May_21_1102	s	s	9	2	SIC	75	RC	2	0	02VD 02VO 09VC 02MD 02MO 02MC 02RD 02RO	1	0	2.03086495399	-466.0	219.0	-469	224	1
2.7	2015_May_21_1102	s	s	9	2	SIC	76	RC	1	1	02VD 02VO 02VC 02MD 09MO 02MC 02RD 02RO	1	0	1.2769370079	284.0	231.0	282	236	1
2.7	2015_May_21_1102	s	s	9	2	SIC	77	RC	0	2	02VD 02VO 02VC 02MD 02MO 02MC 09RD 02RO	1	0	1.72494101524	-236.0	-17.0	-234	-13	1
2.7	2015_May_21_1102	s	s	9	2	SIC	78	ABS	1	1	02VD 02VO 02VC 02MD 10MO 02MC 02RD 02RO	0	1	2.60050582886	None	None	None	None	1
2.7	2015_May_21_1102	s	s	9	2	SIC	79	ABS	0	1	02VD 02VO 02VC 02MD 02MO 02MC 02RD 10RO	0	1	4.2206158638	None	None	None	None	1
2.7	2015_May_21_1102	s	s	9	2	SIC	80	ABS	1	2	02VD 02VO 02VC 10MD 02MO 02MC 02RD 02RO	0	1	2.63096308708	None	None	None	None	1
2.7	2015_May_21_1102	s	s	9	2	SIC	81	RC	2	0	02VD 02VO 09VC 02MD 02MO 02MC 02RD 02RO	1	0	2.46678090096	-161.0	-123.0	-164	-119	1
2.7	2015_May_21_1102	s	s	9	2	SIC	82	ABS	2	0	02VD 02VO 10VC 02MD 02MO 02MC 02RD 02RO	0	1	3.05536103249	None	None	None	None	1
2.7	2015_May_21_1102	s	s	9	2	SIC	83	RC	1	2	02VD 02VO 02VC 09MD 02MO 02MC 02RD 02RO	1	0	1.6909661293	-243.0	-293.0	-247	-288	1
2.7	2015_May_21_1102	s	s	9	2	SIC	84	RC	2	1	02VD 09VO 02VC 02MD 02MO 02MC 02RD 02RO	1	0	2.24193382263	-510.0	-212.0	-511	-203	1
2.7	2015_May_21_1102	s	s	9	2	SIC	85	ABS	1	1	02VD 02VO 02VC 02MD 10MO 02MC 02RD 02RO	1	0	0.135742902756	None	None	-202	-3	0
2.7	2015_May_21_1102	s	s	9	2	SIC	86	RC	1	1	02VD 02VO 02VC 02MD 09MO 02MC 02RD 02RO	1	0	2.39552497864	-215.0	-44.0	-213	-40	1
2.7	2015_May_21_1102	s	s	9	2	SIC	87	ABS	0	1	02VD 02VO 02VC 02MD 02MO 02MC 02RD 10RO	0	1	3.15387797356	None	None	None	None	1
2.7	2015_May_21_1102	s	s	9	2	SIC	88	RC	0	1	02VD 02VO 02VC 02MD 02MO 02MC 02RD 09RO	1	0	0.988197088242	-376.0	82.0	-379	87	1
2.7	2015_May_21_1102	s	s	9	2	SIC	89	ABS	2	2	10VD 02VO 02VC 02MD 02MO 02MC 02RD 02RO	0	1	3.37426304817	None	None	None	None	1
2.7	2015_May_21_1102	s	s	9	2	SIC	90	ABS	1	2	02VD 02VO 02VC 10MD 02MO 02MC 02RD 02RO	0	1	2.55356907845	None	None	None	None	1
2.7	2015_May_21_1102	s	s	9	2	SIC	91	ABS	0	2	02VD 02VO 02VC 02MD 02MO 02MC 10RD 02RO	0	1	2.66644191742	None	None	None	None	1
2.7	2015_May_21_1102	s	s	9	2	SIC	92	ABS	1	0	02VD 02VO 02VC 02MD 02MO 10MC 02RD 02RO	0	1	3.22456502914	None	None	None	None	1
2.7	2015_May_21_1102	s	s	9	2	SIC	93	RC	0	2	02VD 02VO 02VC 02MD 02MO 02MC 09RD 02RO	0	1	0.49830698967	-340.0	407.0	None	None	0
2.7	2015_May_21_1102	s	s	9	2	SIC	94	ABS	2	1	02VD 10VO 02VC 02MD 02MO 02MC 02RD 02RO	0	1	2.2476041317	None	None	None	None	1
2.7	2015_May_21_1102	s	s	9	2	SIC	95	RC	1	0	02VD 02VO 02VC 02MD 02MO 09MC 02RD 02RO	1	0	1.59539818764	-473.0	-264.0	-481	-263	1
2.7	2015_May_21_1102	s	s	9	2	SIC	96	RC	2	2	09VD 02VO 02VC 02MD 02MO 02MC 02RD 02RO	0	1	2.31326889992	506.0	-133.0	None	None	0
2.7	2015_May_21_1102	s	s	9	2	SIC	97	RC	1	0	02VD 02VO 02VC 02MD 02MO 09MC 02RD 02RO	1	0	1.35996294022	-304.0	51.0	-297	46	1
2.7	2015_May_21_1102	s	s	9	2	SIC	98	ABS	2	0	02VD 02VO 10VC 02MD 02MO 02MC 02RD 02RO	0	1	2.64288210869	None	None	None	None	1
2.7	2015_May_21_1102	s	s	9	2	SIC	99	RC	0	2	02VD 02VO 02VC 02MD 02MO 02MC 09RD 02RO	0	1	2.12480592728	-40.0	377.0	None	None	0
2.7	2015_May_21_1102	s	s	9	2	SIC	100	RC	2	2	09VD 02VO 02VC 02MD 02MO 02MC 02RD 02RO	1	0	1.23526406288	220.0	336.0	222	333	1
2.7	2015_May_21_1102	s	s	9	2	SIC	101	ABS	0	1	02VD 02VO 02VC 02MD 02MO 02MC 02RD 10RO	0	1	3.65229415894	None	None	None	None	1
2.7	2015_May_21_1102	s	s	9	2	SIC	102	RC	1	2	02VD 02VO 02VC 09MD 02MO 02MC 02RD 02RO	1	0	0.737993001938	-99.0	165.0	-104	172	1
2.7	2015_May_21_1102	s	s	9	2	SIC	103	RC	1	1	02VD 02VO 02VC 02MD 09MO 02MC 02RD 02RO	1	0	3.26662492752	-373.0	-315.0	-375	-311	1
2.7	2015_May_21_1102	s	s	9	2	SIC	104	ABS	2	2	10VD 02VO 02VC 02MD 02MO 02MC 02RD 02RO	0	1	2.52491092682	None	None	None	None	1
2.7	2015_May_21_1102	s	s	9	2	SIC	105	ABS	1	1	02VD 02VO 02VC 02MD 10MO 02MC 02RD 02RO	0	1	2.33837795258	None	None	None	None	1
2.7	2015_May_21_1102	s	s	9	2	SIC	106	ABS	2	1	02VD 10VO 02VC 02MD 02MO 02MC 02RD 02RO	0	1	1.70120310783	None	None	None	None	1
2.7	2015_May_21_1102	s	s	9	2	SIC	107	RC	2	1	02VD 09VO 02VC 02MD 02MO 02MC 02RD 02RO	1	0	1.28915691376	53.0	371.0	49	378	1
2.7	2015_May_21_1102	s	s	9	2	SIC	108	RC	2	0	02VD 02VO 09VC 02MD 02MO 02MC 02RD 02RO	1	0	1.75016713142	299.0	-102.0	295	-95	1
2.7	2015_May_21_1102	s	s	9	2	SIC	109	ABS	0	2	02VD 02VO 02VC 02MD 02MO 02MC 10RD 02RO	0	1	2.47122001648	None	None	None	None	1
2.7	2015_May_21_1102	s	s	9	2	SIC	110	ABS	1	2	02VD 02VO 02VC 10MD 02MO 02MC 02RD 02RO	0	1	2.81006908417	None	None	None	None	1
2.7	2015_May_21_1102	s	s	9	2	SIC	111	RC	0	1	02VD 02VO 02VC 02MD 02MO 02MC 02RD 09RO	1	0	2.63602304459	-473.0	-17.0	-479	-11	1
2.7	2015_May_21_1102	s	s	9	2	SIC	112	ABS	1	0	02VD 02VO 02VC 02MD 02MO 10MC 02RD 02RO	0	1	2.55369305611	None	None	None	None	1
2.7	2015_May_21_1102	s	s	9	2	SIC	113	RC	2	1	02VD 09VO 02VC 02MD 02MO 02MC 02RD 02RO	1	0	0.99650812149	-152.0	31.0	-152	36	1
2.7	2015_May_21_1102	s	s	9	2	SIC	114	RC	1	2	02VD 02VO 02VC 09MD 02MO 02MC 02RD 02RO	1	0	2.14156913757	530.0	-185.0	527	-179	1
2.7	2015_May_21_1102	s	s	9	2	SIC	115	RC	2	0	02VD 02VO 09VC 02MD 02MO 02MC 02RD 02RO	1	0	0.936726808548	-162.0	143.0	-170	150	1
2.7	2015_May_21_1102	s	s	9	2	SIC	116	ABS	1	0	02VD 02VO 02VC 02MD 02MO 10MC 02RD 02RO	0	1	3.79596400261	None	None	None	None	1
2.7	2015_May_21_1102	s	s	9	2	SIC	117	ABS	2	1	02VD 10VO 02VC 02MD 02MO 02MC 02RD 02RO	0	1	2.86610603333	None	None	None	None	1
2.7	2015_May_21_1102	s	s	9	2	SIC	118	ABS	0	2	02VD 02VO 02VC 02MD 02MO 02MC 10RD 02RO	0	1	2.51329398155	None	None	None	None	1
2.7	2015_May_21_1102	s	s	9	2	SIC	119	ABS	0	1	02VD 02VO 02VC 02MD 02MO 02MC 02RD 10RO	0	1	3.44318199158	None	None	None	None	1
2.7	2015_May_21_1102	s	s	9	2	SIC	120	RC	0	2	02VD 02VO 02VC 02MD 02MO 02MC 09RD 02RO	1	0	2.1598379612	-212.0	-246.0	-217	-240	1
2.7	2015_May_21_1102	s	s	9	2	SIC	121	ABS	2	0	02VD 02VO 10VC 02MD 02MO 02MC 02RD 02RO	0	1	1.59757399559	None	None	None	None	1
2.7	2015_May_21_1102	s	s	9	2	SIC	122	RC	2	2	09VD 02VO 02VC 02MD 02MO 02MC 02RD 02RO	1	0	1.11255502701	193.0	-323.0	192	-317	1
2.7	2015_May_21_1102	s	s	9	2	SIC	123	ABS	1	1	02VD 02VO 02VC 02MD 10MO 02MC 02RD 02RO	0	1	1.96495604515	None	None	None	None	1
2.7	2015_May_21_1102	s	s	9	2	SIC	124	RC	1	0	02VD 02VO 02VC 02MD 02MO 09MC 02RD 02RO	1	0	1.33827781677	-79.0	-216.0	-85	-209	1
2.7	2015_May_21_1102	s	s	9	2	SIC	125	ABS	1	2	02VD 02VO 02VC 10MD 02MO 02MC 02RD 02RO	0	1	2.0239470005	None	None	None	None	1
2.7	2015_May_21_1102	s	s	9	2	SIC	126	RC	1	1	02VD 02VO 02VC 02MD 09MO 02MC 02RD 02RO	1	0	0.835358858109	-241.0	-92.0	-246	-85	1
2.7	2015_May_21_1102	s	s	9	2	SIC	127	ABS	2	2	10VD 02VO 02VC 02MD 02MO 02MC 02RD 02RO	0	1	1.63046908379	None	None	None	None	1
2.7	2015_May_21_1102	s	s	9	2	SIC	128	RC	0	1	02VD 02VO 02VC 02MD 02MO 02MC 02RD 09RO	1	0	0.952735900879	-64.0	171.0	-67	179	1
2.7	2015_May_21_1102	s	s	9	2	SIC	129	RC	2	2	09VD 02VO 02VC 02MD 02MO 02MC 02RD 02RO	0	1	1.6787648201	-214.0	304.0	None	None	0
2.7	2015_May_21_1102	s	s	9	2	SIC	130	RC	0	1	02VD 02VO 02VC 02MD 02MO 02MC 02RD 09RO	1	0	0.712639093399	-126.0	165.0	-134	168	1
2.7	2015_May_21_1102	s	s	9	2	SIC	131	ABS	1	0	02VD 02VO 02VC 02MD 02MO 10MC 02RD 02RO	0	1	2.93658900261	None	None	None	None	1
2.7	2015_May_21_1102	s	s	9	2	SIC	132	ABS	1	1	02VD 02VO 02VC 02MD 10MO 02MC 02RD 02RO	0	1	3.00081896782	None	None	None	None	1
2.7	2015_May_21_1102	s	s	9	2	SIC	133	ABS	2	0	02VD 02VO 10VC 02MD 02MO 02MC 02RD 02RO	0	1	1.74844098091	None	None	None	None	1
2.7	2015_May_21_1102	s	s	9	2	SIC	134	RC	2	1	02VD 09VO 02VC 02MD 02MO 02MC 02RD 02RO	1	0	0.913761138916	-166.0	261.0	-160	255	1
2.7	2015_May_21_1102	s	s	9	2	SIC	135	ABS	0	1	02VD 02VO 02VC 02MD 02MO 02MC 02RD 10RO	0	1	2.60715794563	None	None	None	None	1
2.7	2015_May_21_1102	s	s	9	2	SIC	136	RC	2	0	02VD 02VO 09VC 02MD 02MO 02MC 02RD 02RO	1	0	1.21871590614	294.0	183.0	288	188	1
2.7	2015_May_21_1102	s	s	9	2	SIC	137	ABS	1	2	02VD 02VO 02VC 10MD 02MO 02MC 02RD 02RO	0	1	2.25930595398	None	None	None	None	1
2.7	2015_May_21_1102	s	s	9	2	SIC	138	RC	0	2	02VD 02VO 02VC 02MD 02MO 02MC 09RD 02RO	1	0	1.18244791031	290.0	175.0	287	181	1
2.7	2015_May_21_1102	s	s	9	2	SIC	139	RC	1	0	02VD 02VO 02VC 02MD 02MO 09MC 02RD 02RO	1	0	2.54181909561	51.0	-213.0	51	-207	1
2.7	2015_May_21_1102	s	s	9	2	SIC	140	ABS	2	2	10VD 02VO 02VC 02MD 02MO 02MC 02RD 02RO	0	1	2.39687108994	None	None	None	None	1
2.7	2015_May_21_1102	s	s	9	2	SIC	141	ABS	2	1	02VD 10VO 02VC 02MD 02MO 02MC 02RD 02RO	0	1	2.59548807144	None	None	None	None	1
2.7	2015_May_21_1102	s	s	9	2	SIC	142	ABS	0	2	02VD 02VO 02VC 02MD 02MO 02MC 10RD 02RO	0	1	1.6886909008	None	None	None	None	1
2.7	2015_May_21_1102	s	s	9	2	SIC	143	RC	1	2	02VD 02VO 02VC 09MD 02MO 02MC 02RD 02RO	0	1	1.68951010704	-514.0	-140.0	None	None	0
2.7	2015_May_21_1102	s	s	9	2	SIC	144	RC	1	1	02VD 02VO 02VC 02MD 09MO 02MC 02RD 02RO	1	0	1.20700502396	10.0	235.0	-2	243	1
2.7	2015_May_21_1102	s	s	9	2	SIC	145	ABS	2	1	02VD 10VO 02VC 02MD 02MO 02MC 02RD 02RO	0	1	2.62419915199	None	None	None	None	1
2.7	2015_May_21_1102	s	s	9	2	SIC	146	ABS	0	1	02VD 02VO 02VC 02MD 02MO 02MC 02RD 10RO	0	1	5.11604595184	None	None	None	None	1
2.7	2015_May_21_1102	s	s	9	2	SIC	147	RC	2	1	02VD 09VO 02VC 02MD 02MO 02MC 02RD 02RO	1	0	1.25652313232	-203.0	-113.0	-208	-110	1
2.7	2015_May_21_1102	s	s	9	2	SIC	148	ABS	2	2	10VD 02VO 02VC 02MD 02MO 02MC 02RD 02RO	0	1	1.85404801369	None	None	None	None	1
2.7	2015_May_21_1102	s	s	9	2	SIC	149	ABS	1	2	02VD 02VO 02VC 10MD 02MO 02MC 02RD 02RO	0	1	1.86790204048	None	None	None	None	1
2.7	2015_May_21_1102	s	s	9	2	SIC	150	ABS	1	1	02VD 02VO 02VC 02MD 10MO 02MC 02RD 02RO	0	1	1.76020121574	None	None	None	None	1
2.7	2015_May_21_1102	s	s	9	2	SIC	151	ABS	0	2	02VD 02VO 02VC 02MD 02MO 02MC 10RD 02RO	0	1	1.5481569767	None	None	None	None	1
2.7	2015_May_21_1102	s	s	9	2	SIC	152	RC	1	0	02VD 02VO 02VC 02MD 02MO 09MC 02RD 02RO	1	0	2.72425889969	-488.0	24.0	-491	30	1
2.7	2015_May_21_1102	s	s	9	2	SIC	153	RC	0	2	02VD 02VO 02VC 02MD 02MO 02MC 09RD 02RO	1	0	1.82379698753	189.0	-138.0	185	-131	1
2.7	2015_May_21_1102	s	s	9	2	SIC	154	ABS	2	0	02VD 02VO 10VC 02MD 02MO 02MC 02RD 02RO	0	1	2.40736484528	None	None	None	None	1
2.7	2015_May_21_1102	s	s	9	2	SIC	155	RC	2	2	09VD 02VO 02VC 02MD 02MO 02MC 02RD 02RO	1	0	1.34788990021	-112.0	38.0	-118	42	1
2.7	2015_May_21_1102	s	s	9	2	SIC	156	ABS	1	0	02VD 02VO 02VC 02MD 02MO 10MC 02RD 02RO	0	1	4.29106807709	None	None	None	None	1
2.7	2015_May_21_1102	s	s	9	2	SIC	157	RC	1	1	02VD 02VO 02VC 02MD 09MO 02MC 02RD 02RO	0	1	3.00700092316	-407.0	319.0	None	None	0
2.7	2015_May_21_1102	s	s	9	2	SIC	158	RC	1	2	02VD 02VO 02VC 09MD 02MO 02MC 02RD 02RO	1	0	1.98291015625	516.0	246.0	512	255	1
2.7	2015_May_21_1102	s	s	9	2	SIC	159	RC	0	1	02VD 02VO 02VC 02MD 02MO 02MC 02RD 09RO	1	0	3.10682106018	-401.0	-88.0	-406	-78	1
2.7	2015_May_21_1102	s	s	9	2	SIC	160	RC	2	0	02VD 02VO 09VC 02MD 02MO 02MC 02RD 02RO	1	0	1.35996103287	-354.0	110.0	-361	118	1
2.7	2015_May_21_1102	s	s	9	2	SIC	161	ABS	2	2	10VD 02VO 02VC 02MD 02MO 02MC 02RD 02RO	0	1	1.23036789894	None	None	None	None	1
2.7	2015_May_21_1102	s	s	9	2	SIC	162	RC	1	1	02VD 02VO 02VC 02MD 09MO 02MC 02RD 02RO	0	1	2.42043614388	-536.0	77.0	None	None	0
2.7	2015_May_21_1102	s	s	9	2	SIC	163	RC	2	1	02VD 09VO 02VC 02MD 02MO 02MC 02RD 02RO	1	0	1.03176689148	-186.0	73.0	-189	82	1
2.7	2015_May_21_1102	s	s	9	2	SIC	164	ABS	0	2	02VD 02VO 02VC 02MD 02MO 02MC 10RD 02RO	0	1	2.83612394333	None	None	None	None	1
2.7	2015_May_21_1102	s	s	9	2	SIC	165	RC	1	2	02VD 02VO 02VC 09MD 02MO 02MC 02RD 02RO	1	0	1.08226513863	-33.0	-169.0	-34	-162	1
2.7	2015_May_21_1102	s	s	9	2	SIC	166	RC	1	0	02VD 02VO 02VC 02MD 02MO 09MC 02RD 02RO	1	0	2.54852795601	501.0	-19.0	495	-12	1
2.7	2015_May_21_1102	s	s	9	2	SIC	167	ABS	1	2	02VD 02VO 02VC 10MD 02MO 02MC 02RD 02RO	0	1	1.84738612175	None	None	None	None	1
2.7	2015_May_21_1102	s	s	9	2	SIC	168	RC	0	2	02VD 02VO 02VC 02MD 02MO 02MC 09RD 02RO	1	0	1.32432198524	-214.0	59.0	-219	67	1
2.7	2015_May_21_1102	s	s	9	2	SIC	169	RC	0	1	02VD 02VO 02VC 02MD 02MO 02MC 02RD 09RO	1	0	1.40002703667	-528.0	-252.0	-531	-244	1
2.7	2015_May_21_1102	s	s	9	2	SIC	170	RC	2	0	02VD 02VO 09VC 02MD 02MO 02MC 02RD 02RO	1	0	1.48912191391	-111.0	-215.0	-113	-210	1
2.7	2015_May_21_1102	s	s	9	2	SIC	171	ABS	2	1	02VD 10VO 02VC 02MD 02MO 02MC 02RD 02RO	0	1	2.81241798401	None	None	None	None	1
2.7	2015_May_21_1102	s	s	9	2	SIC	172	ABS	1	0	02VD 02VO 02VC 02MD 02MO 10MC 02RD 02RO	0	1	2.21891117096	None	None	None	None	1
2.7	2015_May_21_1102	s	s	9	2	SIC	173	RC	2	2	09VD 02VO 02VC 02MD 02MO 02MC 02RD 02RO	1	0	1.20674395561	132.0	-90.0	132	-91	1
2.7	2015_May_21_1102	s	s	9	2	SIC	174	ABS	0	1	02VD 02VO 02VC 02MD 02MO 02MC 02RD 10RO	0	1	2.82430315018	None	None	None	None	1
2.7	2015_May_21_1102	s	s	9	2	SIC	175	ABS	1	1	02VD 02VO 02VC 02MD 10MO 02MC 02RD 02RO	0	1	3.01890897751	None	None	None	None	1
2.7	2015_May_21_1102	s	s	9	2	SIC	176	ABS	2	0	02VD 02VO 10VC 02MD 02MO 02MC 02RD 02RO	0	1	1.95324802399	None	None	None	None	1
2.7	2015_May_21_1102	s	s	9	2	SIC	177	RC	2	1	02VD 09VO 02VC 02MD 02MO 02MC 02RD 02RO	1	0	1.30584216118	-435.0	57.0	-434	66	1
2.7	2015_May_21_1102	s	s	9	2	SIC	178	ABS	0	1	02VD 02VO 02VC 02MD 02MO 02MC 02RD 10RO	0	1	2.57184910774	None	None	None	None	1
2.7	2015_May_21_1102	s	s	9	2	SIC	179	ABS	1	2	02VD 02VO 02VC 10MD 02MO 02MC 02RD 02RO	0	1	2.68311190605	None	None	None	None	1
2.7	2015_May_21_1102	s	s	9	2	SIC	180	RC	1	0	02VD 02VO 02VC 02MD 02MO 09MC 02RD 02RO	1	0	1.25384902954	221.0	-126.0	218	-119	1
2.7	2015_May_21_1102	s	s	9	2	SIC	181	RC	1	2	02VD 02VO 02VC 09MD 02MO 02MC 02RD 02RO	0	1	2.1736562252	320.0	-349.0	None	None	0
2.7	2015_May_21_1102	s	s	9	2	SIC	182	RC	1	1	02VD 02VO 02VC 02MD 09MO 02MC 02RD 02RO	1	0	0.794818878174	-121.0	94.0	-124	99	1
2.7	2015_May_21_1102	s	s	9	2	SIC	183	ABS	2	2	10VD 02VO 02VC 02MD 02MO 02MC 02RD 02RO	0	1	2.09209895134	None	None	None	None	1
2.7	2015_May_21_1102	s	s	9	2	SIC	184	RC	2	2	09VD 02VO 02VC 02MD 02MO 02MC 02RD 02RO	1	0	1.50101900101	178.0	354.0	175	361	1
2.7	2015_May_21_1102	s	s	9	2	SIC	185	ABS	0	2	02VD 02VO 02VC 02MD 02MO 02MC 10RD 02RO	0	1	3.04798316956	None	None	None	None	1
2.7	2015_May_21_1102	s	s	9	2	SIC	186	RC	0	2	02VD 02VO 02VC 02MD 02MO 02MC 09RD 02RO	1	0	0.902160167694	140.0	231.0	137	238	1
2.7	2015_May_21_1102	s	s	9	2	SIC	187	ABS	1	1	02VD 02VO 02VC 02MD 10MO 02MC 02RD 02RO	0	1	1.90129804611	None	None	None	None	1
2.7	2015_May_21_1102	s	s	9	2	SIC	188	ABS	2	0	02VD 02VO 10VC 02MD 02MO 02MC 02RD 02RO	0	1	1.88878798485	None	None	None	None	1
2.7	2015_May_21_1102	s	s	9	2	SIC	189	ABS	2	1	02VD 10VO 02VC 02MD 02MO 02MC 02RD 02RO	0	1	2.60988688469	None	None	None	None	1
2.7	2015_May_21_1102	s	s	9	2	SIC	190	ABS	1	0	02VD 02VO 02VC 02MD 02MO 10MC 02RD 02RO	0	1	1.39995503426	None	None	None	None	1
2.7	2015_May_21_1102	s	s	9	2	SIC	191	RC	2	0	02VD 02VO 09VC 02MD 02MO 02MC 02RD 02RO	1	0	1.79517292976	-254.0	-204.0	-255	-198	1
2.7	2015_May_21_1102	s	s	9	2	SIC	192	RC	0	1	02VD 02VO 02VC 02MD 02MO 02MC 02RD 09RO	1	0	3.48349785805	29.0	82.0	176	-51	0
2.7	2015_May_21_1102	s	s	9	2	SIC	193	RC	1	0	02VD 02VO 02VC 02MD 02MO 09MC 02RD 02RO	0	1	2.74194598198	410.0	388.0	None	None	0
2.7	2015_May_21_1102	s	s	9	2	SIC	194	ABS	1	0	02VD 02VO 02VC 02MD 02MO 10MC 02RD 02RO	0	1	1.91553115845	None	None	None	None	1
2.7	2015_May_21_1102	s	s	9	2	SIC	195	RC	2	2	09VD 02VO 02VC 02MD 02MO 02MC 02RD 02RO	1	0	1.40895986557	-439.0	226.0	-436	227	1
2.7	2015_May_21_1102	s	s	9	2	SIC	196	RC	1	1	02VD 02VO 02VC 02MD 09MO 02MC 02RD 02RO	0	1	2.09458208084	215.0	337.0	None	None	0
2.7	2015_May_21_1102	s	s	9	2	SIC	197	RC	1	2	02VD 02VO 02VC 09MD 02MO 02MC 02RD 02RO	1	0	0.923665046692	229.0	-162.0	223	-155	1
2.7	2015_May_21_1102	s	s	9	2	SIC	198	ABS	0	2	02VD 02VO 02VC 02MD 02MO 02MC 10RD 02RO	0	1	1.95326900482	None	None	None	None	1
2.7	2015_May_21_1102	s	s	9	2	SIC	199	ABS	2	1	02VD 10VO 02VC 02MD 02MO 02MC 02RD 02RO	0	1	1.9296810627	None	None	None	None	1
2.7	2015_May_21_1102	s	s	9	2	SIC	200	ABS	0	1	02VD 02VO 02VC 02MD 02MO 02MC 02RD 10RO	0	1	3.14861702919	None	None	None	None	1
2.7	2015_May_21_1102	s	s	9	2	SIC	201	ABS	2	2	10VD 02VO 02VC 02MD 02MO 02MC 02RD 02RO	0	1	2.02394413948	None	None	None	None	1
2.7	2015_May_21_1102	s	s	9	2	SIC	202	RC	2	1	02VD 09VO 02VC 02MD 02MO 02MC 02RD 02RO	0	1	0.552688837051	307.0	209.0	None	None	0
2.7	2015_May_21_1102	s	s	9	2	SIC	203	RC	2	0	02VD 02VO 09VC 02MD 02MO 02MC 02RD 02RO	1	0	0.959608078003	330.0	229.0	325	223	1
2.7	2015_May_21_1102	s	s	9	2	SIC	204	ABS	1	1	02VD 02VO 02VC 02MD 10MO 02MC 02RD 02RO	0	1	2.03136491776	None	None	None	None	1
2.7	2015_May_21_1102	s	s	9	2	SIC	205	ABS	2	0	02VD 02VO 10VC 02MD 02MO 02MC 02RD 02RO	0	1	2.0239109993	None	None	None	None	1
2.7	2015_May_21_1102	s	s	9	2	SIC	206	ABS	1	2	02VD 02VO 02VC 10MD 02MO 02MC 02RD 02RO	0	1	2.43589496613	None	None	None	None	1
2.7	2015_May_21_1102	s	s	9	2	SIC	207	RC	0	2	02VD 02VO 02VC 02MD 02MO 02MC 09RD 02RO	0	1	2.54851913452	411.0	-374.0	None	None	0
2.7	2015_May_21_1102	s	s	9	2	SIC	208	RC	0	1	02VD 02VO 02VC 02MD 02MO 02MC 02RD 09RO	0	1	0.270080089569	-446.0	282.0	None	None	0
2.7	2015_May_21_1102	s	s	9	2	SIC	209	RC	2	1	02VD 09VO 02VC 02MD 02MO 02MC 02RD 02RO	1	0	2.6421380043	-391.0	298.0	-395	300	1
2.7	2015_May_21_1102	s	s	9	2	SIC	210	ABS	2	0	02VD 02VO 10VC 02MD 02MO 02MC 02RD 02RO	0	1	1.60692620277	None	None	None	None	1
2.7	2015_May_21_1102	s	s	9	2	SIC	211	RC	0	1	02VD 02VO 02VC 02MD 02MO 02MC 02RD 09RO	1	0	2.03569102287	24.0	-244.0	21	-243	1
2.7	2015_May_21_1102	s	s	9	2	SIC	212	RC	0	2	02VD 02VO 02VC 02MD 02MO 02MC 09RD 02RO	1	0	1.82379508018	428.0	29.0	434	37	1
2.7	2015_May_21_1102	s	s	9	2	SIC	213	ABS	0	2	02VD 02VO 02VC 02MD 02MO 02MC 10RD 02RO	0	1	2.06860184669	None	None	None	None	1
2.7	2015_May_21_1102	s	s	9	2	SIC	214	ABS	1	0	02VD 02VO 02VC 02MD 02MO 10MC 02RD 02RO	0	1	2.14163899422	None	None	None	None	1
2.7	2015_May_21_1102	s	s	9	2	SIC	215	RC	2	2	09VD 02VO 02VC 02MD 02MO 02MC 02RD 02RO	1	0	2.18415307999	-373.0	-135.0	-379	-129	1
2.7	2015_May_21_1102	s	s	9	2	SIC	216	RC	1	1	02VD 02VO 02VC 02MD 09MO 02MC 02RD 02RO	0	1	2.3267018795	456.0	-345.0	None	None	0
2.7	2015_May_21_1102	s	s	9	2	SIC	217	RC	1	0	02VD 02VO 02VC 02MD 02MO 09MC 02RD 02RO	1	0	1.56482696533	-471.0	-184.0	-476	-178	1
2.7	2015_May_21_1102	s	s	9	2	SIC	218	RC	2	0	02VD 02VO 09VC 02MD 02MO 02MC 02RD 02RO	1	0	2.32991290092	535.0	-312.0	532	-303	1
2.7	2015_May_21_1102	s	s	9	2	SIC	219	RC	1	2	02VD 02VO 02VC 09MD 02MO 02MC 02RD 02RO	1	0	1.80693411827	30.0	-1.0	27	3	1
2.7	2015_May_21_1102	s	s	9	2	SIC	220	ABS	2	2	10VD 02VO 02VC 02MD 02MO 02MC 02RD 02RO	0	1	1.96507000923	None	None	None	None	1
2.7	2015_May_21_1102	s	s	9	2	SIC	221	ABS	1	1	02VD 02VO 02VC 02MD 10MO 02MC 02RD 02RO	0	1	1.95983791351	None	None	None	None	1
2.7	2015_May_21_1102	s	s	9	2	SIC	222	ABS	2	1	02VD 10VO 02VC 02MD 02MO 02MC 02RD 02RO	0	1	1.81202888489	None	None	None	None	1
2.7	2015_May_21_1102	s	s	9	2	SIC	223	ABS	1	2	02VD 02VO 02VC 10MD 02MO 02MC 02RD 02RO	1	0	1.91475200653	None	None	-51	-50	0
2.7	2015_May_21_1102	s	s	9	2	SIC	224	ABS	0	1	02VD 02VO 02VC 02MD 02MO 02MC 02RD 10RO	0	1	3.35798788071	None	None	None	None	1
2.7	2015_May_21_1102	s	s	9	2	SIC	225	ABS	1	2	02VD 02VO 02VC 10MD 02MO 02MC 02RD 02RO	0	1	1.85912704468	None	None	None	None	1
2.7	2015_May_21_1102	s	s	9	2	SIC	226	ABS	2	2	10VD 02VO 02VC 02MD 02MO 02MC 02RD 02RO	0	1	2.67980003357	None	None	None	None	1
2.7	2015_May_21_1102	s	s	9	2	SIC	227	RC	2	0	02VD 02VO 09VC 02MD 02MO 02MC 02RD 02RO	1	0	1.69140815735	-478.0	-173.0	-483	-165	1
2.7	2015_May_21_1102	s	s	9	2	SIC	228	ABS	2	0	02VD 02VO 10VC 02MD 02MO 02MC 02RD 02RO	0	1	1.36475300789	None	None	None	None	1
2.7	2015_May_21_1102	s	s	9	2	SIC	229	RC	1	2	02VD 02VO 02VC 09MD 02MO 02MC 02RD 02RO	1	0	1.40702986717	-386.0	-52.0	-386	-47	1
2.7	2015_May_21_1102	s	s	9	2	SIC	230	RC	2	2	09VD 02VO 02VC 02MD 02MO 02MC 02RD 02RO	1	0	2.12617993355	46.0	-193.0	48	-186	1
2.7	2015_May_21_1102	s	s	9	2	SIC	231	ABS	0	1	02VD 02VO 02VC 02MD 02MO 02MC 02RD 10RO	0	1	3.87765097618	None	None	None	None	1
2.7	2015_May_21_1102	s	s	9	2	SIC	232	RC	1	1	02VD 02VO 02VC 02MD 09MO 02MC 02RD 02RO	1	0	1.43078899384	312.0	111.0	310	112	1
2.7	2015_May_21_1102	s	s	9	2	SIC	233	ABS	0	2	02VD 02VO 02VC 02MD 02MO 02MC 10RD 02RO	0	1	2.12486791611	None	None	None	None	1
2.7	2015_May_21_1102	s	s	9	2	SIC	234	RC	0	1	02VD 02VO 02VC 02MD 02MO 02MC 02RD 09RO	1	0	1.194865942	100.0	345.0	91	349	1
2.7	2015_May_21_1102	s	s	9	2	SIC	235	ABS	1	1	02VD 02VO 02VC 02MD 10MO 02MC 02RD 02RO	0	1	2.73836016655	None	None	None	None	1
2.7	2015_May_21_1102	s	s	9	2	SIC	236	RC	2	1	02VD 09VO 02VC 02MD 02MO 02MC 02RD 02RO	1	0	1.03030085564	314.0	241.0	313	248	1
2.7	2015_May_21_1102	s	s	9	2	SIC	237	ABS	1	0	02VD 02VO 02VC 02MD 02MO 10MC 02RD 02RO	0	1	2.3604118824	None	None	None	None	1
2.7	2015_May_21_1102	s	s	9	2	SIC	238	ABS	2	1	02VD 10VO 02VC 02MD 02MO 02MC 02RD 02RO	0	1	1.60680198669	None	None	None	None	1
2.7	2015_May_21_1102	s	s	9	2	SIC	239	RC	1	0	02VD 02VO 02VC 02MD 02MO 09MC 02RD 02RO	1	0	1.64720320702	-251.0	332.0	-250	333	1
2.7	2015_May_21_1102	s	s	9	2	SIC	240	RC	0	2	02VD 02VO 02VC 02MD 02MO 02MC 09RD 02RO	1	0	1.02344703674	-289.0	-98.0	-289	-98	1
2.7	2015_May_21_1102	s	s	9	2	SIC	241	RC	0	1	02VD 02VO 02VC 02MD 02MO 02MC 02RD 09RO	1	0	3.62477087975	7.0	-182.0	16	-179	1
2.7	2015_May_21_1102	s	s	9	2	SIC	242	RC	0	2	02VD 02VO 02VC 02MD 02MO 02MC 09RD 02RO	0	1	2.63128113747	-14.0	-17.0	None	None	0
2.7	2015_May_21_1102	s	s	9	2	SIC	243	RC	2	1	02VD 09VO 02VC 02MD 02MO 02MC 02RD 02RO	1	0	0.890141963959	24.0	387.0	19	396	1
2.7	2015_May_21_1102	s	s	9	2	SIC	244	ABS	1	2	02VD 02VO 02VC 10MD 02MO 02MC 02RD 02RO	0	1	1.57185506821	None	None	None	None	1
2.7	2015_May_21_1102	s	s	9	2	SIC	245	ABS	2	1	02VD 10VO 02VC 02MD 02MO 02MC 02RD 02RO	1	0	2.47813105583	None	None	131	34	0
2.7	2015_May_21_1102	s	s	9	2	SIC	246	RC	1	2	02VD 02VO 02VC 09MD 02MO 02MC 02RD 02RO	1	0	1.54798197746	531.0	-80.0	537	-73	1
2.7	2015_May_21_1102	s	s	9	2	SIC	247	ABS	2	0	02VD 02VO 10VC 02MD 02MO 02MC 02RD 02RO	0	1	1.64720702171	None	None	None	None	1
2.7	2015_May_21_1102	s	s	9	2	SIC	248	ABS	1	1	02VD 02VO 02VC 02MD 10MO 02MC 02RD 02RO	0	1	2.38549995422	None	None	None	None	1
2.7	2015_May_21_1102	s	s	9	2	SIC	249	ABS	0	2	02VD 02VO 02VC 02MD 02MO 02MC 10RD 02RO	0	1	2.33662796021	None	None	None	None	1
2.7	2015_May_21_1102	s	s	9	2	SIC	250	RC	1	0	02VD 02VO 02VC 02MD 02MO 09MC 02RD 02RO	1	0	2.58381295204	-308.0	292.0	-310	284	1
2.7	2015_May_21_1102	s	s	9	2	SIC	251	ABS	1	0	02VD 02VO 02VC 02MD 02MO 10MC 02RD 02RO	0	1	2.45439982414	None	None	None	None	1
2.7	2015_May_21_1102	s	s	9	2	SIC	252	RC	2	0	02VD 02VO 09VC 02MD 02MO 02MC 02RD 02RO	1	0	2.07100605965	-36.0	-194.0	-31	-186	1
2.7	2015_May_21_1102	s	s	9	2	SIC	253	RC	2	2	09VD 02VO 02VC 02MD 02MO 02MC 02RD 02RO	1	0	1.36151719093	336.0	-108.0	331	-111	1
2.7	2015_May_21_1102	s	s	9	2	SIC	254	RC	1	1	02VD 02VO 02VC 02MD 09MO 02MC 02RD 02RO	1	0	1.78846001625	-180.0	242.0	-186	235	1
2.7	2015_May_21_1102	s	s	9	2	SIC	255	ABS	2	2	10VD 02VO 02VC 02MD 02MO 02MC 02RD 02RO	0	1	1.72472500801	None	None	None	None	1
2.7	2015_May_21_1102	s	s	9	2	SIC	256	ABS	0	1	02VD 02VO 02VC 02MD 02MO 02MC 02RD 10RO	0	1	2.92439103127	None	None	None	None	1
2.7	2015_May_21_1102	s	s	9	2	SIC	257	RC	0	1	02VD 02VO 02VC 02MD 02MO 02MC 02RD 09RO	1	0	2.11803913116	98.0	383.0	94	389	1
2.7	2015_May_21_1102	s	s	9	2	SIC	258	RC	2	0	02VD 02VO 09VC 02MD 02MO 02MC 02RD 02RO	1	0	1.92442202568	-473.0	-318.0	-479	-312	1
2.7	2015_May_21_1102	s	s	9	2	SIC	259	ABS	2	0	02VD 02VO 10VC 02MD 02MO 02MC 02RD 02RO	0	1	1.57662391663	None	None	None	None	1
2.7	2015_May_21_1102	s	s	9	2	SIC	260	ABS	0	2	02VD 02VO 02VC 02MD 02MO 02MC 10RD 02RO	0	1	1.75339698792	None	None	None	None	1
2.7	2015_May_21_1102	s	s	9	2	SIC	261	RC	1	1	02VD 02VO 02VC 02MD 09MO 02MC 02RD 02RO	0	1	1.91361379623	198.0	-86.0	None	None	0
2.7	2015_May_21_1102	s	s	9	2	SIC	262	ABS	1	1	02VD 02VO 02VC 02MD 10MO 02MC 02RD 02RO	0	1	2.16520500183	None	None	None	None	1
2.7	2015_May_21_1102	s	s	9	2	SIC	263	RC	0	2	02VD 02VO 02VC 02MD 02MO 02MC 09RD 02RO	1	0	2.160394907	65.0	-193.0	59	-190	1
2.7	2015_May_21_1102	s	s	9	2	SIC	264	RC	2	1	02VD 09VO 02VC 02MD 02MO 02MC 02RD 02RO	1	0	1.27741098404	478.0	121.0	478	124	1
2.7	2015_May_21_1102	s	s	9	2	SIC	265	RC	2	2	09VD 02VO 02VC 02MD 02MO 02MC 02RD 02RO	1	0	2.2308280468	45.0	-263.0	42	-258	1
2.7	2015_May_21_1102	s	s	9	2	SIC	266	ABS	2	2	10VD 02VO 02VC 02MD 02MO 02MC 02RD 02RO	0	1	1.51215600967	None	None	None	None	1
2.7	2015_May_21_1102	s	s	9	2	SIC	267	ABS	1	0	02VD 02VO 02VC 02MD 02MO 10MC 02RD 02RO	0	1	2.01211690903	None	None	None	None	1
2.7	2015_May_21_1102	s	s	9	2	SIC	268	ABS	2	1	02VD 10VO 02VC 02MD 02MO 02MC 02RD 02RO	0	1	1.27747917175	None	None	None	None	1
2.7	2015_May_21_1102	s	s	9	2	SIC	269	RC	1	2	02VD 02VO 02VC 09MD 02MO 02MC 02RD 02RO	1	0	1.68941402435	206.0	-344.0	206	-335	1
2.7	2015_May_21_1102	s	s	9	2	SIC	270	ABS	1	2	02VD 02VO 02VC 10MD 02MO 02MC 02RD 02RO	0	1	1.90061903	None	None	None	None	1
2.7	2015_May_21_1102	s	s	9	2	SIC	271	ABS	0	1	02VD 02VO 02VC 02MD 02MO 02MC 02RD 10RO	1	0	3.0714738369	None	None	-59	213	0
2.7	2015_May_21_1102	s	s	9	2	SIC	272	RC	1	0	02VD 02VO 02VC 02MD 02MO 09MC 02RD 02RO	1	0	2.39486193657	231.0	-282.0	224	-273	1
2.7	2015_May_21_1102	s	s	9	2	SIC	273	ABS	2	2	10VD 02VO 02VC 02MD 02MO 02MC 02RD 02RO	0	1	1.81200194359	None	None	None	None	1
2.7	2015_May_21_1102	s	s	9	2	SIC	274	ABS	0	2	02VD 02VO 02VC 02MD 02MO 02MC 10RD 02RO	0	1	2.44286894798	None	None	None	None	1
2.7	2015_May_21_1102	s	s	9	2	SIC	275	RC	2	0	02VD 02VO 09VC 02MD 02MO 02MC 02RD 02RO	1	0	0.961120843887	206.0	-303.0	201	-298	1
2.7	2015_May_21_1102	s	s	9	2	SIC	276	ABS	1	1	02VD 02VO 02VC 02MD 10MO 02MC 02RD 02RO	0	1	2.05422186852	None	None	None	None	1
2.7	2015_May_21_1102	s	s	9	2	SIC	277	RC	2	1	02VD 09VO 02VC 02MD 02MO 02MC 02RD 02RO	1	0	1.20704913139	-156.0	327.0	-158	335	1
2.7	2015_May_21_1102	s	s	9	2	SIC	278	RC	1	2	02VD 02VO 02VC 09MD 02MO 02MC 02RD 02RO	1	0	0.947999000549	-301.0	138.0	-303	143	1
2.7	2015_May_21_1102	s	s	9	2	SIC	279	RC	0	2	02VD 02VO 02VC 02MD 02MO 02MC 09RD 02RO	1	0	1.60017895699	517.0	242.0	510	249	1
2.7	2015_May_21_1102	s	s	9	2	SIC	280	RC	1	1	02VD 02VO 02VC 02MD 09MO 02MC 02RD 02RO	1	0	1.81204390526	-113.0	177.0	-117	185	1
2.7	2015_May_21_1102	s	s	9	2	SIC	281	RC	0	1	02VD 02VO 02VC 02MD 02MO 02MC 02RD 09RO	1	0	1.37091994286	465.0	-7.0	460	-2	1
2.7	2015_May_21_1102	s	s	9	2	SIC	282	ABS	1	0	02VD 02VO 02VC 02MD 02MO 10MC 02RD 02RO	0	1	2.54182505608	None	None	None	None	1
2.7	2015_May_21_1102	s	s	9	2	SIC	283	ABS	0	1	02VD 02VO 02VC 02MD 02MO 02MC 02RD 10RO	0	1	2.94198393822	None	None	None	None	1
2.7	2015_May_21_1102	s	s	9	2	SIC	284	ABS	2	0	02VD 02VO 10VC 02MD 02MO 02MC 02RD 02RO	0	1	1.90629696846	None	None	None	None	1
2.7	2015_May_21_1102	s	s	9	2	SIC	285	ABS	1	2	02VD 02VO 02VC 10MD 02MO 02MC 02RD 02RO	0	1	2.48293685913	None	None	None	None	1
2.7	2015_May_21_1102	s	s	9	2	SIC	286	ABS	2	1	02VD 10VO 02VC 02MD 02MO 02MC 02RD 02RO	0	1	1.93029999733	None	None	None	None	1
2.7	2015_May_21_1102	s	s	9	2	SIC	287	RC	1	0	02VD 02VO 02VC 02MD 02MO 09MC 02RD 02RO	1	0	1.73644208908	-266.0	-80.0	-271	-74	1
2.7	2015_May_21_1102	s	s	9	2	SIC	288	RC	2	2	09VD 02VO 02VC 02MD 02MO 02MC 02RD 02RO	1	0	1.40690898895	100.0	-356.0	94	-347	1
2.7	2015_May_21_1102	s	s	9	2	SIC	289	ABS	1	1	02VD 02VO 02VC 02MD 10MO 02MC 02RD 02RO	0	1	1.48247814178	None	None	None	None	1
2.7	2015_May_21_1102	s	s	9	2	SIC	290	ABS	2	2	10VD 02VO 02VC 02MD 02MO 02MC 02RD 02RO	0	1	2.01214504242	None	None	None	None	1
2.7	2015_May_21_1102	s	s	9	2	SIC	291	ABS	1	2	02VD 02VO 02VC 10MD 02MO 02MC 02RD 02RO	0	1	2.28819394112	None	None	None	None	1
2.7	2015_May_21_1102	s	s	9	2	SIC	292	ABS	0	1	02VD 02VO 02VC 02MD 02MO 02MC 02RD 10RO	0	1	3.33740711212	None	None	None	None	1
2.7	2015_May_21_1102	s	s	9	2	SIC	293	RC	1	2	02VD 02VO 02VC 09MD 02MO 02MC 02RD 02RO	0	1	2.5626938343	259.0	147.0	None	None	0
2.7	2015_May_21_1102	s	s	9	2	SIC	294	RC	2	2	09VD 02VO 02VC 02MD 02MO 02MC 02RD 02RO	1	0	1.06560897827	-230.0	44.0	-237	46	1
2.7	2015_May_21_1102	s	s	9	2	SIC	295	ABS	1	0	02VD 02VO 02VC 02MD 02MO 10MC 02RD 02RO	0	1	2.08269000053	None	None	None	None	1
2.7	2015_May_21_1102	s	s	9	2	SIC	296	RC	0	2	02VD 02VO 02VC 02MD 02MO 02MC 09RD 02RO	1	0	1.59219694138	-86.0	-53.0	-93	-50	1
2.7	2015_May_21_1102	s	s	9	2	SIC	297	RC	2	1	02VD 09VO 02VC 02MD 02MO 02MC 02RD 02RO	1	0	1.15295696259	-81.0	-178.0	-95	-173	1
2.7	2015_May_21_1102	s	s	9	2	SIC	298	ABS	2	0	02VD 02VO 10VC 02MD 02MO 02MC 02RD 02RO	0	1	1.16470313072	None	None	None	None	1
2.7	2015_May_21_1102	s	s	9	2	SIC	299	RC	1	1	02VD 02VO 02VC 02MD 09MO 02MC 02RD 02RO	1	0	2.07114601135	258.0	-365.0	253	-361	1
2.7	2015_May_21_1102	s	s	9	2	SIC	300	RC	2	0	02VD 02VO 09VC 02MD 02MO 02MC 02RD 02RO	1	0	0.997011184692	212.0	118.0	208	122	1
2.7	2015_May_21_1102	s	s	9	2	SIC	301	RC	1	0	02VD 02VO 02VC 02MD 02MO 09MC 02RD 02RO	1	0	0.77624797821	-218.0	192.0	-222	192	1
2.7	2015_May_21_1102	s	s	9	2	SIC	302	RC	0	1	02VD 02VO 02VC 02MD 02MO 02MC 02RD 09RO	1	0	1.50091004372	-146.0	-89.0	-144	-86	1
2.7	2015_May_21_1102	s	s	9	2	SIC	303	ABS	2	1	02VD 10VO 02VC 02MD 02MO 02MC 02RD 02RO	0	1	1.90292096138	None	None	None	None	1
2.7	2015_May_21_1102	s	s	9	2	SIC	304	ABS	0	2	02VD 02VO 02VC 02MD 02MO 02MC 10RD 02RO	0	1	2.40705800056	None	None	None	None	1
2.7	2015_May_21_1102	s	s	9	2	SIC	305	RC	2	2	09VD 02VO 02VC 02MD 02MO 02MC 02RD 02RO	1	0	1.27056479454	395.0	43.0	394	43	1
2.7	2015_May_21_1102	s	s	9	2	SIC	306	RC	1	2	02VD 02VO 02VC 09MD 02MO 02MC 02RD 02RO	1	0	1.26542687416	229.0	98.0	229	101	1
2.7	2015_May_21_1102	s	s	9	2	SIC	307	ABS	0	2	02VD 02VO 02VC 02MD 02MO 02MC 10RD 02RO	0	1	2.14178013802	None	None	None	None	1
2.7	2015_May_21_1102	s	s	9	2	SIC	308	RC	2	1	02VD 09VO 02VC 02MD 02MO 02MC 02RD 02RO	1	0	1.50088191032	-261.0	395.0	-260	397	1
2.7	2015_May_21_1102	s	s	9	2	SIC	309	ABS	2	2	10VD 02VO 02VC 02MD 02MO 02MC 02RD 02RO	0	1	1.51815485954	None	None	None	None	1
2.7	2015_May_21_1102	s	s	9	2	SIC	310	RC	0	2	02VD 02VO 02VC 02MD 02MO 02MC 09RD 02RO	1	0	1.62365603447	-527.0	195.0	-534	196	1
2.7	2015_May_21_1102	s	s	9	2	SIC	311	ABS	1	0	02VD 02VO 02VC 02MD 02MO 10MC 02RD 02RO	0	1	2.39709591866	None	None	None	None	1
2.7	2015_May_21_1102	s	s	9	2	SIC	312	RC	2	0	02VD 02VO 09VC 02MD 02MO 02MC 02RD 02RO	1	0	1.22398805618	-270.0	170.0	-268	174	1
2.7	2015_May_21_1102	s	s	9	2	SIC	313	ABS	2	0	02VD 02VO 10VC 02MD 02MO 02MC 02RD 02RO	0	1	1.73644208908	None	None	None	None	1
2.7	2015_May_21_1102	s	s	9	2	SIC	314	ABS	2	1	02VD 10VO 02VC 02MD 02MO 02MC 02RD 02RO	0	1	1.85918688774	None	None	None	None	1
2.7	2015_May_21_1102	s	s	9	2	SIC	315	RC	1	1	02VD 02VO 02VC 02MD 09MO 02MC 02RD 02RO	1	0	1.7296769619	-118.0	-176.0	-111	-175	1
2.7	2015_May_21_1102	s	s	9	2	SIC	316	ABS	1	1	02VD 02VO 02VC 02MD 10MO 02MC 02RD 02RO	0	1	2.45455288887	None	None	None	None	1
2.7	2015_May_21_1102	s	s	9	2	SIC	317	RC	1	0	02VD 02VO 02VC 02MD 02MO 09MC 02RD 02RO	1	0	0.97144985199	275.0	-300.0	271	-299	1
2.7	2015_May_21_1102	s	s	9	2	SIC	318	ABS	0	1	02VD 02VO 02VC 02MD 02MO 02MC 02RD 10RO	0	1	2.68843507767	None	None	None	None	1
2.7	2015_May_21_1102	s	s	9	2	SIC	319	RC	0	1	02VD 02VO 02VC 02MD 02MO 02MC 02RD 09RO	1	0	2.15368199348	97.0	-256.0	93	-248	1
2.7	2015_May_21_1102	s	s	9	2	SIC	320	ABS	1	2	02VD 02VO 02VC 10MD 02MO 02MC 02RD 02RO	0	1	2.0333340168	None	None	None	None	1
2.7	2015_May_21_1102	s	s	9	2	SIC	321	ABS	0	1	02VD 02VO 02VC 02MD 02MO 02MC 02RD 10RO	0	1	3.78605389595	None	None	None	None	1
2.7	2015_May_21_1102	s	s	9	2	SIC	322	ABS	2	0	02VD 02VO 10VC 02MD 02MO 02MC 02RD 02RO	0	1	1.92966508865	None	None	None	None	1
2.7	2015_May_21_1102	s	s	9	2	SIC	323	RC	1	2	02VD 02VO 02VC 09MD 02MO 02MC 02RD 02RO	1	0	2.04240202904	-538.0	-371.0	-537	-368	1
2.7	2015_May_21_1102	s	s	9	2	SIC	324	ABS	0	2	02VD 02VO 02VC 02MD 02MO 02MC 10RD 02RO	0	1	1.9955739975	None	None	None	None	1
2.7	2015_May_21_1102	s	s	9	2	SIC	325	RC	2	2	09VD 02VO 02VC 02MD 02MO 02MC 02RD 02RO	1	0	1.63550209999	-318.0	-323.0	-314	-319	1
2.7	2015_May_21_1102	s	s	9	2	SIC	326	RC	0	1	02VD 02VO 02VC 02MD 02MO 02MC 02RD 09RO	1	0	1.40677380562	-306.0	231.0	-310	235	1
2.7	2015_May_21_1102	s	s	9	2	SIC	327	RC	0	2	02VD 02VO 02VC 02MD 02MO 02MC 09RD 02RO	1	0	0.988068819046	-222.0	173.0	-225	171	1
2.7	2015_May_21_1102	s	s	9	2	SIC	328	RC	2	0	02VD 02VO 09VC 02MD 02MO 02MC 02RD 02RO	1	0	1.22335410118	322.0	-158.0	323	-157	1
2.7	2015_May_21_1102	s	s	9	2	SIC	329	RC	2	1	02VD 09VO 02VC 02MD 02MO 02MC 02RD 02RO	1	0	1.58829879761	186.0	-409.0	182	-406	1
2.7	2015_May_21_1102	s	s	9	2	SIC	330	RC	1	1	02VD 02VO 02VC 02MD 09MO 02MC 02RD 02RO	1	0	1.68943405151	-298.0	128.0	-304	125	1
2.7	2015_May_21_1102	s	s	9	2	SIC	331	ABS	1	0	02VD 02VO 02VC 02MD 02MO 10MC 02RD 02RO	0	1	2.03324794769	None	None	None	None	1
2.7	2015_May_21_1102	s	s	9	2	SIC	332	ABS	1	2	02VD 02VO 02VC 10MD 02MO 02MC 02RD 02RO	0	1	1.56896400452	None	None	None	None	1
2.7	2015_May_21_1102	s	s	9	2	SIC	333	ABS	2	2	10VD 02VO 02VC 02MD 02MO 02MC 02RD 02RO	1	0	2.23602700233	None	None	43	66	0
2.7	2015_May_21_1102	s	s	9	2	SIC	334	RC	1	0	02VD 02VO 02VC 02MD 02MO 09MC 02RD 02RO	1	0	1.58842396736	-334.0	-173.0	-339	-170	1
2.7	2015_May_21_1102	s	s	9	2	SIC	335	ABS	2	1	02VD 10VO 02VC 02MD 02MO 02MC 02RD 02RO	0	1	2.08277702332	None	None	None	None	1
2.7	2015_May_21_1102	s	s	9	2	SIC	336	ABS	1	1	02VD 02VO 02VC 02MD 10MO 02MC 02RD 02RO	0	1	2.21894407272	None	None	None	None	1
2.7	2015_May_21_1102	s	s	9	2	SIC	337	RC	2	2	09VD 02VO 02VC 02MD 02MO 02MC 02RD 02RO	1	0	0.776226997375	5.0	82.0	6	82	1
2.7	2015_May_21_1102	s	s	9	2	SIC	338	ABS	0	2	02VD 02VO 02VC 02MD 02MO 02MC 10RD 02RO	0	1	1.89488196373	None	None	None	None	1
2.7	2015_May_21_1102	s	s	9	2	SIC	339	RC	2	1	02VD 09VO 02VC 02MD 02MO 02MC 02RD 02RO	1	0	0.856010198593	-114.0	195.0	-110	204	1
2.7	2015_May_21_1102	s	s	9	2	SIC	340	RC	1	2	02VD 02VO 02VC 09MD 02MO 02MC 02RD 02RO	1	0	1.12934303284	-165.0	337.0	-165	340	1
2.7	2015_May_21_1102	s	s	9	2	SIC	341	RC	0	1	02VD 02VO 02VC 02MD 02MO 02MC 02RD 09RO	1	0	1.16834998131	-333.0	105.0	-340	112	1
2.7	2015_May_21_1102	s	s	9	2	SIC	342	RC	0	2	02VD 02VO 02VC 02MD 02MO 02MC 09RD 02RO	1	0	1.18823194504	477.0	92.0	474	98	1
2.7	2015_May_21_1102	s	s	9	2	SIC	343	RC	1	0	02VD 02VO 02VC 02MD 02MO 09MC 02RD 02RO	0	1	1.6553170681	-308.0	409.0	None	None	0
2.7	2015_May_21_1102	s	s	9	2	SIC	344	RC	2	0	02VD 02VO 09VC 02MD 02MO 02MC 02RD 02RO	1	0	1.06466817856	299.0	101.0	298	106	1
2.7	2015_May_21_1102	s	s	9	2	SIC	345	ABS	0	1	02VD 02VO 02VC 02MD 02MO 02MC 02RD 10RO	0	1	2.20706892014	None	None	None	None	1
2.7	2015_May_21_1102	s	s	9	2	SIC	346	ABS	1	0	02VD 02VO 02VC 02MD 02MO 10MC 02RD 02RO	0	1	2.78897094727	None	None	None	None	1
2.7	2015_May_21_1102	s	s	9	2	SIC	347	ABS	2	2	10VD 02VO 02VC 02MD 02MO 02MC 02RD 02RO	0	1	1.91803503036	None	None	None	None	1
2.7	2015_May_21_1102	s	s	9	2	SIC	348	ABS	1	1	02VD 02VO 02VC 02MD 10MO 02MC 02RD 02RO	0	1	2.31325793266	None	None	None	None	1
2.7	2015_May_21_1102	s	s	9	2	SIC	349	ABS	1	2	02VD 02VO 02VC 10MD 02MO 02MC 02RD 02RO	0	1	1.831843853	None	None	None	None	1
2.7	2015_May_21_1102	s	s	9	2	SIC	350	RC	1	1	02VD 02VO 02VC 02MD 09MO 02MC 02RD 02RO	1	0	1.31302309036	340.0	290.0	337	298	1
2.7	2015_May_21_1102	s	s	9	2	SIC	351	ABS	2	1	02VD 10VO 02VC 02MD 02MO 02MC 02RD 02RO	0	1	1.87081098557	None	None	None	None	1
2.7	2015_May_21_1102	s	s	9	2	SIC	352	ABS	2	0	02VD 02VO 10VC 02MD 02MO 02MC 02RD 02RO	0	1	2.37173581123	None	None	None	None	1
2.7	2015_May_21_1102	s	s	9	2	SIC	353	RC	2	2	09VD 02VO 02VC 02MD 02MO 02MC 02RD 02RO	1	0	2.2123029232	362.0	333.0	364	338	1
2.7	2015_May_21_1102	s	s	9	2	SIC	354	ABS	0	1	02VD 02VO 02VC 02MD 02MO 02MC 02RD 10RO	0	1	2.52517414093	None	None	None	None	1
2.7	2015_May_21_1102	s	s	9	2	SIC	355	RC	0	1	02VD 02VO 02VC 02MD 02MO 02MC 02RD 09RO	1	0	1.30124688148	-204.0	-79.0	-207	-72	1
2.7	2015_May_21_1102	s	s	9	2	SIC	356	ABS	2	2	10VD 02VO 02VC 02MD 02MO 02MC 02RD 02RO	0	1	1.68251800537	None	None	None	None	1
2.7	2015_May_21_1102	s	s	9	2	SIC	357	RC	1	2	02VD 02VO 02VC 09MD 02MO 02MC 02RD 02RO	1	0	1.96181702614	-229.0	-208.0	-232	-204	1
2.7	2015_May_21_1102	s	s	9	2	SIC	358	ABS	0	2	02VD 02VO 02VC 02MD 02MO 02MC 10RD 02RO	0	1	2.36514496803	None	None	None	None	1
2.7	2015_May_21_1102	s	s	9	2	SIC	359	ABS	2	0	02VD 02VO 10VC 02MD 02MO 02MC 02RD 02RO	1	0	2.4314827919	None	None	-14	31	0
2.7	2015_May_21_1102	s	s	9	2	SIC	360	ABS	1	1	02VD 02VO 02VC 02MD 10MO 02MC 02RD 02RO	0	1	1.50647497177	None	None	None	None	1
2.7	2015_May_21_1102	s	s	9	2	SIC	361	ABS	2	1	02VD 10VO 02VC 02MD 02MO 02MC 02RD 02RO	0	1	1.7414290905	None	None	None	None	1
2.7	2015_May_21_1102	s	s	9	2	SIC	362	RC	2	0	02VD 02VO 09VC 02MD 02MO 02MC 02RD 02RO	1	0	1.50605416298	256.0	-192.0	261	-195	1
2.7	2015_May_21_1102	s	s	9	2	SIC	363	RC	1	1	02VD 02VO 02VC 02MD 09MO 02MC 02RD 02RO	0	1	2.70426678658	520.0	-134.0	None	None	0
2.7	2015_May_21_1102	s	s	9	2	SIC	364	RC	0	2	02VD 02VO 02VC 02MD 02MO 02MC 09RD 02RO	1	0	2.07131004333	-279.0	-264.0	-283	-271	1
2.7	2015_May_21_1102	s	s	9	2	SIC	365	ABS	1	0	02VD 02VO 02VC 02MD 02MO 10MC 02RD 02RO	0	1	2.57225799561	None	None	None	None	1
2.7	2015_May_21_1102	s	s	9	2	SIC	366	ABS	1	2	02VD 02VO 02VC 10MD 02MO 02MC 02RD 02RO	0	1	1.91798305511	None	None	None	None	1
2.7	2015_May_21_1102	s	s	9	2	SIC	367	RC	1	0	02VD 02VO 02VC 02MD 02MO 09MC 02RD 02RO	1	0	0.111973047256	311.0	21.0	-46	113	0
2.7	2015_May_21_1102	s	s	9	2	SIC	368	RC	2	1	02VD 09VO 02VC 02MD 02MO 02MC 02RD 02RO	1	0	1.18320298195	531.0	202.0	534	204	1
2.7	2015_May_21_1102	s	s	9	2	SIC	369	ABS	1	2	02VD 02VO 02VC 10MD 02MO 02MC 02RD 02RO	0	1	2.2077960968	None	None	None	None	1
2.7	2015_May_21_1102	s	s	9	2	SIC	370	RC	0	2	02VD 02VO 02VC 02MD 02MO 02MC 09RD 02RO	1	0	1.84732508659	-398.0	206.0	-397	201	1
2.7	2015_May_21_1102	s	s	9	2	SIC	371	ABS	2	1	02VD 10VO 02VC 02MD 02MO 02MC 02RD 02RO	0	1	1.73884606361	None	None	None	None	1
2.7	2015_May_21_1102	s	s	9	2	SIC	372	ABS	2	2	10VD 02VO 02VC 02MD 02MO 02MC 02RD 02RO	0	1	1.81204080582	None	None	None	None	1
2.7	2015_May_21_1102	s	s	9	2	SIC	373	ABS	0	2	02VD 02VO 02VC 02MD 02MO 02MC 10RD 02RO	0	1	1.73803901672	None	None	None	None	1
2.7	2015_May_21_1102	s	s	9	2	SIC	374	ABS	1	1	02VD 02VO 02VC 02MD 10MO 02MC 02RD 02RO	0	1	2.36525702477	None	None	None	None	1
2.7	2015_May_21_1102	s	s	9	2	SIC	375	RC	1	1	02VD 02VO 02VC 02MD 09MO 02MC 02RD 02RO	0	1	2.09825515747	-382.0	-203.0	None	None	0
2.7	2015_May_21_1102	s	s	9	2	SIC	376	RC	2	2	09VD 02VO 02VC 02MD 02MO 02MC 02RD 02RO	1	0	1.44318795204	255.0	10.0	259	8	1
2.7	2015_May_21_1102	s	s	9	2	SIC	377	ABS	1	0	02VD 02VO 02VC 02MD 02MO 10MC 02RD 02RO	0	1	2.1533639431	None	None	None	None	1
2.7	2015_May_21_1102	s	s	9	2	SIC	378	RC	0	1	02VD 02VO 02VC 02MD 02MO 02MC 02RD 09RO	1	0	2.38292384148	256.0	-157.0	254	-165	1
2.7	2015_May_21_1102	s	s	9	2	SIC	379	ABS	0	1	02VD 02VO 02VC 02MD 02MO 02MC 02RD 10RO	0	1	2.73012089729	None	None	None	None	1
2.7	2015_May_21_1102	s	s	9	2	SIC	380	ABS	2	0	02VD 02VO 10VC 02MD 02MO 02MC 02RD 02RO	0	1	4.0484418869	None	None	None	None	1
2.7	2015_May_21_1102	s	s	9	2	SIC	381	RC	2	0	02VD 02VO 09VC 02MD 02MO 02MC 02RD 02RO	1	0	1.40844202042	354.0	-176.0	359	-178	1
2.7	2015_May_21_1102	s	s	9	2	SIC	382	RC	2	1	02VD 09VO 02VC 02MD 02MO 02MC 02RD 02RO	1	0	0.988022089005	306.0	-103.0	308	-108	1
2.7	2015_May_21_1102	s	s	9	2	SIC	383	RC	1	0	02VD 02VO 02VC 02MD 02MO 09MC 02RD 02RO	1	0	0.964556932449	-11.0	-208.0	-6	-202	1
2.7	2015_May_21_1102	s	s	9	2	SIC	384	RC	1	2	02VD 02VO 02VC 09MD 02MO 02MC 02RD 02RO	1	0	1.20672512054	-284.0	-207.0	-278	-202	1
2.7	2015_May_21_1102	s	s	9	2	SIC	385	RC	1	2	02VD 02VO 02VC 09MD 02MO 02MC 02RD 02RO	1	0	1.11439204216	194.0	-111.0	202	-109	1
2.7	2015_May_21_1102	s	s	9	2	SIC	386	RC	0	1	02VD 02VO 02VC 02MD 02MO 02MC 02RD 09RO	1	0	0.792970895767	162.0	-129.0	160	-135	1
2.7	2015_May_21_1102	s	s	9	2	SIC	387	RC	2	2	09VD 02VO 02VC 02MD 02MO 02MC 02RD 02RO	1	0	1.15999507904	308.0	-334.0	310	-340	1
2.7	2015_May_21_1102	s	s	9	2	SIC	388	ABS	0	2	02VD 02VO 02VC 02MD 02MO 02MC 10RD 02RO	0	1	2.10302209854	None	None	None	None	1
2.7	2015_May_21_1102	s	s	9	2	SIC	389	RC	2	1	02VD 09VO 02VC 02MD 02MO 02MC 02RD 02RO	1	0	1.08955717087	429.0	-353.0	434	-356	1
2.7	2015_May_21_1102	s	s	9	2	SIC	390	ABS	0	1	02VD 02VO 02VC 02MD 02MO 02MC 02RD 10RO	0	1	3.30135989189	None	None	None	None	1
2.7	2015_May_21_1102	s	s	9	2	SIC	391	ABS	1	1	02VD 02VO 02VC 02MD 10MO 02MC 02RD 02RO	0	1	2.40986680984	None	None	None	None	1
2.7	2015_May_21_1102	s	s	9	2	SIC	392	ABS	2	2	10VD 02VO 02VC 02MD 02MO 02MC 02RD 02RO	0	1	2.41236305237	None	None	None	None	1
2.7	2015_May_21_1102	s	s	9	2	SIC	393	RC	1	1	02VD 02VO 02VC 02MD 09MO 02MC 02RD 02RO	1	0	1.43311595917	463.0	-129.0	457	-130	1
2.7	2015_May_21_1102	s	s	9	2	SIC	394	RC	2	0	02VD 02VO 09VC 02MD 02MO 02MC 02RD 02RO	1	0	1.62082505226	-321.0	128.0	-322	135	1
2.7	2015_May_21_1102	s	s	9	2	SIC	395	ABS	2	0	02VD 02VO 10VC 02MD 02MO 02MC 02RD 02RO	0	1	1.67080497742	None	None	None	None	1
2.7	2015_May_21_1102	s	s	9	2	SIC	396	ABS	1	2	02VD 02VO 02VC 10MD 02MO 02MC 02RD 02RO	0	1	1.82123804092	None	None	None	None	1
2.7	2015_May_21_1102	s	s	9	2	SIC	397	RC	0	2	02VD 02VO 02VC 02MD 02MO 02MC 09RD 02RO	1	0	0.994261980057	-128.0	-72.0	-134	-68	1
2.7	2015_May_21_1102	s	s	9	2	SIC	398	ABS	1	0	02VD 02VO 02VC 02MD 02MO 10MC 02RD 02RO	0	1	1.64231109619	None	None	None	None	1
2.7	2015_May_21_1102	s	s	9	2	SIC	399	ABS	2	1	02VD 10VO 02VC 02MD 02MO 02MC 02RD 02RO	0	1	1.94155788422	None	None	None	None	1
2.7	2015_May_21_1102	s	s	9	2	SIC	400	RC	1	0	02VD 02VO 02VC 02MD 02MO 09MC 02RD 02RO	1	0	2.51819491386	104.0	367.0	101	366	1
2.7	2015_May_21_1102	s	s	9	2	SIC	401	RC	0	2	02VD 02VO 02VC 02MD 02MO 02MC 09RD 02RO	1	0	1.37652206421	514.0	-144.0	513	-150	1
2.7	2015_May_21_1102	s	s	9	2	SIC	402	RC	1	1	02VD 02VO 02VC 02MD 09MO 02MC 02RD 02RO	1	0	1.96116614342	-73.0	-250.0	-69	-244	1
2.7	2015_May_21_1102	s	s	9	2	SIC	403	RC	0	1	02VD 02VO 02VC 02MD 02MO 02MC 02RD 09RO	1	0	3.25652217865	-481.0	358.0	-484	361	1
2.7	2015_May_21_1102	s	s	9	2	SIC	404	ABS	2	0	02VD 02VO 10VC 02MD 02MO 02MC 02RD 02RO	0	1	1.85913419724	None	None	None	None	1
2.7	2015_May_21_1102	s	s	9	2	SIC	405	ABS	0	2	02VD 02VO 02VC 02MD 02MO 02MC 10RD 02RO	0	1	2.23128986359	None	None	None	None	1
2.7	2015_May_21_1102	s	s	9	2	SIC	406	RC	1	0	02VD 02VO 02VC 02MD 02MO 09MC 02RD 02RO	1	0	1.49424600601	-213.0	-210.0	-210	-206	1
2.7	2015_May_21_1102	s	s	9	2	SIC	407	ABS	0	1	02VD 02VO 02VC 02MD 02MO 02MC 02RD 10RO	0	1	2.5653128624	None	None	None	None	1
2.7	2015_May_21_1102	s	s	9	2	SIC	408	ABS	2	2	10VD 02VO 02VC 02MD 02MO 02MC 02RD 02RO	0	1	2.73383402824	None	None	None	None	1
2.7	2015_May_21_1102	s	s	9	2	SIC	409	ABS	2	1	02VD 10VO 02VC 02MD 02MO 02MC 02RD 02RO	0	1	1.99477505684	None	None	None	None	1
2.7	2015_May_21_1102	s	s	9	2	SIC	410	RC	1	2	02VD 02VO 02VC 09MD 02MO 02MC 02RD 02RO	1	0	0.900960922241	411.0	-77.0	421	-73	1
2.7	2015_May_21_1102	s	s	9	2	SIC	411	RC	2	2	09VD 02VO 02VC 02MD 02MO 02MC 02RD 02RO	1	0	0.952766895294	93.0	-213.0	100	-218	1
2.7	2015_May_21_1102	s	s	9	2	SIC	412	RC	2	1	02VD 09VO 02VC 02MD 02MO 02MC 02RD 02RO	0	1	2.15342402458	40.0	398.0	None	None	0
2.7	2015_May_21_1102	s	s	9	2	SIC	413	ABS	1	1	02VD 02VO 02VC 02MD 10MO 02MC 02RD 02RO	0	1	1.76021409035	None	None	None	None	1
2.7	2015_May_21_1102	s	s	9	2	SIC	414	RC	2	0	02VD 02VO 09VC 02MD 02MO 02MC 02RD 02RO	1	0	1.87709498405	-500.0	-89.0	-499	-85	1
2.7	2015_May_21_1102	s	s	9	2	SIC	415	ABS	1	0	02VD 02VO 02VC 02MD 02MO 10MC 02RD 02RO	0	1	2.22396183014	None	None	None	None	1
2.7	2015_May_21_1102	s	s	9	2	SIC	416	ABS	1	2	02VD 02VO 02VC 10MD 02MO 02MC 02RD 02RO	0	1	1.38010811806	None	None	None	None	1
2.7	2015_May_21_1102	s	s	9	2	SIC	417	ABS	2	2	10VD 02VO 02VC 02MD 02MO 02MC 02RD 02RO	0	1	1.70105409622	None	None	None	None	1
2.7	2015_May_21_1102	s	s	9	2	SIC	418	ABS	0	1	02VD 02VO 02VC 02MD 02MO 02MC 02RD 10RO	0	1	3.03619980812	None	None	None	None	1
2.7	2015_May_21_1102	s	s	9	2	SIC	419	ABS	1	2	02VD 02VO 02VC 10MD 02MO 02MC 02RD 02RO	0	1	1.7060148716	None	None	None	None	1
2.7	2015_May_21_1102	s	s	9	2	SIC	420	RC	2	2	09VD 02VO 02VC 02MD 02MO 02MC 02RD 02RO	1	0	2.38385295868	470.0	-132.0	471	-133	1
2.7	2015_May_21_1102	s	s	9	2	SIC	421	RC	1	0	02VD 02VO 02VC 02MD 02MO 09MC 02RD 02RO	1	0	2.02391600609	356.0	-284.0	353	-281	1
2.7	2015_May_21_1102	s	s	9	2	SIC	422	RC	1	2	02VD 02VO 02VC 09MD 02MO 02MC 02RD 02RO	1	0	0.853055000305	379.0	-309.0	375	-303	1
2.7	2015_May_21_1102	s	s	9	2	SIC	423	RC	2	1	02VD 09VO 02VC 02MD 02MO 02MC 02RD 02RO	1	0	1.91536688805	294.0	-315.0	302	-316	1
2.7	2015_May_21_1102	s	s	9	2	SIC	424	RC	1	1	02VD 02VO 02VC 02MD 09MO 02MC 02RD 02RO	1	0	1.56487202644	-297.0	218.0	-300	216	1
2.7	2015_May_21_1102	s	s	9	2	SIC	425	ABS	1	0	02VD 02VO 02VC 02MD 02MO 10MC 02RD 02RO	0	1	2.68305015564	None	None	None	None	1
2.7	2015_May_21_1102	s	s	9	2	SIC	426	RC	0	2	02VD 02VO 02VC 02MD 02MO 02MC 09RD 02RO	1	0	0.905706882477	-5.0	-82.0	-6	-89	1
2.7	2015_May_21_1102	s	s	9	2	SIC	427	ABS	1	1	02VD 02VO 02VC 02MD 10MO 02MC 02RD 02RO	0	1	1.54971194267	None	None	None	None	1
2.7	2015_May_21_1102	s	s	9	2	SIC	428	ABS	2	1	02VD 10VO 02VC 02MD 02MO 02MC 02RD 02RO	0	1	1.79764199257	None	None	None	None	1
2.7	2015_May_21_1102	s	s	9	2	SIC	429	ABS	2	0	02VD 02VO 10VC 02MD 02MO 02MC 02RD 02RO	0	1	1.5021879673	None	None	None	None	1
2.7	2015_May_21_1102	s	s	9	2	SIC	430	RC	0	1	02VD 02VO 02VC 02MD 02MO 02MC 02RD 09RO	1	0	2.12475705147	-5.0	-406.0	4	-400	1
2.7	2015_May_21_1102	s	s	9	2	SIC	431	ABS	0	2	02VD 02VO 02VC 02MD 02MO 02MC 10RD 02RO	0	1	1.75318002701	None	None	None	None	1
2.7	2015_May_21_1102	s	s	9	2	SIC	432	RC	2	0	02VD 02VO 09VC 02MD 02MO 02MC 02RD 02RO	1	0	2.11804699898	193.0	-113.0	196	-113	1
2.7	2015_May_21_1102	s	s	9	2	SIC	433	RC	2	1	02VD 09VO 02VC 02MD 02MO 02MC 02RD 02RO	0	1	1.75076889992	424.0	227.0	None	None	0
2.7	2015_May_21_1102	s	s	9	2	SIC	434	RC	1	2	02VD 02VO 02VC 09MD 02MO 02MC 02RD 02RO	1	0	2.34854197502	534.0	-154.0	529	-148	1
2.7	2015_May_21_1102	s	s	9	2	SIC	435	RC	2	0	02VD 02VO 09VC 02MD 02MO 02MC 02RD 02RO	1	0	2.04744911194	-202.0	-2.0	-206	4	1
2.7	2015_May_21_1102	s	s	9	2	SIC	436	RC	0	2	02VD 02VO 02VC 02MD 02MO 02MC 09RD 02RO	1	0	1.17639303207	182.0	-165.0	181	-158	1
2.7	2015_May_21_1102	s	s	9	2	SIC	437	ABS	0	2	02VD 02VO 02VC 02MD 02MO 02MC 10RD 02RO	0	1	2.16157984734	None	None	None	None	1
2.7	2015_May_21_1102	s	s	9	2	SIC	438	ABS	0	1	02VD 02VO 02VC 02MD 02MO 02MC 02RD 10RO	0	1	2.58890318871	None	None	None	None	1
2.7	2015_May_21_1102	s	s	9	2	SIC	439	RC	2	2	09VD 02VO 02VC 02MD 02MO 02MC 02RD 02RO	1	0	1.07091999054	182.0	207.0	180	213	1
2.7	2015_May_21_1102	s	s	9	2	SIC	440	ABS	1	0	02VD 02VO 02VC 02MD 02MO 10MC 02RD 02RO	0	1	2.30125117302	None	None	None	None	1
2.7	2015_May_21_1102	s	s	9	2	SIC	441	ABS	2	0	02VD 02VO 10VC 02MD 02MO 02MC 02RD 02RO	0	1	1.61917304993	None	None	None	None	1
2.7	2015_May_21_1102	s	s	9	2	SIC	442	RC	1	0	02VD 02VO 02VC 02MD 02MO 09MC 02RD 02RO	1	0	0.983548164368	-19.0	88.0	-19	93	1
2.7	2015_May_21_1102	s	s	9	2	SIC	443	ABS	2	1	02VD 10VO 02VC 02MD 02MO 02MC 02RD 02RO	0	1	1.51277899742	None	None	None	None	1
2.7	2015_May_21_1102	s	s	9	2	SIC	444	ABS	1	1	02VD 02VO 02VC 02MD 10MO 02MC 02RD 02RO	0	1	2.29461097717	None	None	None	None	1
2.7	2015_May_21_1102	s	s	9	2	SIC	445	ABS	1	2	02VD 02VO 02VC 10MD 02MO 02MC 02RD 02RO	0	1	1.80023002625	None	None	None	None	1
2.7	2015_May_21_1102	s	s	9	2	SIC	446	RC	1	1	02VD 02VO 02VC 02MD 09MO 02MC 02RD 02RO	1	0	1.04356503487	111.0	311.0	110	315	1
2.7	2015_May_21_1102	s	s	9	2	SIC	447	ABS	2	2	10VD 02VO 02VC 02MD 02MO 02MC 02RD 02RO	0	1	1.79532289505	None	None	None	None	1
2.7	2015_May_21_1102	s	s	9	2	SIC	448	RC	0	1	02VD 02VO 02VC 02MD 02MO 02MC 02RD 09RO	0	1	2.14532804489	272.0	-300.0	None	None	0
2.7	2015_May_21_1102	s	s	9	2	SIC	449	RC	1	0	02VD 02VO 02VC 02MD 02MO 09MC 02RD 02RO	1	0	1.30125522614	-94.0	-229.0	-89	-226	1
2.7	2015_May_21_1102	s	s	9	2	SIC	450	RC	1	2	02VD 02VO 02VC 09MD 02MO 02MC 02RD 02RO	0	1	9.29832458496e-05	481.0	262.0	None	None	0
2.7	2015_May_21_1102	s	s	9	2	SIC	451	ABS	2	0	02VD 02VO 10VC 02MD 02MO 02MC 02RD 02RO	0	1	1.72964000702	None	None	None	None	1
2.7	2015_May_21_1102	s	s	9	2	SIC	452	RC	2	1	02VD 09VO 02VC 02MD 02MO 02MC 02RD 02RO	1	0	1.43037080765	-132.0	288.0	-135	295	1
2.7	2015_May_21_1102	s	s	9	2	SIC	453	ABS	2	2	10VD 02VO 02VC 02MD 02MO 02MC 02RD 02RO	0	1	2.23574709892	None	None	None	None	1
2.7	2015_May_21_1102	s	s	9	2	SIC	454	ABS	1	0	02VD 02VO 02VC 02MD 02MO 10MC 02RD 02RO	1	0	0.936059951782	None	None	-154	-5	0
2.7	2015_May_21_1102	s	s	9	2	SIC	455	RC	1	1	02VD 02VO 02VC 02MD 09MO 02MC 02RD 02RO	1	0	0.937466859818	80.0	-26.0	78	-27	1
2.7	2015_May_21_1102	s	s	9	2	SIC	456	RC	0	2	02VD 02VO 02VC 02MD 02MO 02MC 09RD 02RO	1	0	1.33307480812	152.0	-222.0	147	-223	1
2.7	2015_May_21_1102	s	s	9	2	SIC	457	RC	2	2	09VD 02VO 02VC 02MD 02MO 02MC 02RD 02RO	1	0	1.14809203148	-7.0	-251.0	-13	-248	1
2.7	2015_May_21_1102	s	s	9	2	SIC	458	ABS	0	2	02VD 02VO 02VC 02MD 02MO 02MC 10RD 02RO	0	1	1.55069494247	None	None	None	None	1
2.7	2015_May_21_1102	s	s	9	2	SIC	459	ABS	2	1	02VD 10VO 02VC 02MD 02MO 02MC 02RD 02RO	0	1	1.59527802467	None	None	None	None	1
2.7	2015_May_21_1102	s	s	9	2	SIC	460	RC	0	1	02VD 02VO 02VC 02MD 02MO 02MC 02RD 09RO	1	0	1.90616297722	292.0	388.0	296	394	1
2.7	2015_May_21_1102	s	s	9	2	SIC	461	ABS	1	1	02VD 02VO 02VC 02MD 10MO 02MC 02RD 02RO	0	1	3.43065094948	None	None	None	None	1
2.7	2015_May_21_1102	s	s	9	2	SIC	462	ABS	0	1	02VD 02VO 02VC 02MD 02MO 02MC 02RD 10RO	0	1	2.36528587341	None	None	None	None	1
2.7	2015_May_21_1102	s	s	9	2	SIC	463	ABS	1	2	02VD 02VO 02VC 10MD 02MO 02MC 02RD 02RO	0	1	1.88268518448	None	None	None	None	1
2.7	2015_May_21_1102	s	s	9	2	SIC	464	RC	2	0	02VD 02VO 09VC 02MD 02MO 02MC 02RD 02RO	1	0	1.8547410965	-282.0	126.0	-282	128	1
2.7	2015_May_21_1102	s	s	9	2	SIC	465	RC	1	0	02VD 02VO 02VC 02MD 02MO 09MC 02RD 02RO	1	0	1.55932497978	521.0	174.0	523	175	1
2.7	2015_May_21_1102	s	s	9	2	SIC	466	ABS	2	1	02VD 10VO 02VC 02MD 02MO 02MC 02RD 02RO	0	1	1.65535902977	None	None	None	None	1
2.7	2015_May_21_1102	s	s	9	2	SIC	467	ABS	0	1	02VD 02VO 02VC 02MD 02MO 02MC 02RD 10RO	0	1	6.15039992332	None	None	None	None	1
2.7	2015_May_21_1102	s	s	9	2	SIC	468	RC	2	1	02VD 09VO 02VC 02MD 02MO 02MC 02RD 02RO	1	0	2.14882993698	-37.0	-118.0	-43	-114	1
2.7	2015_May_21_1102	s	s	9	2	SIC	469	ABS	1	1	02VD 02VO 02VC 02MD 10MO 02MC 02RD 02RO	0	1	2.57219195366	None	None	None	None	1
2.7	2015_May_21_1102	s	s	9	2	SIC	470	ABS	1	0	02VD 02VO 02VC 02MD 02MO 10MC 02RD 02RO	0	1	2.57271790504	None	None	None	None	1
2.7	2015_May_21_1102	s	s	9	2	SIC	471	RC	1	1	02VD 02VO 02VC 02MD 09MO 02MC 02RD 02RO	1	0	0.941091060638	-138.0	151.0	-142	157	1
2.7	2015_May_21_1102	s	s	9	2	SIC	472	ABS	2	0	02VD 02VO 10VC 02MD 02MO 02MC 02RD 02RO	0	1	1.32421112061	None	None	None	None	1
2.7	2015_May_21_1102	s	s	9	2	SIC	473	RC	2	2	09VD 02VO 02VC 02MD 02MO 02MC 02RD 02RO	1	0	0.9291639328	-261.0	-73.0	-265	-63	1
2.7	2015_May_21_1102	s	s	9	2	SIC	474	RC	0	1	02VD 02VO 02VC 02MD 02MO 02MC 02RD 09RO	1	0	1.62371397018	466.0	115.0	464	121	1
2.7	2015_May_21_1102	s	s	9	2	SIC	475	ABS	1	2	02VD 02VO 02VC 10MD 02MO 02MC 02RD 02RO	0	1	3.08329606056	None	None	None	None	1
2.7	2015_May_21_1102	s	s	9	2	SIC	476	ABS	0	2	02VD 02VO 02VC 02MD 02MO 02MC 10RD 02RO	0	1	2.41921782494	None	None	None	None	1
2.7	2015_May_21_1102	s	s	9	2	SIC	477	RC	1	2	02VD 02VO 02VC 09MD 02MO 02MC 02RD 02RO	1	0	1.90122509003	-266.0	-186.0	-267	-182	1
2.7	2015_May_21_1102	s	s	9	2	SIC	478	ABS	2	2	10VD 02VO 02VC 02MD 02MO 02MC 02RD 02RO	0	1	2.38883519173	None	None	None	None	1
2.7	2015_May_21_1102	s	s	9	2	SIC	479	RC	2	0	02VD 02VO 09VC 02MD 02MO 02MC 02RD 02RO	0	1	4.1509001255	-266.0	-327.0	None	None	0
2.7	2015_May_21_1102	s	s	9	2	SIC	480	RC	0	2	02VD 02VO 02VC 02MD 02MO 02MC 09RD 02RO	1	0	1.23526716232	377.0	-348.0	389	-346	1
