Version	Date	Stimuli	Method	Subject	Session	Condition	Trial	Target	Channel1	Channel2	Distractors	LMouseButton	RMouseButton	RT	TargetX	TargetY	ResponseX	ResponseY	Correct
2.7	2015_Jun_02_1105	s	s	18	2	Capacity	1	ABS	0	1	08RD 16RO	0	1	5.26793599129	None	None	None	None	1
2.7	2015_Jun_02_1105	s	s	18	2	Capacity	2	ABS	0	2	16RD 08RO	0	1	2.73906493187	None	None	None	None	1
2.7	2015_Jun_02_1105	s	s	18	2	Capacity	3	RC	0	2	15RD 08RO	1	0	1.4941470623	-304.0	157.0	-307	151	1
2.7	2015_Jun_02_1105	s	s	18	2	Capacity	4	RC	0	1	08RD 15RO	1	0	1.98176693916	377.0	304.0	385	299	1
2.7	2015_Jun_02_1105	s	s	18	2	Capacity	5	RC	0	1	08RD 15RO	0	1	1.6237180233	153.0	-323.0	None	None	0
2.7	2015_Jun_02_1105	s	s	18	2	Capacity	6	RC	0	2	15RD 08RO	1	0	1.43042206764	390.0	235.0	396	233	1
2.7	2015_Jun_02_1105	s	s	18	2	Capacity	7	ABS	0	2	16RD 08RO	0	1	3.36339592934	None	None	None	None	1
2.7	2015_Jun_02_1105	s	s	18	2	Capacity	8	ABS	0	1	08RD 16RO	0	1	5.18551301956	None	None	None	None	1
2.7	2015_Jun_02_1105	s	s	18	2	Capacity	9	RC	0	2	15RD 08RO	0	1	3.4399061203	107.0	-290.0	None	None	0
2.7	2015_Jun_02_1105	s	s	18	2	Capacity	10	RC	0	1	08RD 15RO	1	0	1.65910005569	-178.0	149.0	-184	147	1
2.7	2015_Jun_02_1105	s	s	18	2	Capacity	11	ABS	0	1	08RD 16RO	0	1	3.24189209938	None	None	None	None	1
2.7	2015_Jun_02_1105	s	s	18	2	Capacity	12	ABS	0	2	16RD 08RO	0	1	2.78904008865	None	None	None	None	1
2.7	2015_Jun_02_1105	s	s	18	2	Capacity	13	RC	0	2	15RD 08RO	0	1	2.21223211288	-451.0	354.0	None	None	0
2.7	2015_Jun_02_1105	s	s	18	2	Capacity	14	ABS	0	2	16RD 08RO	0	1	1.77674603462	None	None	None	None	1
2.7	2015_Jun_02_1105	s	s	18	2	Capacity	15	ABS	0	1	08RD 16RO	0	1	3.46724104881	None	None	None	None	1
2.7	2015_Jun_02_1105	s	s	18	2	Capacity	16	RC	0	1	08RD 15RO	1	0	1.91472005844	437.0	250.0	443	255	1
2.7	2015_Jun_02_1105	s	s	18	2	Capacity	17	RC	0	1	08RD 15RO	1	0	2.05358290672	-36.0	-371.0	-35	-375	1
2.7	2015_Jun_02_1105	s	s	18	2	Capacity	18	ABS	0	1	08RD 16RO	0	1	3.92762088776	None	None	None	None	1
2.7	2015_Jun_02_1105	s	s	18	2	Capacity	19	RC	0	2	15RD 08RO	1	0	1.99535894394	-345.0	106.0	-337	103	1
2.7	2015_Jun_02_1105	s	s	18	2	Capacity	20	ABS	0	2	16RD 08RO	0	1	4.26042890549	None	None	None	None	1
2.7	2015_Jun_02_1105	s	s	18	2	Capacity	21	ABS	0	1	08RD 16RO	0	1	3.50378394127	None	None	None	None	1
2.7	2015_Jun_02_1105	s	s	18	2	Capacity	22	RC	0	1	08RD 15RO	1	0	2.94242095947	-126.0	-246.0	-118	-250	1
2.7	2015_Jun_02_1105	s	s	18	2	Capacity	23	RC	0	2	15RD 08RO	0	1	3.784760952	-193.0	-303.0	None	None	0
2.7	2015_Jun_02_1105	s	s	18	2	Capacity	24	ABS	0	2	16RD 08RO	0	1	3.64415192604	None	None	None	None	1
2.7	2015_Jun_02_1105	s	s	18	2	Capacity	25	ABS	0	2	16RD 08RO	0	1	2.70387411118	None	None	None	None	1
2.7	2015_Jun_02_1105	s	s	18	2	Capacity	26	RC	0	1	08RD 15RO	0	1	4.99686908722	2.0	324.0	None	None	0
2.7	2015_Jun_02_1105	s	s	18	2	Capacity	27	ABS	0	1	08RD 16RO	0	1	3.19825196266	None	None	None	None	1
2.7	2015_Jun_02_1105	s	s	18	2	Capacity	28	RC	0	2	15RD 08RO	0	1	2.19791603088	-317.0	-325.0	None	None	0
2.7	2015_Jun_02_1105	s	s	18	2	Capacity	29	ABS	0	1	08RD 16RO	0	1	3.52478504181	None	None	None	None	1
2.7	2015_Jun_02_1105	s	s	18	2	Capacity	30	ABS	0	2	16RD 08RO	0	1	2.40058684349	None	None	None	None	1
2.7	2015_Jun_02_1105	s	s	18	2	Capacity	31	RC	0	1	08RD 15RO	1	0	3.19835686684	165.0	220.0	157	218	1
2.7	2015_Jun_02_1105	s	s	18	2	Capacity	32	RC	0	2	15RD 08RO	1	0	1.74982595444	187.0	-274.0	185	-282	1
2.7	2015_Jun_02_1105	s	s	18	2	Capacity	33	ABS	0	1	08RD 16RO	0	1	3.74247479439	None	None	None	None	1
2.7	2015_Jun_02_1105	s	s	18	2	Capacity	34	RC	0	1	08RD 15RO	0	1	2.64452004433	-53.0	-4.0	None	None	0
2.7	2015_Jun_02_1105	s	s	18	2	Capacity	35	RC	0	2	15RD 08RO	0	1	0.234831094742	73.0	-132.0	None	None	0
2.7	2015_Jun_02_1105	s	s	18	2	Capacity	36	ABS	0	2	16RD 08RO	0	1	3.56083512306	None	None	None	None	1
2.7	2015_Jun_02_1105	s	s	18	2	Capacity	37	ABS	0	2	16RD 08RO	0	1	2.46621799469	None	None	None	None	1
2.7	2015_Jun_02_1105	s	s	18	2	Capacity	38	RC	0	2	15RD 08RO	1	0	2.13564896584	175.0	139.0	177	133	1
2.7	2015_Jun_02_1105	s	s	18	2	Capacity	39	ABS	0	1	08RD 16RO	0	1	4.11894392967	None	None	None	None	1
2.7	2015_Jun_02_1105	s	s	18	2	Capacity	40	RC	0	1	08RD 15RO	1	0	3.05973601341	491.0	347.0	491	348	1
2.7	2015_Jun_02_1105	s	s	18	2	Capacity	41	RC	0	1	08RD 15RO	1	0	4.36606407166	-476.0	107.0	-477	109	1
2.7	2015_Jun_02_1105	s	s	18	2	Capacity	42	RC	0	2	15RD 08RO	1	0	1.87086200714	39.0	253.0	30	260	1
2.7	2015_Jun_02_1105	s	s	18	2	Capacity	43	ABS	0	1	08RD 16RO	0	1	5.17307114601	None	None	None	None	1
2.7	2015_Jun_02_1105	s	s	18	2	Capacity	44	ABS	0	2	16RD 08RO	1	0	5.17852592468	None	None	15	20	0
2.7	2015_Jun_02_1105	s	s	18	2	Capacity	45	ABS	0	1	08RD 16RO	0	1	4.23122096062	None	None	None	None	1
2.7	2015_Jun_02_1105	s	s	18	2	Capacity	46	RC	0	2	15RD 08RO	1	0	1.5241727829	-171.0	11.0	-170	9	1
2.7	2015_Jun_02_1105	s	s	18	2	Capacity	47	ABS	0	2	16RD 08RO	0	1	0.705544948578	None	None	None	None	1
2.7	2015_Jun_02_1105	s	s	18	2	Capacity	48	RC	0	1	08RD 15RO	0	1	3.45969295502	-507.0	224.0	None	None	0
2.7	2015_Jun_02_1105	s	s	18	2	Capacity	49	RC	0	1	08RD 15RO	1	0	1.08975100517	-107.0	369.0	-108	368	1
2.7	2015_Jun_02_1105	s	s	18	2	Capacity	50	RC	0	2	15RD 08RO	1	0	2.46605014801	296.0	339.0	295	338	1
2.7	2015_Jun_02_1105	s	s	18	2	Capacity	51	ABS	0	1	08RD 16RO	0	1	4.98520684242	None	None	None	None	1
2.7	2015_Jun_02_1105	s	s	18	2	Capacity	52	ABS	0	2	16RD 08RO	0	1	3.37333679199	None	None	None	None	1
2.7	2015_Jun_02_1105	s	s	18	2	Capacity	53	RC	0	1	08RD 15RO	1	0	0.913036108017	-164.0	44.0	-166	43	1
2.7	2015_Jun_02_1105	s	s	18	2	Capacity	54	ABS	0	2	16RD 08RO	0	1	2.30059695244	None	None	None	None	1
2.7	2015_Jun_02_1105	s	s	18	2	Capacity	55	RC	0	2	15RD 08RO	1	0	2.45600199699	176.0	-30.0	169	-27	1
2.7	2015_Jun_02_1105	s	s	18	2	Capacity	56	ABS	0	1	08RD 16RO	0	1	4.62522292137	None	None	None	None	1
2.7	2015_Jun_02_1105	s	s	18	2	Capacity	57	ABS	0	2	16RD 08RO	0	1	1.9884531498	None	None	None	None	1
2.7	2015_Jun_02_1105	s	s	18	2	Capacity	58	ABS	0	1	08RD 16RO	0	1	4.46052384377	None	None	None	None	1
2.7	2015_Jun_02_1105	s	s	18	2	Capacity	59	RC	0	2	15RD 08RO	1	0	1.4422249794	262.0	-101.0	267	-92	1
2.7	2015_Jun_02_1105	s	s	18	2	Capacity	60	RC	0	1	08RD 15RO	0	1	2.17259001732	421.0	354.0	None	None	0
2.7	2015_Jun_02_1105	s	s	18	2	Capacity	61	RC	0	2	15RD 08RO	0	1	2.15337181091	471.0	-83.0	None	None	0
2.7	2015_Jun_02_1105	s	s	18	2	Capacity	62	ABS	0	2	16RD 08RO	0	1	1.9956908226	None	None	None	None	1
2.7	2015_Jun_02_1105	s	s	18	2	Capacity	63	RC	0	1	08RD 15RO	1	0	3.05446887016	-273.0	-147.0	-268	-152	1
2.7	2015_Jun_02_1105	s	s	18	2	Capacity	64	ABS	0	1	08RD 16RO	0	1	2.91857218742	None	None	None	None	1
2.7	2015_Jun_02_1105	s	s	18	2	Capacity	1	RC	2	0	15VC 08MC	1	0	6.18475699425	-477.0	249.0	42	-74	0
2.7	2015_Jun_02_1105	s	s	18	2	Capacity	2	RC	1	0	08VC 15MC	1	0	0.631367921829	243.0	113.0	-267	79	0
2.7	2015_Jun_02_1105	s	s	18	2	Capacity	3	ABS	2	0	16VC 08MC	1	0	0.599681138992	None	None	-310	78	0
2.7	2015_Jun_02_1105	s	s	18	2	Capacity	4	ABS	1	0	08VC 16MC	1	0	0.631989002228	None	None	-3	79	0
2.7	2015_Jun_02_1105	s	s	18	2	Capacity	5	ABS	1	0	08VC 16MC	1	0	1.06741690636	None	None	-90	10	0
2.7	2015_Jun_02_1105	s	s	18	2	Capacity	6	ABS	2	0	16VC 08MC	1	0	1.86738204956	None	None	-92	164	0
2.7	2015_Jun_02_1105	s	s	18	2	Capacity	7	RC	2	0	15VC 08MC	1	0	0.550085783005	476.0	384.0	-278	-100	0
2.7	2015_Jun_02_1105	s	s	18	2	Capacity	8	RC	1	0	08VC 15MC	1	0	0.422988891602	53.0	-103.0	-301	80	0
2.7	2015_Jun_02_1105	s	s	18	2	Capacity	9	ABS	1	0	08VC 16MC	1	0	0.44648194313	None	None	-107	122	0
2.7	2015_Jun_02_1105	s	s	18	2	Capacity	10	RC	1	0	08VC 15MC	1	0	0.666782140732	-308.0	289.0	29	105	0
2.7	2015_Jun_02_1105	s	s	18	2	Capacity	11	RC	2	0	15VC 08MC	1	0	0.670176029205	-54.0	-235.0	-52	-240	1
2.7	2015_Jun_02_1105	s	s	18	2	Capacity	12	ABS	2	0	16VC 08MC	1	0	0.5959649086	None	None	107	-244	0
2.7	2015_Jun_02_1105	s	s	18	2	Capacity	13	RC	2	0	15VC 08MC	1	0	0.620807886124	-458.0	32.0	-75	82	0
2.7	2015_Jun_02_1105	s	s	18	2	Capacity	14	ABS	1	0	08VC 16MC	1	0	0.594070196152	None	None	-75	183	0
2.7	2015_Jun_02_1105	s	s	18	2	Capacity	15	ABS	2	0	16VC 08MC	1	0	0.385177135468	None	None	-194	224	0
2.7	2015_Jun_02_1105	s	s	18	2	Capacity	16	RC	1	0	08VC 15MC	1	0	0.429256916046	-26.0	190.0	-143	317	0
2.7	2015_Jun_02_1105	s	s	18	2	Capacity	17	ABS	2	0	16VC 08MC	1	0	0.493759870529	None	None	-172	128	0
2.7	2015_Jun_02_1105	s	s	18	2	Capacity	18	RC	1	0	08VC 15MC	1	0	0.281733036041	-391.0	-131.0	-220	39	0
2.7	2015_Jun_02_1105	s	s	18	2	Capacity	19	ABS	1	0	08VC 16MC	1	0	0.528967142105	None	None	-164	-86	0
2.7	2015_Jun_02_1105	s	s	18	2	Capacity	20	RC	2	0	15VC 08MC	1	0	0.757740020752	-124.0	190.0	-118	194	1
2.7	2015_Jun_02_1105	s	s	18	2	Capacity	21	ABS	1	0	08VC 16MC	1	0	0.703001976013	None	None	-217	92	0
2.7	2015_Jun_02_1105	s	s	18	2	Capacity	22	RC	1	0	08VC 15MC	1	0	0.623240947723	-170.0	120.0	-163	124	1
2.7	2015_Jun_02_1105	s	s	18	2	Capacity	23	ABS	2	0	16VC 08MC	1	0	0.646807909012	None	None	-165	-128	0
2.7	2015_Jun_02_1105	s	s	18	2	Capacity	24	RC	2	0	15VC 08MC	1	0	0.77089881897	-49.0	231.0	-267	-70	0
2.7	2015_Jun_02_1105	s	s	18	2	Capacity	25	ABS	1	0	08VC 16MC	1	0	0.58278799057	None	None	-125	85	0
2.7	2015_Jun_02_1105	s	s	18	2	Capacity	26	ABS	2	0	16VC 08MC	1	0	1.39202690125	None	None	25	16	0
2.7	2015_Jun_02_1105	s	s	18	2	Capacity	27	RC	2	0	15VC 08MC	1	0	1.18820285797	-528.0	-85.0	31	244	0
2.7	2015_Jun_02_1105	s	s	18	2	Capacity	28	RC	1	0	08VC 15MC	1	0	0.670182943344	-250.0	236.0	-284	51	0
2.7	2015_Jun_02_1105	s	s	18	2	Capacity	29	ABS	1	0	08VC 16MC	1	0	0.752758979797	None	None	-194	157	0
2.7	2015_Jun_02_1105	s	s	18	2	Capacity	30	RC	2	0	15VC 08MC	1	0	0.529129981995	350.0	265.0	-143	234	0
2.7	2015_Jun_02_1105	s	s	18	2	Capacity	31	RC	1	0	08VC 15MC	1	0	1.2470138073	-36.0	-137.0	-242	55	0
2.7	2015_Jun_02_1105	s	s	18	2	Capacity	32	ABS	2	0	16VC 08MC	1	0	0.843938112259	None	None	-43	149	0
2.7	2015_Jun_02_1105	s	s	18	2	Capacity	33	ABS	1	0	08VC 16MC	1	0	0.714282989502	None	None	-4	-20	0
2.7	2015_Jun_02_1105	s	s	18	2	Capacity	34	RC	2	0	15VC 08MC	1	0	0.725764989853	-357.0	-188.0	-125	-181	0
2.7	2015_Jun_02_1105	s	s	18	2	Capacity	35	RC	1	0	08VC 15MC	1	0	0.682049036026	-201.0	-64.0	-198	-70	1
2.7	2015_Jun_02_1105	s	s	18	2	Capacity	36	ABS	2	0	16VC 08MC	1	0	1.45879292488	None	None	-221	-365	0
2.7	2015_Jun_02_1105	s	s	18	2	Capacity	37	RC	2	0	15VC 08MC	1	0	0.493675947189	-442.0	-15.0	-14	78	0
2.7	2015_Jun_02_1105	s	s	18	2	Capacity	38	RC	1	0	08VC 15MC	1	0	0.808970212936	-182.0	254.0	51	33	0
2.7	2015_Jun_02_1105	s	s	18	2	Capacity	39	ABS	2	0	16VC 08MC	1	0	0.66473197937	None	None	149	12	0
2.7	2015_Jun_02_1105	s	s	18	2	Capacity	40	ABS	1	0	08VC 16MC	1	0	1.27061796188	None	None	128	52	0
2.7	2015_Jun_02_1105	s	s	18	2	Capacity	41	RC	1	0	08VC 15MC	1	0	0.606748104095	-319.0	-405.0	2	14	0
2.7	2015_Jun_02_1105	s	s	18	2	Capacity	42	ABS	1	0	08VC 16MC	1	0	0.550348043442	None	None	-50	-1	0
2.7	2015_Jun_02_1105	s	s	18	2	Capacity	43	RC	2	0	15VC 08MC	1	0	0.463194847107	301.0	369.0	98	-99	0
2.7	2015_Jun_02_1105	s	s	18	2	Capacity	44	ABS	2	0	16VC 08MC	1	0	0.524083137512	None	None	50	-170	0
2.7	2015_Jun_02_1105	s	s	18	2	Capacity	45	RC	1	0	08VC 15MC	1	0	0.599598884583	-539.0	240.0	5	-264	0
2.7	2015_Jun_02_1105	s	s	18	2	Capacity	46	ABS	1	0	08VC 16MC	1	0	0.505486011505	None	None	-101	-131	0
2.7	2015_Jun_02_1105	s	s	18	2	Capacity	47	ABS	2	0	16VC 08MC	1	0	0.372380018234	None	None	-184	-19	0
2.7	2015_Jun_02_1105	s	s	18	2	Capacity	48	RC	2	0	15VC 08MC	1	0	0.573548793793	457.0	397.0	45	123	0
2.7	2015_Jun_02_1105	s	s	18	2	Capacity	49	RC	1	0	08VC 15MC	1	0	0.523951053619	-230.0	119.0	77	90	0
2.7	2015_Jun_02_1105	s	s	18	2	Capacity	50	ABS	2	0	16VC 08MC	1	0	0.512331962585	None	None	-133	59	0
2.7	2015_Jun_02_1105	s	s	18	2	Capacity	51	ABS	1	0	08VC 16MC	1	0	1.07649898529	None	None	95	213	0
2.7	2015_Jun_02_1105	s	s	18	2	Capacity	52	RC	2	0	15VC 08MC	1	0	0.270150899887	12.0	67.0	63	208	0
2.7	2015_Jun_02_1105	s	s	18	2	Capacity	53	ABS	1	0	08VC 16MC	1	0	0.464319944382	None	None	123	156	0
2.7	2015_Jun_02_1105	s	s	18	2	Capacity	54	RC	2	0	15VC 08MC	1	0	0.493592023849	-433.0	65.0	-35	136	0
2.7	2015_Jun_02_1105	s	s	18	2	Capacity	55	ABS	2	0	16VC 08MC	1	0	0.534171819687	None	None	-50	18	0
2.7	2015_Jun_02_1105	s	s	18	2	Capacity	56	RC	1	0	08VC 15MC	1	0	0.467533111572	-169.0	195.0	-91	-50	0
2.7	2015_Jun_02_1105	s	s	18	2	Capacity	57	RC	1	0	08VC 15MC	1	0	0.290212869644	-8.0	297.0	-342	-156	0
2.7	2015_Jun_02_1105	s	s	18	2	Capacity	58	RC	2	0	15VC 08MC	1	0	0.546278953552	-499.0	167.0	-264	-67	0
2.7	2015_Jun_02_1105	s	s	18	2	Capacity	59	ABS	2	0	16VC 08MC	1	0	0.258260965347	None	None	-508	-74	0
2.7	2015_Jun_02_1105	s	s	18	2	Capacity	60	ABS	1	0	08VC 16MC	1	0	0.0817649364471	None	None	-513	125	0
2.7	2015_Jun_02_1105	s	s	18	2	Capacity	61	ABS	1	0	08VC 16MC	1	0	0.265383958817	None	None	-257	119	0
2.7	2015_Jun_02_1105	s	s	18	2	Capacity	62	RC	2	0	15VC 08MC	1	0	0.59955906868	-132.0	-277.0	-270	78	0
2.7	2015_Jun_02_1105	s	s	18	2	Capacity	63	RC	1	0	08VC 15MC	1	0	0.478227853775	-261.0	31.0	-259	25	1
2.7	2015_Jun_02_1105	s	s	18	2	Capacity	64	ABS	2	0	16VC 08MC	1	0	0.806383132935	None	None	-93	128	0
2.7	2015_Jun_02_1105	s	s	18	2	SIC	1	ABS	2	1	02VD 10VO 02VC 02MD 02MO 02MC 02RD 02RO	1	0	1.4588971138	None	None	-208	-186	0
2.7	2015_Jun_02_1105	s	s	18	2	SIC	2	ABS	0	1	02VD 02VO 02VC 02MD 02MO 02MC 02RD 10RO	1	0	1.08224797249	None	None	-85	385	0
2.7	2015_Jun_02_1105	s	s	18	2	SIC	3	ABS	1	1	02VD 02VO 02VC 02MD 10MO 02MC 02RD 02RO	1	0	0.464401006699	None	None	285	252	0
2.7	2015_Jun_02_1105	s	s	18	2	SIC	4	ABS	1	0	02VD 02VO 02VC 02MD 02MO 10MC 02RD 02RO	1	0	0.570442914963	None	None	301	278	0
2.7	2015_Jun_02_1105	s	s	18	2	SIC	5	ABS	0	2	02VD 02VO 02VC 02MD 02MO 02MC 10RD 02RO	1	0	1.17039608955	None	None	226	86	0
2.7	2015_Jun_02_1105	s	s	18	2	SIC	6	RC	0	1	02VD 02VO 02VC 02MD 02MO 02MC 02RD 09RO	1	0	0.540650129318	38.0	-53.0	122	144	0
2.7	2015_Jun_02_1105	s	s	18	2	SIC	7	RC	1	2	02VD 02VO 02VC 09MD 02MO 02MC 02RD 02RO	1	0	0.693669080734	-74.0	-150.0	-68	-156	1
2.7	2015_Jun_02_1105	s	s	18	2	SIC	8	RC	1	0	02VD 02VO 02VC 02MD 02MO 09MC 02RD 02RO	1	0	1.12540197372	205.0	-19.0	63	120	0
2.7	2015_Jun_02_1105	s	s	18	2	SIC	9	ABS	2	0	02VD 02VO 10VC 02MD 02MO 02MC 02RD 02RO	1	0	1.52440190315	None	None	504	-63	0
2.7	2015_Jun_02_1105	s	s	18	2	SIC	10	RC	2	1	02VD 09VO 02VC 02MD 02MO 02MC 02RD 02RO	1	0	0.749051809311	-185.0	325.0	203	274	0
2.7	2015_Jun_02_1105	s	s	18	2	SIC	11	ABS	1	2	02VD 02VO 02VC 10MD 02MO 02MC 02RD 02RO	1	0	1.62361502647	None	None	-71	-373	0
2.7	2015_Jun_02_1105	s	s	18	2	SIC	12	ABS	2	2	10VD 02VO 02VC 02MD 02MO 02MC 02RD 02RO	1	0	0.929262876511	None	None	-161	62	0
2.7	2015_Jun_02_1105	s	s	18	2	SIC	13	RC	2	2	09VD 02VO 02VC 02MD 02MO 02MC 02RD 02RO	1	0	0.794122934341	397.0	166.0	156	27	0
2.7	2015_Jun_02_1105	s	s	18	2	SIC	14	RC	2	0	02VD 02VO 09VC 02MD 02MO 02MC 02RD 02RO	1	0	1.6354470253	-521.0	-157.0	483	-116	0
2.7	2015_Jun_02_1105	s	s	18	2	SIC	15	RC	1	1	02VD 02VO 02VC 02MD 09MO 02MC 02RD 02RO	1	0	1.2069029808	194.0	246.0	193	242	1
2.7	2015_Jun_02_1105	s	s	18	2	SIC	16	RC	0	2	02VD 02VO 02VC 02MD 02MO 02MC 09RD 02RO	1	0	0.823339939117	71.0	-134.0	-247	-14	0
2.7	2015_Jun_02_1105	s	s	18	2	SIC	17	RC	1	2	02VD 02VO 02VC 09MD 02MO 02MC 02RD 02RO	1	0	0.681999206543	363.0	70.0	33	-174	0
2.7	2015_Jun_02_1105	s	s	18	2	SIC	18	RC	0	1	02VD 02VO 02VC 02MD 02MO 02MC 02RD 09RO	1	0	0.546972036362	3.0	-209.0	2	-213	1
2.7	2015_Jun_02_1105	s	s	18	2	SIC	19	ABS	2	2	10VD 02VO 02VC 02MD 02MO 02MC 02RD 02RO	1	0	2.29115200043	None	None	535	178	0
2.7	2015_Jun_02_1105	s	s	18	2	SIC	20	RC	1	0	02VD 02VO 02VC 02MD 02MO 09MC 02RD 02RO	1	0	0.552609205246	-454.0	-188.0	27	-30	0
2.7	2015_Jun_02_1105	s	s	18	2	SIC	21	RC	1	1	02VD 02VO 02VC 02MD 09MO 02MC 02RD 02RO	1	0	0.771769046783	-480.0	405.0	337	13	0
2.7	2015_Jun_02_1105	s	s	18	2	SIC	22	ABS	1	0	02VD 02VO 02VC 02MD 02MO 10MC 02RD 02RO	1	0	0.594482183456	None	None	11	48	0
2.7	2015_Jun_02_1105	s	s	18	2	SIC	23	ABS	1	2	02VD 02VO 02VC 10MD 02MO 02MC 02RD 02RO	1	0	1.18856215477	None	None	477	151	0
2.7	2015_Jun_02_1105	s	s	18	2	SIC	24	RC	2	2	09VD 02VO 02VC 02MD 02MO 02MC 02RD 02RO	1	0	0.82381105423	-283.0	161.0	70	71	0
2.7	2015_Jun_02_1105	s	s	18	2	SIC	25	ABS	0	2	02VD 02VO 02VC 02MD 02MO 02MC 10RD 02RO	1	0	1.98346018791	None	None	-474	104	0
2.7	2015_Jun_02_1105	s	s	18	2	SIC	26	ABS	0	1	02VD 02VO 02VC 02MD 02MO 02MC 02RD 10RO	1	0	3.53795099258	None	None	-371	-160	0
2.7	2015_Jun_02_1105	s	s	18	2	SIC	27	ABS	2	1	02VD 10VO 02VC 02MD 02MO 02MC 02RD 02RO	1	0	3.59841895103	None	None	160	353	0
2.7	2015_Jun_02_1105	s	s	18	2	SIC	28	ABS	2	0	02VD 02VO 10VC 02MD 02MO 02MC 02RD 02RO	1	0	0.929208993912	None	None	259	111	0
2.7	2015_Jun_02_1105	s	s	18	2	SIC	29	RC	2	0	02VD 02VO 09VC 02MD 02MO 02MC 02RD 02RO	1	0	1.56017398834	-180.0	-44.0	24	333	0
2.7	2015_Jun_02_1105	s	s	18	2	SIC	30	RC	0	2	02VD 02VO 02VC 02MD 02MO 02MC 09RD 02RO	1	0	1.04686188698	284.0	-354.0	174	-60	0
2.7	2015_Jun_02_1105	s	s	18	2	SIC	31	ABS	1	1	02VD 02VO 02VC 02MD 10MO 02MC 02RD 02RO	1	0	2.73681902885	None	None	143	-245	0
2.7	2015_Jun_02_1105	s	s	18	2	SIC	32	RC	2	1	02VD 09VO 02VC 02MD 02MO 02MC 02RD 02RO	1	0	1.76190018654	-205.0	404.0	-203	400	1
2.7	2015_Jun_02_1105	s	s	18	2	SIC	33	ABS	1	1	02VD 02VO 02VC 02MD 10MO 02MC 02RD 02RO	1	0	1.11393904686	None	None	-232	107	0
2.7	2015_Jun_02_1105	s	s	18	2	SIC	34	ABS	1	2	02VD 02VO 02VC 10MD 02MO 02MC 02RD 02RO	1	0	1.02343201637	None	None	-513	78	0
2.7	2015_Jun_02_1105	s	s	18	2	SIC	35	ABS	2	2	10VD 02VO 02VC 02MD 02MO 02MC 02RD 02RO	1	0	0.793946027756	None	None	-22	211	0
2.7	2015_Jun_02_1105	s	s	18	2	SIC	36	ABS	1	0	02VD 02VO 02VC 02MD 02MO 10MC 02RD 02RO	1	0	0.66231918335	None	None	-36	86	0
2.7	2015_Jun_02_1105	s	s	18	2	SIC	37	ABS	2	1	02VD 10VO 02VC 02MD 02MO 02MC 02RD 02RO	1	0	1.54774904251	None	None	-121	331	0
2.7	2015_Jun_02_1105	s	s	18	2	SIC	38	RC	0	1	02VD 02VO 02VC 02MD 02MO 02MC 02RD 09RO	1	0	1.74142980576	56.0	-96.0	517	78	0
2.7	2015_Jun_02_1105	s	s	18	2	SIC	39	ABS	0	2	02VD 02VO 02VC 02MD 02MO 02MC 10RD 02RO	1	0	1.59523010254	None	None	309	137	0
2.7	2015_Jun_02_1105	s	s	18	2	SIC	40	RC	2	2	09VD 02VO 02VC 02MD 02MO 02MC 02RD 02RO	1	0	0.952730894089	-266.0	140.0	-267	133	1
2.7	2015_Jun_02_1105	s	s	18	2	SIC	41	RC	1	2	02VD 02VO 02VC 09MD 02MO 02MC 02RD 02RO	1	0	1.31503605843	-149.0	-247.0	297	227	0
2.7	2015_Jun_02_1105	s	s	18	2	SIC	42	RC	2	1	02VD 09VO 02VC 02MD 02MO 02MC 02RD 02RO	1	0	0.944789171219	-146.0	-409.0	-262	249	0
2.7	2015_Jun_02_1105	s	s	18	2	SIC	43	RC	1	1	02VD 02VO 02VC 02MD 09MO 02MC 02RD 02RO	1	0	2.57262682915	-112.0	-384.0	-109	-386	1
2.7	2015_Jun_02_1105	s	s	18	2	SIC	44	RC	0	2	02VD 02VO 02VC 02MD 02MO 02MC 09RD 02RO	1	0	1.40617203712	326.0	-396.0	328	-410	1
2.7	2015_Jun_02_1105	s	s	18	2	SIC	45	ABS	0	1	02VD 02VO 02VC 02MD 02MO 02MC 02RD 10RO	1	0	1.15277600288	None	None	-274	-147	0
2.7	2015_Jun_02_1105	s	s	18	2	SIC	46	ABS	2	0	02VD 02VO 10VC 02MD 02MO 02MC 02RD 02RO	1	0	2.37355780602	None	None	-65	-94	0
2.7	2015_Jun_02_1105	s	s	18	2	SIC	47	RC	2	0	02VD 02VO 09VC 02MD 02MO 02MC 02RD 02RO	1	0	0.999893188477	-170.0	83.0	-279	-110	0
2.7	2015_Jun_02_1105	s	s	18	2	SIC	48	RC	1	0	02VD 02VO 02VC 02MD 02MO 09MC 02RD 02RO	1	0	0.5290350914	-243.0	127.0	-232	131	1
2.7	2015_Jun_02_1105	s	s	18	2	SIC	49	RC	0	2	02VD 02VO 02VC 02MD 02MO 02MC 09RD 02RO	1	0	0.714983940125	496.0	374.0	-482	160	0
2.7	2015_Jun_02_1105	s	s	18	2	SIC	50	ABS	2	2	10VD 02VO 02VC 02MD 02MO 02MC 02RD 02RO	1	0	1.2208070755	None	None	-50	-260	0
2.7	2015_Jun_02_1105	s	s	18	2	SIC	51	ABS	2	1	02VD 10VO 02VC 02MD 02MO 02MC 02RD 02RO	1	0	1.27043294907	None	None	254	-327	0
2.7	2015_Jun_02_1105	s	s	18	2	SIC	52	RC	0	1	02VD 02VO 02VC 02MD 02MO 02MC 02RD 09RO	1	0	1.61853790283	309.0	354.0	-300	-177	0
2.7	2015_Jun_02_1105	s	s	18	2	SIC	53	RC	1	0	02VD 02VO 02VC 02MD 02MO 09MC 02RD 02RO	1	0	0.713814973831	308.0	360.0	-298	361	0
2.7	2015_Jun_02_1105	s	s	18	2	SIC	54	RC	2	0	02VD 02VO 09VC 02MD 02MO 02MC 02RD 02RO	1	0	1.19499087334	433.0	-373.0	-426	-58	0
2.7	2015_Jun_02_1105	s	s	18	2	SIC	55	ABS	2	0	02VD 02VO 10VC 02MD 02MO 02MC 02RD 02RO	1	0	2.07977294922	None	None	534	-299	0
2.7	2015_Jun_02_1105	s	s	18	2	SIC	56	ABS	1	2	02VD 02VO 02VC 10MD 02MO 02MC 02RD 02RO	1	0	1.06525492668	None	None	212	-197	0
2.7	2015_Jun_02_1105	s	s	18	2	SIC	57	ABS	0	2	02VD 02VO 02VC 02MD 02MO 02MC 10RD 02RO	1	0	1.3358900547	None	None	368	349	0
2.7	2015_Jun_02_1105	s	s	18	2	SIC	58	RC	1	2	02VD 02VO 02VC 09MD 02MO 02MC 02RD 02RO	1	0	1.17291593552	-119.0	375.0	-259	-34	0
2.7	2015_Jun_02_1105	s	s	18	2	SIC	59	RC	1	1	02VD 02VO 02VC 02MD 09MO 02MC 02RD 02RO	1	0	0.770356178284	-465.0	197.0	-168	264	0
2.7	2015_Jun_02_1105	s	s	18	2	SIC	60	RC	2	1	02VD 09VO 02VC 02MD 02MO 02MC 02RD 02RO	1	0	0.796977996826	-40.0	-390.0	376	325	0
2.7	2015_Jun_02_1105	s	s	18	2	SIC	61	ABS	1	1	02VD 02VO 02VC 02MD 10MO 02MC 02RD 02RO	1	0	1.38486385345	None	None	-236	-288	0
2.7	2015_Jun_02_1105	s	s	18	2	SIC	62	ABS	1	0	02VD 02VO 02VC 02MD 02MO 10MC 02RD 02RO	1	0	0.652599096298	None	None	180	162	0
2.7	2015_Jun_02_1105	s	s	18	2	SIC	63	RC	2	2	09VD 02VO 02VC 02MD 02MO 02MC 02RD 02RO	1	0	1.40831804276	-440.0	35.0	-438	37	1
2.7	2015_Jun_02_1105	s	s	18	2	SIC	64	ABS	0	1	02VD 02VO 02VC 02MD 02MO 02MC 02RD 10RO	1	0	1.07047200203	None	None	-347	335	0
2.7	2015_Jun_02_1105	s	s	18	2	SIC	65	RC	2	0	02VD 02VO 09VC 02MD 02MO 02MC 02RD 02RO	1	0	1.79514718056	334.0	-319.0	330	-318	1
2.7	2015_Jun_02_1105	s	s	18	2	SIC	66	RC	0	2	02VD 02VO 02VC 02MD 02MO 02MC 09RD 02RO	1	0	1.34789419174	-532.0	-66.0	-459	181	0
2.7	2015_Jun_02_1105	s	s	18	2	SIC	67	ABS	1	0	02VD 02VO 02VC 02MD 02MO 10MC 02RD 02RO	1	0	0.841902971268	None	None	82	257	0
2.7	2015_Jun_02_1105	s	s	18	2	SIC	68	RC	2	2	09VD 02VO 02VC 02MD 02MO 02MC 02RD 02RO	1	0	2.07082605362	277.0	-285.0	279	-279	1
2.7	2015_Jun_02_1105	s	s	18	2	SIC	69	RC	1	2	02VD 02VO 02VC 09MD 02MO 02MC 02RD 02RO	1	0	1.75843405724	532.0	-267.0	539	-262	1
2.7	2015_Jun_02_1105	s	s	18	2	SIC	70	RC	0	1	02VD 02VO 02VC 02MD 02MO 02MC 02RD 09RO	1	0	1.17133784294	-376.0	289.0	-373	284	1
2.7	2015_Jun_02_1105	s	s	18	2	SIC	71	ABS	0	2	02VD 02VO 02VC 02MD 02MO 02MC 10RD 02RO	1	0	0.635052919388	None	None	-61	40	0
2.7	2015_Jun_02_1105	s	s	18	2	SIC	72	ABS	2	0	02VD 02VO 10VC 02MD 02MO 02MC 02RD 02RO	1	0	1.16463494301	None	None	-384	367	0
2.7	2015_Jun_02_1105	s	s	18	2	SIC	73	ABS	1	2	02VD 02VO 02VC 10MD 02MO 02MC 02RD 02RO	1	0	0.9971139431	None	None	-449	205	0
2.7	2015_Jun_02_1105	s	s	18	2	SIC	74	RC	2	1	02VD 09VO 02VC 02MD 02MO 02MC 02RD 02RO	1	0	1.11369013786	-165.0	-342.0	-303	307	0
2.7	2015_Jun_02_1105	s	s	18	2	SIC	75	ABS	2	2	10VD 02VO 02VC 02MD 02MO 02MC 02RD 02RO	1	0	1.11752796173	None	None	42	194	0
2.7	2015_Jun_02_1105	s	s	18	2	SIC	76	ABS	1	1	02VD 02VO 02VC 02MD 10MO 02MC 02RD 02RO	1	0	0.806575059891	None	None	56	271	0
2.7	2015_Jun_02_1105	s	s	18	2	SIC	77	RC	1	1	02VD 02VO 02VC 02MD 09MO 02MC 02RD 02RO	1	0	2.77150702477	400.0	-316.0	405	-320	1
2.7	2015_Jun_02_1105	s	s	18	2	SIC	78	ABS	0	1	02VD 02VO 02VC 02MD 02MO 02MC 02RD 10RO	1	0	1.20361185074	None	None	475	-175	0
2.7	2015_Jun_02_1105	s	s	18	2	SIC	79	ABS	2	1	02VD 10VO 02VC 02MD 02MO 02MC 02RD 02RO	1	0	2.73006510735	None	None	193	-327	0
2.7	2015_Jun_02_1105	s	s	18	2	SIC	80	RC	1	0	02VD 02VO 02VC 02MD 02MO 09MC 02RD 02RO	1	0	0.678426027298	472.0	112.0	73	50	0
2.7	2015_Jun_02_1105	s	s	18	2	SIC	81	RC	1	1	02VD 02VO 02VC 02MD 09MO 02MC 02RD 02RO	1	0	1.10208797455	-420.0	32.0	-52	145	0
2.7	2015_Jun_02_1105	s	s	18	2	SIC	82	ABS	1	1	02VD 02VO 02VC 02MD 10MO 02MC 02RD 02RO	1	0	1.01668810844	None	None	195	382	0
2.7	2015_Jun_02_1105	s	s	18	2	SIC	83	RC	0	1	02VD 02VO 02VC 02MD 02MO 02MC 02RD 09RO	1	0	1.34981989861	-374.0	313.0	-379	306	1
2.7	2015_Jun_02_1105	s	s	18	2	SIC	84	ABS	2	0	02VD 02VO 10VC 02MD 02MO 02MC 02RD 02RO	1	0	0.726094007492	None	None	-325	115	0
2.7	2015_Jun_02_1105	s	s	18	2	SIC	85	ABS	1	0	02VD 02VO 02VC 02MD 02MO 10MC 02RD 02RO	1	0	0.878293037415	None	None	127	-185	0
2.7	2015_Jun_02_1105	s	s	18	2	SIC	86	RC	1	0	02VD 02VO 02VC 02MD 02MO 09MC 02RD 02RO	1	0	0.689990997314	-437.0	158.0	162	-21	0
2.7	2015_Jun_02_1105	s	s	18	2	SIC	87	RC	2	0	02VD 02VO 09VC 02MD 02MO 02MC 02RD 02RO	1	0	0.726421117783	-462.0	-350.0	67	-83	0
2.7	2015_Jun_02_1105	s	s	18	2	SIC	88	ABS	0	1	02VD 02VO 02VC 02MD 02MO 02MC 02RD 10RO	1	0	0.935458898544	None	None	-153	126	0
2.7	2015_Jun_02_1105	s	s	18	2	SIC	89	ABS	2	1	02VD 10VO 02VC 02MD 02MO 02MC 02RD 02RO	1	0	0.714406967163	None	None	-29	-177	0
2.7	2015_Jun_02_1105	s	s	18	2	SIC	90	ABS	0	2	02VD 02VO 02VC 02MD 02MO 02MC 10RD 02RO	1	0	0.925793886185	None	None	9	-366	0
2.7	2015_Jun_02_1105	s	s	18	2	SIC	91	RC	0	2	02VD 02VO 02VC 02MD 02MO 02MC 09RD 02RO	1	0	0.631968975067	178.0	-170.0	175	-164	1
2.7	2015_Jun_02_1105	s	s	18	2	SIC	92	ABS	2	2	10VD 02VO 02VC 02MD 02MO 02MC 02RD 02RO	1	0	1.26541686058	None	None	298	21	0
2.7	2015_Jun_02_1105	s	s	18	2	SIC	93	RC	2	1	02VD 09VO 02VC 02MD 02MO 02MC 02RD 02RO	1	0	0.693821907043	45.0	-122.0	37	-123	1
2.7	2015_Jun_02_1105	s	s	18	2	SIC	94	RC	2	2	09VD 02VO 02VC 02MD 02MO 02MC 02RD 02RO	1	0	0.537086009979	-47.0	-65.0	-38	-69	1
2.7	2015_Jun_02_1105	s	s	18	2	SIC	95	ABS	1	2	02VD 02VO 02VC 10MD 02MO 02MC 02RD 02RO	1	0	1.11735296249	None	None	232	-338	0
2.7	2015_Jun_02_1105	s	s	18	2	SIC	96	RC	1	2	02VD 02VO 02VC 09MD 02MO 02MC 02RD 02RO	1	0	0.752698898315	-183.0	-262.0	-182	-277	1
2.7	2015_Jun_02_1105	s	s	18	2	SIC	97	ABS	2	2	10VD 02VO 02VC 02MD 02MO 02MC 02RD 02RO	1	0	1.33730506897	None	None	56	-170	0
2.7	2015_Jun_02_1105	s	s	18	2	SIC	98	ABS	1	0	02VD 02VO 02VC 02MD 02MO 10MC 02RD 02RO	1	0	0.470308065414	None	None	13	-57	0
2.7	2015_Jun_02_1105	s	s	18	2	SIC	99	RC	1	0	02VD 02VO 02VC 02MD 02MO 09MC 02RD 02RO	1	0	0.658535003662	-454.0	241.0	-26	-88	0
2.7	2015_Jun_02_1105	s	s	18	2	SIC	100	RC	1	2	02VD 02VO 02VC 09MD 02MO 02MC 02RD 02RO	1	0	0.970701932907	190.0	-42.0	193	-39	1
2.7	2015_Jun_02_1105	s	s	18	2	SIC	101	RC	0	1	02VD 02VO 02VC 02MD 02MO 02MC 02RD 09RO	1	0	0.658502817154	34.0	-188.0	113	-59	0
2.7	2015_Jun_02_1105	s	s	18	2	SIC	102	RC	2	0	02VD 02VO 09VC 02MD 02MO 02MC 02RD 02RO	1	0	0.79424905777	331.0	371.0	73	-225	0
2.7	2015_Jun_02_1105	s	s	18	2	SIC	103	ABS	0	2	02VD 02VO 02VC 02MD 02MO 02MC 10RD 02RO	1	0	0.94762802124	None	None	-153	-118	0
2.7	2015_Jun_02_1105	s	s	18	2	SIC	104	ABS	2	0	02VD 02VO 10VC 02MD 02MO 02MC 02RD 02RO	1	0	0.717274904251	None	None	-99	87	0
2.7	2015_Jun_02_1105	s	s	18	2	SIC	105	ABS	1	1	02VD 02VO 02VC 02MD 10MO 02MC 02RD 02RO	1	0	3.15364909172	None	None	256	227	0
2.7	2015_Jun_02_1105	s	s	18	2	SIC	106	RC	0	2	02VD 02VO 02VC 02MD 02MO 02MC 09RD 02RO	1	0	1.043186903	-10.0	-279.0	-90	26	0
2.7	2015_Jun_02_1105	s	s	18	2	SIC	107	ABS	2	1	02VD 10VO 02VC 02MD 02MO 02MC 02RD 02RO	1	0	2.09478592873	None	None	-285	-323	0
2.7	2015_Jun_02_1105	s	s	18	2	SIC	108	ABS	1	2	02VD 02VO 02VC 10MD 02MO 02MC 02RD 02RO	1	0	1.72961401939	None	None	-309	192	0
2.7	2015_Jun_02_1105	s	s	18	2	SIC	109	RC	2	2	09VD 02VO 02VC 02MD 02MO 02MC 02RD 02RO	1	0	0.572010040283	40.0	-56.0	40	-53	1
2.7	2015_Jun_02_1105	s	s	18	2	SIC	110	RC	1	1	02VD 02VO 02VC 02MD 09MO 02MC 02RD 02RO	1	0	0.991747140884	282.0	383.0	366	-233	0
2.7	2015_Jun_02_1105	s	s	18	2	SIC	111	RC	2	1	02VD 09VO 02VC 02MD 02MO 02MC 02RD 02RO	1	0	1.86283516884	391.0	283.0	-364	346	0
2.7	2015_Jun_02_1105	s	s	18	2	SIC	112	ABS	0	1	02VD 02VO 02VC 02MD 02MO 02MC 02RD 10RO	1	0	1.58832192421	None	None	-90	-352	0
2.7	2015_Jun_02_1105	s	s	18	2	SIC	113	RC	0	2	02VD 02VO 02VC 02MD 02MO 02MC 09RD 02RO	1	0	0.564218997955	-378.0	-324.0	54	31	0
2.7	2015_Jun_02_1105	s	s	18	2	SIC	114	RC	2	1	02VD 09VO 02VC 02MD 02MO 02MC 02RD 02RO	1	0	1.33306908607	-458.0	-350.0	-478	379	0
2.7	2015_Jun_02_1105	s	s	18	2	SIC	115	RC	1	2	02VD 02VO 02VC 09MD 02MO 02MC 02RD 02RO	1	0	1.23158407211	28.0	267.0	29	261	1
2.7	2015_Jun_02_1105	s	s	18	2	SIC	116	RC	2	2	09VD 02VO 02VC 02MD 02MO 02MC 02RD 02RO	1	0	1.22361302376	-355.0	22.0	-365	20	1
2.7	2015_Jun_02_1105	s	s	18	2	SIC	117	RC	1	1	02VD 02VO 02VC 02MD 09MO 02MC 02RD 02RO	1	0	2.47973108292	523.0	121.0	523	125	1
2.7	2015_Jun_02_1105	s	s	18	2	SIC	118	ABS	0	1	02VD 02VO 02VC 02MD 02MO 02MC 02RD 10RO	1	0	2.36123895645	None	None	277	366	0
2.7	2015_Jun_02_1105	s	s	18	2	SIC	119	ABS	1	2	02VD 02VO 02VC 10MD 02MO 02MC 02RD 02RO	1	0	1.54143595695	None	None	-192	85	0
2.7	2015_Jun_02_1105	s	s	18	2	SIC	120	RC	1	0	02VD 02VO 02VC 02MD 02MO 09MC 02RD 02RO	1	0	0.752675056458	-9.0	145.0	-7	145	1
2.7	2015_Jun_02_1105	s	s	18	2	SIC	121	ABS	2	2	10VD 02VO 02VC 02MD 02MO 02MC 02RD 02RO	1	0	1.14814591408	None	None	-160	-194	0
2.7	2015_Jun_02_1105	s	s	18	2	SIC	122	ABS	1	0	02VD 02VO 02VC 02MD 02MO 10MC 02RD 02RO	1	0	0.62904715538	None	None	-85	-259	0
2.7	2015_Jun_02_1105	s	s	18	2	SIC	123	RC	0	1	02VD 02VO 02VC 02MD 02MO 02MC 02RD 09RO	1	0	0.923702955246	266.0	-96.0	272	-97	1
2.7	2015_Jun_02_1105	s	s	18	2	SIC	124	ABS	1	1	02VD 02VO 02VC 02MD 10MO 02MC 02RD 02RO	1	0	2.08272600174	None	None	-533	-89	0
2.7	2015_Jun_02_1105	s	s	18	2	SIC	125	RC	2	0	02VD 02VO 09VC 02MD 02MO 02MC 02RD 02RO	1	0	0.658418893814	-315.0	61.0	-304	61	1
2.7	2015_Jun_02_1105	s	s	18	2	SIC	126	ABS	2	0	02VD 02VO 10VC 02MD 02MO 02MC 02RD 02RO	1	0	0.935940027237	None	None	-312	48	0
2.7	2015_Jun_02_1105	s	s	18	2	SIC	127	ABS	0	2	02VD 02VO 02VC 02MD 02MO 02MC 10RD 02RO	1	0	1.16103005409	None	None	-96	240	0
2.7	2015_Jun_02_1105	s	s	18	2	SIC	128	ABS	2	1	02VD 10VO 02VC 02MD 02MO 02MC 02RD 02RO	1	0	2.1272611618	None	None	390	-120	0
2.7	2015_Jun_02_1105	s	s	18	2	SIC	129	RC	0	1	02VD 02VO 02VC 02MD 02MO 02MC 02RD 09RO	1	0	0.729122877121	-15.0	-62.0	-13	-60	1
2.7	2015_Jun_02_1105	s	s	18	2	SIC	130	RC	2	2	09VD 02VO 02VC 02MD 02MO 02MC 02RD 02RO	1	0	1.11347603798	374.0	332.0	163	-342	0
2.7	2015_Jun_02_1105	s	s	18	2	SIC	131	RC	1	0	02VD 02VO 02VC 02MD 02MO 09MC 02RD 02RO	1	0	0.406750917435	144.0	176.0	-72	-30	0
2.7	2015_Jun_02_1105	s	s	18	2	SIC	132	ABS	0	2	02VD 02VO 02VC 02MD 02MO 02MC 10RD 02RO	1	0	1.44222807884	None	None	208	278	0
2.7	2015_Jun_02_1105	s	s	18	2	SIC	133	RC	2	0	02VD 02VO 09VC 02MD 02MO 02MC 02RD 02RO	1	0	2.33536100388	-351.0	108.0	499	-56	0
2.7	2015_Jun_02_1105	s	s	18	2	SIC	134	ABS	1	1	02VD 02VO 02VC 02MD 10MO 02MC 02RD 02RO	1	0	1.16189098358	None	None	-107	-292	0
2.7	2015_Jun_02_1105	s	s	18	2	SIC	135	RC	2	1	02VD 09VO 02VC 02MD 02MO 02MC 02RD 02RO	1	0	0.505537986755	513.0	273.0	97	33	0
2.7	2015_Jun_02_1105	s	s	18	2	SIC	136	RC	1	2	02VD 02VO 02VC 09MD 02MO 02MC 02RD 02RO	1	0	0.549838066101	41.0	-243.0	97	-64	0
2.7	2015_Jun_02_1105	s	s	18	2	SIC	137	RC	0	2	02VD 02VO 02VC 02MD 02MO 02MC 09RD 02RO	1	0	1.2704000473	472.0	-102.0	473	-100	1
2.7	2015_Jun_02_1105	s	s	18	2	SIC	138	ABS	2	0	02VD 02VO 10VC 02MD 02MO 02MC 02RD 02RO	1	0	1.28858280182	None	None	358	257	0
2.7	2015_Jun_02_1105	s	s	18	2	SIC	139	ABS	1	0	02VD 02VO 02VC 02MD 02MO 10MC 02RD 02RO	1	0	1.17138600349	None	None	-165	14	0
2.7	2015_Jun_02_1105	s	s	18	2	SIC	140	ABS	2	1	02VD 10VO 02VC 02MD 02MO 02MC 02RD 02RO	1	0	1.65903902054	None	None	283	-184	0
2.7	2015_Jun_02_1105	s	s	18	2	SIC	141	ABS	1	2	02VD 02VO 02VC 10MD 02MO 02MC 02RD 02RO	1	0	1.51780605316	None	None	-535	345	0
2.7	2015_Jun_02_1105	s	s	18	2	SIC	142	ABS	2	2	10VD 02VO 02VC 02MD 02MO 02MC 02RD 02RO	1	0	1.447671175	None	None	-525	-190	0
2.7	2015_Jun_02_1105	s	s	18	2	SIC	143	RC	1	1	02VD 02VO 02VC 02MD 09MO 02MC 02RD 02RO	1	0	1.22350716591	67.0	261.0	-423	-212	0
2.7	2015_Jun_02_1105	s	s	18	2	SIC	144	ABS	0	1	02VD 02VO 02VC 02MD 02MO 02MC 02RD 10RO	1	0	0.682052850723	None	None	218	84	0
2.7	2015_Jun_02_1105	s	s	18	2	SIC	145	RC	1	2	02VD 02VO 02VC 09MD 02MO 02MC 02RD 02RO	1	0	1.80713891983	385.0	109.0	154	-291	0
2.7	2015_Jun_02_1105	s	s	18	2	SIC	146	ABS	2	0	02VD 02VO 10VC 02MD 02MO 02MC 02RD 02RO	1	0	1.35299396515	None	None	279	-225	0
2.7	2015_Jun_02_1105	s	s	18	2	SIC	147	RC	0	1	02VD 02VO 02VC 02MD 02MO 02MC 02RD 09RO	1	0	2.00549006462	-337.0	-356.0	-93	42	0
2.7	2015_Jun_02_1105	s	s	18	2	SIC	148	RC	0	2	02VD 02VO 02VC 02MD 02MO 02MC 09RD 02RO	1	0	0.552596092224	-415.0	-339.0	-24	-35	0
2.7	2015_Jun_02_1105	s	s	18	2	SIC	149	ABS	1	0	02VD 02VO 02VC 02MD 02MO 10MC 02RD 02RO	1	0	0.740815162659	None	None	53	-134	0
2.7	2015_Jun_02_1105	s	s	18	2	SIC	150	ABS	0	2	02VD 02VO 02VC 02MD 02MO 02MC 10RD 02RO	1	0	1.19989085197	None	None	402	71	0
2.7	2015_Jun_02_1105	s	s	18	2	SIC	151	RC	2	1	02VD 09VO 02VC 02MD 02MO 02MC 02RD 02RO	1	0	0.893727064133	240.0	-42.0	239	-42	1
2.7	2015_Jun_02_1105	s	s	18	2	SIC	152	RC	1	1	02VD 02VO 02VC 02MD 09MO 02MC 02RD 02RO	1	0	1.37339806557	-122.0	176.0	-121	171	1
2.7	2015_Jun_02_1105	s	s	18	2	SIC	153	ABS	0	1	02VD 02VO 02VC 02MD 02MO 02MC 02RD 10RO	1	0	1.57207107544	None	None	184	-232	0
2.7	2015_Jun_02_1105	s	s	18	2	SIC	154	ABS	2	1	02VD 10VO 02VC 02MD 02MO 02MC 02RD 02RO	1	0	0.891132116318	None	None	-237	-42	0
2.7	2015_Jun_02_1105	s	s	18	2	SIC	155	ABS	1	1	02VD 02VO 02VC 02MD 10MO 02MC 02RD 02RO	1	0	0.702852010727	None	None	164	-79	0
2.7	2015_Jun_02_1105	s	s	18	2	SIC	156	ABS	1	2	02VD 02VO 02VC 10MD 02MO 02MC 02RD 02RO	1	0	1.86617398262	None	None	490	56	0
2.7	2015_Jun_02_1105	s	s	18	2	SIC	157	ABS	2	2	10VD 02VO 02VC 02MD 02MO 02MC 02RD 02RO	1	0	0.794100046158	None	None	48	134	0
2.7	2015_Jun_02_1105	s	s	18	2	SIC	158	RC	2	2	09VD 02VO 02VC 02MD 02MO 02MC 02RD 02RO	1	0	1.7649538517	235.0	-79.0	242	-77	1
2.7	2015_Jun_02_1105	s	s	18	2	SIC	159	RC	2	0	02VD 02VO 09VC 02MD 02MO 02MC 02RD 02RO	1	0	1.11497998238	-534.0	376.0	-238	138	0
2.7	2015_Jun_02_1105	s	s	18	2	SIC	160	RC	1	0	02VD 02VO 02VC 02MD 02MO 09MC 02RD 02RO	1	0	0.559200048447	-110.0	-332.0	-20	204	0
2.7	2015_Jun_02_1105	s	s	18	2	SIC	161	ABS	1	2	02VD 02VO 02VC 10MD 02MO 02MC 02RD 02RO	1	0	0.678624153137	None	None	-92	29	0
2.7	2015_Jun_02_1105	s	s	18	2	SIC	162	RC	2	2	09VD 02VO 02VC 02MD 02MO 02MC 02RD 02RO	1	0	0.752743005753	-160.0	-119.0	-152	-121	1
2.7	2015_Jun_02_1105	s	s	18	2	SIC	163	ABS	0	1	02VD 02VO 02VC 02MD 02MO 02MC 02RD 10RO	1	0	1.51776194572	None	None	60	253	0
2.7	2015_Jun_02_1105	s	s	18	2	SIC	164	RC	0	2	02VD 02VO 02VC 02MD 02MO 02MC 09RD 02RO	1	0	1.36067700386	481.0	149.0	378	-138	0
2.7	2015_Jun_02_1105	s	s	18	2	SIC	165	ABS	1	1	02VD 02VO 02VC 02MD 10MO 02MC 02RD 02RO	1	0	4.05511212349	None	None	-314	-367	0
2.7	2015_Jun_02_1105	s	s	18	2	SIC	166	RC	0	1	02VD 02VO 02VC 02MD 02MO 02MC 02RD 09RO	1	0	1.60684013367	73.0	-341.0	75	-334	1
2.7	2015_Jun_02_1105	s	s	18	2	SIC	167	ABS	2	0	02VD 02VO 10VC 02MD 02MO 02MC 02RD 02RO	1	0	0.62317109108	None	None	-40	-6	0
2.7	2015_Jun_02_1105	s	s	18	2	SIC	168	ABS	2	1	02VD 10VO 02VC 02MD 02MO 02MC 02RD 02RO	1	0	0.670253038406	None	None	-30	-150	0
2.7	2015_Jun_02_1105	s	s	18	2	SIC	169	RC	1	2	02VD 02VO 02VC 09MD 02MO 02MC 02RD 02RO	1	0	0.682129144669	220.0	242.0	93	118	0
2.7	2015_Jun_02_1105	s	s	18	2	SIC	170	RC	2	1	02VD 09VO 02VC 02MD 02MO 02MC 02RD 02RO	1	0	0.893935918808	-234.0	238.0	325	-3	0
2.7	2015_Jun_02_1105	s	s	18	2	SIC	171	RC	2	0	02VD 02VO 09VC 02MD 02MO 02MC 02RD 02RO	1	0	0.735807180405	25.0	113.0	29	107	1
2.7	2015_Jun_02_1105	s	s	18	2	SIC	172	RC	1	0	02VD 02VO 02VC 02MD 02MO 09MC 02RD 02RO	1	0	0.811558961868	214.0	-222.0	110	300	0
2.7	2015_Jun_02_1105	s	s	18	2	SIC	173	ABS	0	2	02VD 02VO 02VC 02MD 02MO 02MC 10RD 02RO	1	0	1.3950958252	None	None	499	-172	0
2.7	2015_Jun_02_1105	s	s	18	2	SIC	174	ABS	1	0	02VD 02VO 02VC 02MD 02MO 10MC 02RD 02RO	1	0	0.611490011215	None	None	8	-105	0
2.7	2015_Jun_02_1105	s	s	18	2	SIC	175	ABS	2	2	10VD 02VO 02VC 02MD 02MO 02MC 02RD 02RO	1	0	2.14839506149	None	None	-479	-265	0
2.7	2015_Jun_02_1105	s	s	18	2	SIC	176	RC	1	1	02VD 02VO 02VC 02MD 09MO 02MC 02RD 02RO	1	0	1.070499897	468.0	32.0	-297	-79	0
2.7	2015_Jun_02_1105	s	s	18	2	SIC	177	RC	1	0	02VD 02VO 02VC 02MD 02MO 09MC 02RD 02RO	1	0	0.411298036575	-467.0	-169.0	22	83	0
2.7	2015_Jun_02_1105	s	s	18	2	SIC	178	ABS	1	0	02VD 02VO 02VC 02MD 02MO 10MC 02RD 02RO	1	0	0.582139968872	None	None	85	33	0
2.7	2015_Jun_02_1105	s	s	18	2	SIC	179	ABS	1	1	02VD 02VO 02VC 02MD 10MO 02MC 02RD 02RO	1	0	0.505489826202	None	None	48	-219	0
2.7	2015_Jun_02_1105	s	s	18	2	SIC	180	RC	1	2	02VD 02VO 02VC 09MD 02MO 02MC 02RD 02RO	1	0	0.693840026855	22.0	-90.0	25	-85	1
2.7	2015_Jun_02_1105	s	s	18	2	SIC	181	ABS	2	2	10VD 02VO 02VC 02MD 02MO 02MC 02RD 02RO	1	0	0.964551925659	None	None	-62	-327	0
2.7	2015_Jun_02_1105	s	s	18	2	SIC	182	ABS	1	2	02VD 02VO 02VC 10MD 02MO 02MC 02RD 02RO	1	0	1.98286700249	None	None	-274	123	0
2.7	2015_Jun_02_1105	s	s	18	2	SIC	183	RC	2	0	02VD 02VO 09VC 02MD 02MO 02MC 02RD 02RO	1	0	1.54113602638	-409.0	-231.0	30	365	0
2.7	2015_Jun_02_1105	s	s	18	2	SIC	184	ABS	2	0	02VD 02VO 10VC 02MD 02MO 02MC 02RD 02RO	1	0	0.740931034088	None	None	-138	-365	0
2.7	2015_Jun_02_1105	s	s	18	2	SIC	185	RC	0	2	02VD 02VO 02VC 02MD 02MO 02MC 09RD 02RO	1	0	0.557850122452	-466.0	366.0	3	-184	0
2.7	2015_Jun_02_1105	s	s	18	2	SIC	186	RC	2	2	09VD 02VO 02VC 02MD 02MO 02MC 02RD 02RO	1	0	0.988022089005	-133.0	-122.0	-128	-126	1
2.7	2015_Jun_02_1105	s	s	18	2	SIC	187	RC	2	1	02VD 09VO 02VC 02MD 02MO 02MC 02RD 02RO	1	0	1.40006399155	380.0	-141.0	-265	-393	0
2.7	2015_Jun_02_1105	s	s	18	2	SIC	188	ABS	0	1	02VD 02VO 02VC 02MD 02MO 02MC 02RD 10RO	1	0	0.630459070206	None	None	-14	-88	0
2.7	2015_Jun_02_1105	s	s	18	2	SIC	189	RC	1	1	02VD 02VO 02VC 02MD 09MO 02MC 02RD 02RO	1	0	0.594424962997	400.0	5.0	-66	41	0
2.7	2015_Jun_02_1105	s	s	18	2	SIC	190	ABS	0	2	02VD 02VO 02VC 02MD 02MO 02MC 10RD 02RO	1	0	2.15074205399	None	None	-301	-390	0
2.7	2015_Jun_02_1105	s	s	18	2	SIC	191	ABS	2	1	02VD 10VO 02VC 02MD 02MO 02MC 02RD 02RO	1	0	2.03059601784	None	None	-514	288	0
2.7	2015_Jun_02_1105	s	s	18	2	SIC	192	RC	0	1	02VD 02VO 02VC 02MD 02MO 02MC 02RD 09RO	1	0	0.835124969482	112.0	86.0	113	76	1
2.7	2015_Jun_02_1105	s	s	18	2	SIC	193	RC	2	1	02VD 09VO 02VC 02MD 02MO 02MC 02RD 02RO	1	0	0.752754926682	-290.0	120.0	-290	121	1
2.7	2015_Jun_02_1105	s	s	18	2	SIC	194	RC	0	1	02VD 02VO 02VC 02MD 02MO 02MC 02RD 09RO	1	0	0.552448987961	-31.0	199.0	-41	200	1
2.7	2015_Jun_02_1105	s	s	18	2	SIC	195	RC	2	0	02VD 02VO 09VC 02MD 02MO 02MC 02RD 02RO	1	0	1.44233584404	-344.0	-183.0	18	-335	0
2.7	2015_Jun_02_1105	s	s	18	2	SIC	196	ABS	0	2	02VD 02VO 02VC 02MD 02MO 02MC 10RD 02RO	1	0	1.55307197571	None	None	-48	272	0
2.7	2015_Jun_02_1105	s	s	18	2	SIC	197	ABS	2	0	02VD 02VO 10VC 02MD 02MO 02MC 02RD 02RO	1	0	0.972476959229	None	None	189	204	0
2.7	2015_Jun_02_1105	s	s	18	2	SIC	198	RC	1	1	02VD 02VO 02VC 02MD 09MO 02MC 02RD 02RO	1	0	0.917476892471	181.0	-44.0	180	-48	1
2.7	2015_Jun_02_1105	s	s	18	2	SIC	199	ABS	1	1	02VD 02VO 02VC 02MD 10MO 02MC 02RD 02RO	1	0	1.94157195091	None	None	-439	385	0
2.7	2015_Jun_02_1105	s	s	18	2	SIC	200	ABS	2	2	10VD 02VO 02VC 02MD 02MO 02MC 02RD 02RO	1	0	0.623252868652	None	None	175	-52	0
2.7	2015_Jun_02_1105	s	s	18	2	SIC	201	ABS	1	2	02VD 02VO 02VC 10MD 02MO 02MC 02RD 02RO	1	0	1.35716295242	None	None	90	-391	0
2.7	2015_Jun_02_1105	s	s	18	2	SIC	202	RC	2	2	09VD 02VO 02VC 02MD 02MO 02MC 02RD 02RO	1	0	0.858618021011	-115.0	-63.0	-112	-55	1
2.7	2015_Jun_02_1105	s	s	18	2	SIC	203	RC	1	0	02VD 02VO 02VC 02MD 02MO 09MC 02RD 02RO	1	0	0.808822154999	-322.0	-406.0	-70	-33	0
2.7	2015_Jun_02_1105	s	s	18	2	SIC	204	ABS	0	1	02VD 02VO 02VC 02MD 02MO 02MC 02RD 10RO	1	0	1.53631401062	None	None	-274	315	0
2.7	2015_Jun_02_1105	s	s	18	2	SIC	205	ABS	2	1	02VD 10VO 02VC 02MD 02MO 02MC 02RD 02RO	1	0	0.929244041443	None	None	-55	349	0
2.7	2015_Jun_02_1105	s	s	18	2	SIC	206	RC	0	2	02VD 02VO 02VC 02MD 02MO 02MC 09RD 02RO	1	0	0.96452498436	350.0	-216.0	-429	330	0
2.7	2015_Jun_02_1105	s	s	18	2	SIC	207	ABS	1	0	02VD 02VO 02VC 02MD 02MO 10MC 02RD 02RO	1	0	0.582925081253	None	None	16	73	0
2.7	2015_Jun_02_1105	s	s	18	2	SIC	208	RC	1	2	02VD 02VO 02VC 09MD 02MO 02MC 02RD 02RO	1	0	0.835427999496	27.0	375.0	-145	20	0
2.7	2015_Jun_02_1105	s	s	18	2	SIC	209	RC	2	1	02VD 09VO 02VC 02MD 02MO 02MC 02RD 02RO	1	0	0.670542001724	76.0	96.0	81	90	1
2.7	2015_Jun_02_1105	s	s	18	2	SIC	210	ABS	1	2	02VD 02VO 02VC 10MD 02MO 02MC 02RD 02RO	1	0	1.53778600693	None	None	170	405	0
2.7	2015_Jun_02_1105	s	s	18	2	SIC	211	ABS	2	1	02VD 10VO 02VC 02MD 02MO 02MC 02RD 02RO	1	0	1.38827991486	None	None	-457	-60	0
2.7	2015_Jun_02_1105	s	s	18	2	SIC	212	ABS	1	1	02VD 02VO 02VC 02MD 10MO 02MC 02RD 02RO	1	0	3.93073916435	None	None	-264	-273	0
2.7	2015_Jun_02_1105	s	s	18	2	SIC	213	RC	2	2	09VD 02VO 02VC 02MD 02MO 02MC 02RD 02RO	1	0	1.9886071682	310.0	-149.0	-467	397	0
2.7	2015_Jun_02_1105	s	s	18	2	SIC	214	ABS	2	2	10VD 02VO 02VC 02MD 02MO 02MC 02RD 02RO	1	0	1.49935483932	None	None	43	-120	0
2.7	2015_Jun_02_1105	s	s	18	2	SIC	215	RC	1	1	02VD 02VO 02VC 02MD 09MO 02MC 02RD 02RO	1	0	1.70378184319	497.0	212.0	500	215	1
2.7	2015_Jun_02_1105	s	s	18	2	SIC	216	RC	0	2	02VD 02VO 02VC 02MD 02MO 02MC 09RD 02RO	1	0	0.642302036285	400.0	104.0	178	-147	0
2.7	2015_Jun_02_1105	s	s	18	2	SIC	217	RC	2	0	02VD 02VO 09VC 02MD 02MO 02MC 02RD 02RO	1	0	1.14106416702	71.0	285.0	-92	-227	0
2.7	2015_Jun_02_1105	s	s	18	2	SIC	218	RC	1	2	02VD 02VO 02VC 09MD 02MO 02MC 02RD 02RO	1	0	1.07050013542	425.0	-344.0	-276	58	0
2.7	2015_Jun_02_1105	s	s	18	2	SIC	219	ABS	1	0	02VD 02VO 02VC 02MD 02MO 10MC 02RD 02RO	1	0	0.823399066925	None	None	-73	-6	0
2.7	2015_Jun_02_1105	s	s	18	2	SIC	220	ABS	0	2	02VD 02VO 02VC 02MD 02MO 02MC 10RD 02RO	1	0	0.629216194153	None	None	-115	-118	0
2.7	2015_Jun_02_1105	s	s	18	2	SIC	221	ABS	0	1	02VD 02VO 02VC 02MD 02MO 02MC 02RD 10RO	1	0	0.523377895355	None	None	209	-58	0
2.7	2015_Jun_02_1105	s	s	18	2	SIC	222	ABS	2	0	02VD 02VO 10VC 02MD 02MO 02MC 02RD 02RO	1	0	0.599717855453	None	None	265	-102	0
2.7	2015_Jun_02_1105	s	s	18	2	SIC	223	RC	0	1	02VD 02VO 02VC 02MD 02MO 02MC 02RD 09RO	1	0	0.646765947342	285.0	-180.0	74	-116	0
2.7	2015_Jun_02_1105	s	s	18	2	SIC	224	RC	1	0	02VD 02VO 02VC 02MD 02MO 09MC 02RD 02RO	1	0	1.24706196785	-245.0	98.0	203	-188	0
2.7	2015_Jun_02_1105	s	s	18	2	SIC	225	RC	1	1	02VD 02VO 02VC 02MD 09MO 02MC 02RD 02RO	1	0	1.80694580078	-482.0	-246.0	-475	-245	1
2.7	2015_Jun_02_1105	s	s	18	2	SIC	226	RC	2	0	02VD 02VO 09VC 02MD 02MO 02MC 02RD 02RO	1	0	0.852725028992	-395.0	-113.0	-394	-112	1
2.7	2015_Jun_02_1105	s	s	18	2	SIC	227	ABS	1	1	02VD 02VO 02VC 02MD 10MO 02MC 02RD 02RO	1	0	1.31266498566	None	None	-447	207	0
2.7	2015_Jun_02_1105	s	s	18	2	SIC	228	RC	2	2	09VD 02VO 02VC 02MD 02MO 02MC 02RD 02RO	1	0	1.90615391731	519.0	-89.0	334	-37	0
2.7	2015_Jun_02_1105	s	s	18	2	SIC	229	RC	0	1	02VD 02VO 02VC 02MD 02MO 02MC 02RD 09RO	1	0	1.27062606812	355.0	-185.0	-115	-178	0
2.7	2015_Jun_02_1105	s	s	18	2	SIC	230	ABS	1	2	02VD 02VO 02VC 10MD 02MO 02MC 02RD 02RO	1	0	0.783203125	None	None	34	341	0
2.7	2015_Jun_02_1105	s	s	18	2	SIC	231	RC	1	2	02VD 02VO 02VC 09MD 02MO 02MC 02RD 02RO	1	0	1.92440915108	-345.0	-270.0	-338	-273	1
2.7	2015_Jun_02_1105	s	s	18	2	SIC	232	RC	2	1	02VD 09VO 02VC 02MD 02MO 02MC 02RD 02RO	1	0	0.947937965393	-498.0	255.0	402	-232	0
2.7	2015_Jun_02_1105	s	s	18	2	SIC	233	RC	0	2	02VD 02VO 02VC 02MD 02MO 02MC 09RD 02RO	1	0	0.823192119598	-155.0	233.0	-167	238	1
2.7	2015_Jun_02_1105	s	s	18	2	SIC	234	ABS	1	0	02VD 02VO 02VC 02MD 02MO 10MC 02RD 02RO	1	0	0.97144985199	None	None	51	-7	0
2.7	2015_Jun_02_1105	s	s	18	2	SIC	235	ABS	2	0	02VD 02VO 10VC 02MD 02MO 02MC 02RD 02RO	1	0	1.11766600609	None	None	80	-290	0
2.7	2015_Jun_02_1105	s	s	18	2	SIC	236	ABS	2	1	02VD 10VO 02VC 02MD 02MO 02MC 02RD 02RO	1	0	2.66571688652	None	None	-51	-271	0
2.7	2015_Jun_02_1105	s	s	18	2	SIC	237	RC	1	0	02VD 02VO 02VC 02MD 02MO 09MC 02RD 02RO	1	0	0.646573781967	-303.0	204.0	-81	-50	0
2.7	2015_Jun_02_1105	s	s	18	2	SIC	238	ABS	0	1	02VD 02VO 02VC 02MD 02MO 02MC 02RD 10RO	1	0	0.64108300209	None	None	25	-141	0
2.7	2015_Jun_02_1105	s	s	18	2	SIC	239	ABS	2	2	10VD 02VO 02VC 02MD 02MO 02MC 02RD 02RO	1	0	1.44402289391	None	None	-251	-92	0
2.7	2015_Jun_02_1105	s	s	18	2	SIC	240	ABS	0	2	02VD 02VO 02VC 02MD 02MO 02MC 10RD 02RO	1	0	1.18490695953	None	None	29	257	0
2.7	2015_Jun_02_1105	s	s	18	2	SIC	241	ABS	1	0	02VD 02VO 02VC 02MD 02MO 10MC 02RD 02RO	1	0	0.823357105255	None	None	-214	-99	0
2.7	2015_Jun_02_1105	s	s	18	2	SIC	242	RC	0	2	02VD 02VO 02VC 02MD 02MO 02MC 09RD 02RO	1	0	1.43902683258	-107.0	-367.0	-105	-368	1
2.7	2015_Jun_02_1105	s	s	18	2	SIC	243	ABS	0	1	02VD 02VO 02VC 02MD 02MO 02MC 02RD 10RO	1	0	4.01305699348	None	None	509	404	0
2.7	2015_Jun_02_1105	s	s	18	2	SIC	244	ABS	2	2	10VD 02VO 02VC 02MD 02MO 02MC 02RD 02RO	1	0	1.61900019646	None	None	-28	-332	0
2.7	2015_Jun_02_1105	s	s	18	2	SIC	245	RC	1	0	02VD 02VO 02VC 02MD 02MO 09MC 02RD 02RO	1	0	1.24708294868	-31.0	318.0	-359	117	0
2.7	2015_Jun_02_1105	s	s	18	2	SIC	246	RC	2	0	02VD 02VO 09VC 02MD 02MO 02MC 02RD 02RO	1	0	0.89081788063	-210.0	198.0	-210	193	1
2.7	2015_Jun_02_1105	s	s	18	2	SIC	247	RC	2	1	02VD 09VO 02VC 02MD 02MO 02MC 02RD 02RO	1	0	0.903027057648	494.0	-224.0	100	-77	0
2.7	2015_Jun_02_1105	s	s	18	2	SIC	248	ABS	1	1	02VD 02VO 02VC 02MD 10MO 02MC 02RD 02RO	1	0	1.95055603981	None	None	94	353	0
2.7	2015_Jun_02_1105	s	s	18	2	SIC	249	RC	1	2	02VD 02VO 02VC 09MD 02MO 02MC 02RD 02RO	1	0	0.902762889862	30.0	350.0	145	-53	0
2.7	2015_Jun_02_1105	s	s	18	2	SIC	250	ABS	1	2	02VD 02VO 02VC 10MD 02MO 02MC 02RD 02RO	1	0	1.15292978287	None	None	-521	212	0
2.7	2015_Jun_02_1105	s	s	18	2	SIC	251	ABS	2	1	02VD 10VO 02VC 02MD 02MO 02MC 02RD 02RO	1	0	1.1011121273	None	None	182	-146	0
2.7	2015_Jun_02_1105	s	s	18	2	SIC	252	ABS	2	0	02VD 02VO 10VC 02MD 02MO 02MC 02RD 02RO	1	0	0.832401990891	None	None	-58	58	0
2.7	2015_Jun_02_1105	s	s	18	2	SIC	253	RC	2	2	09VD 02VO 02VC 02MD 02MO 02MC 02RD 02RO	1	0	0.646819114685	89.0	188.0	87	182	1
2.7	2015_Jun_02_1105	s	s	18	2	SIC	254	RC	1	1	02VD 02VO 02VC 02MD 09MO 02MC 02RD 02RO	1	0	0.491122961044	-79.0	35.0	-80	32	1
2.7	2015_Jun_02_1105	s	s	18	2	SIC	255	ABS	0	2	02VD 02VO 02VC 02MD 02MO 02MC 10RD 02RO	1	0	0.535252094269	None	None	-51	128	0
2.7	2015_Jun_02_1105	s	s	18	2	SIC	256	RC	0	1	02VD 02VO 02VC 02MD 02MO 02MC 02RD 09RO	1	0	0.512140989304	-140.0	-221.0	150	71	0
2.7	2015_Jun_02_1105	s	s	18	2	SIC	257	ABS	0	1	02VD 02VO 02VC 02MD 02MO 02MC 02RD 10RO	1	0	2.04369282722	None	None	442	77	0
2.7	2015_Jun_02_1105	s	s	18	2	SIC	258	RC	2	2	09VD 02VO 02VC 02MD 02MO 02MC 02RD 02RO	1	0	1.35947704315	392.0	273.0	394	280	1
2.7	2015_Jun_02_1105	s	s	18	2	SIC	259	RC	1	0	02VD 02VO 02VC 02MD 02MO 09MC 02RD 02RO	1	0	0.75262093544	122.0	-61.0	-98	-58	0
2.7	2015_Jun_02_1105	s	s	18	2	SIC	260	RC	2	1	02VD 09VO 02VC 02MD 02MO 02MC 02RD 02RO	1	0	0.560786962509	429.0	12.0	-49	-21	0
2.7	2015_Jun_02_1105	s	s	18	2	SIC	261	ABS	0	2	02VD 02VO 02VC 02MD 02MO 02MC 10RD 02RO	1	0	1.6948530674	None	None	439	179	0
2.7	2015_Jun_02_1105	s	s	18	2	SIC	262	ABS	1	1	02VD 02VO 02VC 02MD 10MO 02MC 02RD 02RO	1	0	3.09508490562	None	None	531	38	0
2.7	2015_Jun_02_1105	s	s	18	2	SIC	263	RC	0	1	02VD 02VO 02VC 02MD 02MO 02MC 02RD 09RO	1	0	0.594748973846	523.0	261.0	101	-74	0
2.7	2015_Jun_02_1105	s	s	18	2	SIC	264	RC	2	0	02VD 02VO 09VC 02MD 02MO 02MC 02RD 02RO	1	0	0.811439037323	-115.0	-377.0	-122	-377	1
2.7	2015_Jun_02_1105	s	s	18	2	SIC	265	RC	1	2	02VD 02VO 02VC 09MD 02MO 02MC 02RD 02RO	1	0	0.949548959732	-152.0	-18.0	-149	-26	1
2.7	2015_Jun_02_1105	s	s	18	2	SIC	266	ABS	2	2	10VD 02VO 02VC 02MD 02MO 02MC 02RD 02RO	1	0	0.724597930908	None	None	-201	73	0
2.7	2015_Jun_02_1105	s	s	18	2	SIC	267	ABS	1	2	02VD 02VO 02VC 10MD 02MO 02MC 02RD 02RO	1	0	0.729110002518	None	None	220	83	0
2.7	2015_Jun_02_1105	s	s	18	2	SIC	268	ABS	1	0	02VD 02VO 02VC 02MD 02MO 10MC 02RD 02RO	1	0	0.773138999939	None	None	-62	131	0
2.7	2015_Jun_02_1105	s	s	18	2	SIC	269	ABS	2	1	02VD 10VO 02VC 02MD 02MO 02MC 02RD 02RO	1	0	0.985017061234	None	None	-46	309	0
2.7	2015_Jun_02_1105	s	s	18	2	SIC	270	RC	0	2	02VD 02VO 02VC 02MD 02MO 02MC 09RD 02RO	1	0	1.27413988113	-324.0	362.0	-324	359	1
2.7	2015_Jun_02_1105	s	s	18	2	SIC	271	RC	1	1	02VD 02VO 02VC 02MD 09MO 02MC 02RD 02RO	1	0	0.570302963257	180.0	204.0	73	59	0
2.7	2015_Jun_02_1105	s	s	18	2	SIC	272	ABS	2	0	02VD 02VO 10VC 02MD 02MO 02MC 02RD 02RO	1	0	0.682002067566	None	None	92	22	0
2.7	2015_Jun_02_1105	s	s	18	2	SIC	273	ABS	1	0	02VD 02VO 02VC 02MD 02MO 10MC 02RD 02RO	1	0	0.593883037567	None	None	-59	-142	0
2.7	2015_Jun_02_1105	s	s	18	2	SIC	274	RC	2	1	02VD 09VO 02VC 02MD 02MO 02MC 02RD 02RO	1	0	0.64049577713	-43.0	-102.0	-44	-94	1
2.7	2015_Jun_02_1105	s	s	18	2	SIC	275	ABS	0	2	02VD 02VO 02VC 02MD 02MO 02MC 10RD 02RO	1	0	0.529110193253	None	None	85	-12	0
2.7	2015_Jun_02_1105	s	s	18	2	SIC	276	RC	1	0	02VD 02VO 02VC 02MD 02MO 09MC 02RD 02RO	1	0	0.793948888779	-220.0	74.0	71	78	0
2.7	2015_Jun_02_1105	s	s	18	2	SIC	277	RC	2	0	02VD 02VO 09VC 02MD 02MO 02MC 02RD 02RO	1	0	0.618335008621	388.0	323.0	152	192	0
2.7	2015_Jun_02_1105	s	s	18	2	SIC	278	RC	0	1	02VD 02VO 02VC 02MD 02MO 02MC 02RD 09RO	1	0	1.38364887238	-96.0	33.0	-100	29	1
2.7	2015_Jun_02_1105	s	s	18	2	SIC	279	RC	1	1	02VD 02VO 02VC 02MD 09MO 02MC 02RD 02RO	1	0	0.688187122345	-267.0	123.0	-265	127	1
2.7	2015_Jun_02_1105	s	s	18	2	SIC	280	RC	2	2	09VD 02VO 02VC 02MD 02MO 02MC 02RD 02RO	1	0	0.603568077087	32.0	-284.0	-154	287	0
2.7	2015_Jun_02_1105	s	s	18	2	SIC	281	ABS	2	2	10VD 02VO 02VC 02MD 02MO 02MC 02RD 02RO	1	0	1.33841490746	None	None	327	391	0
2.7	2015_Jun_02_1105	s	s	18	2	SIC	282	ABS	2	1	02VD 10VO 02VC 02MD 02MO 02MC 02RD 02RO	1	0	0.796307086945	None	None	-48	249	0
2.7	2015_Jun_02_1105	s	s	18	2	SIC	283	ABS	2	0	02VD 02VO 10VC 02MD 02MO 02MC 02RD 02RO	1	0	0.764494895935	None	None	26	-43	0
2.7	2015_Jun_02_1105	s	s	18	2	SIC	284	RC	1	2	02VD 02VO 02VC 09MD 02MO 02MC 02RD 02RO	1	0	1.08975291252	232.0	-280.0	40	368	0
2.7	2015_Jun_02_1105	s	s	18	2	SIC	285	ABS	1	2	02VD 02VO 02VC 10MD 02MO 02MC 02RD 02RO	1	0	1.39998483658	None	None	396	-78	0
2.7	2015_Jun_02_1105	s	s	18	2	SIC	286	ABS	0	1	02VD 02VO 02VC 02MD 02MO 02MC 02RD 10RO	1	0	2.62198209763	None	None	503	112	0
2.7	2015_Jun_02_1105	s	s	18	2	SIC	287	RC	0	2	02VD 02VO 02VC 02MD 02MO 02MC 09RD 02RO	1	0	1.31769800186	-218.0	-86.0	-222	-97	1
2.7	2015_Jun_02_1105	s	s	18	2	SIC	288	ABS	1	1	02VD 02VO 02VC 02MD 10MO 02MC 02RD 02RO	1	0	2.04171013832	None	None	-295	-265	0
2.7	2015_Jun_02_1105	s	s	18	2	SIC	289	RC	1	1	02VD 02VO 02VC 02MD 09MO 02MC 02RD 02RO	1	0	2.44778800011	494.0	-409.0	-472	324	0
2.7	2015_Jun_02_1105	s	s	18	2	SIC	290	RC	2	2	09VD 02VO 02VC 02MD 02MO 02MC 02RD 02RO	1	0	2.55957603455	451.0	-364.0	456	-363	1
2.7	2015_Jun_02_1105	s	s	18	2	SIC	291	ABS	0	2	02VD 02VO 02VC 02MD 02MO 02MC 10RD 02RO	1	0	1.80761885643	None	None	-216	-172	0
2.7	2015_Jun_02_1105	s	s	18	2	SIC	292	RC	1	2	02VD 02VO 02VC 09MD 02MO 02MC 02RD 02RO	1	0	1.12510895729	-322.0	-397.0	-459	-1	0
2.7	2015_Jun_02_1105	s	s	18	2	SIC	293	ABS	1	0	02VD 02VO 02VC 02MD 02MO 10MC 02RD 02RO	1	0	1.01764512062	None	None	-452	217	0
2.7	2015_Jun_02_1105	s	s	18	2	SIC	294	ABS	2	1	02VD 10VO 02VC 02MD 02MO 02MC 02RD 02RO	1	0	1.32442498207	None	None	45	-348	0
2.7	2015_Jun_02_1105	s	s	18	2	SIC	295	RC	1	0	02VD 02VO 02VC 02MD 02MO 09MC 02RD 02RO	1	0	0.646798849106	212.0	403.0	-175	-26	0
2.7	2015_Jun_02_1105	s	s	18	2	SIC	296	ABS	1	1	02VD 02VO 02VC 02MD 10MO 02MC 02RD 02RO	1	0	0.670314073563	None	None	9	-6	0
2.7	2015_Jun_02_1105	s	s	18	2	SIC	297	ABS	2	0	02VD 02VO 10VC 02MD 02MO 02MC 02RD 02RO	1	0	0.670131206512	None	None	228	66	0
2.7	2015_Jun_02_1105	s	s	18	2	SIC	298	ABS	2	2	10VD 02VO 02VC 02MD 02MO 02MC 02RD 02RO	1	0	0.485466957092	None	None	247	64	0
2.7	2015_Jun_02_1105	s	s	18	2	SIC	299	RC	2	0	02VD 02VO 09VC 02MD 02MO 02MC 02RD 02RO	1	0	1.11737918854	-358.0	22.0	-181	264	0
2.7	2015_Jun_02_1105	s	s	18	2	SIC	300	ABS	1	2	02VD 02VO 02VC 10MD 02MO 02MC 02RD 02RO	1	0	1.32600307465	None	None	-475	15	0
2.7	2015_Jun_02_1105	s	s	18	2	SIC	301	ABS	0	1	02VD 02VO 02VC 02MD 02MO 02MC 02RD 10RO	1	0	1.07981014252	None	None	-192	306	0
2.7	2015_Jun_02_1105	s	s	18	2	SIC	302	RC	2	1	02VD 09VO 02VC 02MD 02MO 02MC 02RD 02RO	1	0	0.517404079437	-292.0	185.0	61	-137	0
2.7	2015_Jun_02_1105	s	s	18	2	SIC	303	RC	0	1	02VD 02VO 02VC 02MD 02MO 02MC 02RD 09RO	1	0	0.76445889473	418.0	358.0	-38	-84	0
2.7	2015_Jun_02_1105	s	s	18	2	SIC	304	RC	0	2	02VD 02VO 02VC 02MD 02MO 02MC 09RD 02RO	1	0	0.772783994675	-427.0	42.0	-21	104	0
2.7	2015_Jun_02_1105	s	s	18	2	SIC	305	RC	2	1	02VD 09VO 02VC 02MD 02MO 02MC 02RD 02RO	1	0	1.10065603256	218.0	334.0	-71	349	0
2.7	2015_Jun_02_1105	s	s	18	2	SIC	306	ABS	1	1	02VD 02VO 02VC 02MD 10MO 02MC 02RD 02RO	1	0	2.06427717209	None	None	-537	238	0
2.7	2015_Jun_02_1105	s	s	18	2	SIC	307	ABS	0	2	02VD 02VO 02VC 02MD 02MO 02MC 10RD 02RO	1	0	1.04743504524	None	None	-196	186	0
2.7	2015_Jun_02_1105	s	s	18	2	SIC	308	ABS	1	0	02VD 02VO 02VC 02MD 02MO 10MC 02RD 02RO	1	0	0.489259004593	None	None	139	130	0
2.7	2015_Jun_02_1105	s	s	18	2	SIC	309	RC	1	1	02VD 02VO 02VC 02MD 09MO 02MC 02RD 02RO	1	0	0.702265024185	-26.0	-212.0	-28	-215	1
2.7	2015_Jun_02_1105	s	s	18	2	SIC	310	RC	2	2	09VD 02VO 02VC 02MD 02MO 02MC 02RD 02RO	1	0	0.573596954346	326.0	334.0	86	-145	0
2.7	2015_Jun_02_1105	s	s	18	2	SIC	311	RC	2	0	02VD 02VO 09VC 02MD 02MO 02MC 02RD 02RO	1	0	1.39433288574	-480.0	197.0	-404	-52	0
2.7	2015_Jun_02_1105	s	s	18	2	SIC	312	RC	1	2	02VD 02VO 02VC 09MD 02MO 02MC 02RD 02RO	1	0	0.988043069839	335.0	141.0	336	141	1
2.7	2015_Jun_02_1105	s	s	18	2	SIC	313	RC	0	1	02VD 02VO 02VC 02MD 02MO 02MC 02RD 09RO	1	0	0.735971927643	-60.0	4.0	-59	2	1
2.7	2015_Jun_02_1105	s	s	18	2	SIC	314	ABS	2	2	10VD 02VO 02VC 02MD 02MO 02MC 02RD 02RO	1	0	0.867001056671	None	None	-438	-25	0
2.7	2015_Jun_02_1105	s	s	18	2	SIC	315	ABS	0	1	02VD 02VO 02VC 02MD 02MO 02MC 02RD 10RO	1	0	1.24366903305	None	None	-436	378	0
2.7	2015_Jun_02_1105	s	s	18	2	SIC	316	ABS	2	1	02VD 10VO 02VC 02MD 02MO 02MC 02RD 02RO	1	0	0.617807865143	None	None	159	134	0
2.7	2015_Jun_02_1105	s	s	18	2	SIC	317	ABS	1	2	02VD 02VO 02VC 10MD 02MO 02MC 02RD 02RO	1	0	0.958786010742	None	None	8	-98	0
2.7	2015_Jun_02_1105	s	s	18	2	SIC	318	ABS	2	0	02VD 02VO 10VC 02MD 02MO 02MC 02RD 02RO	1	0	0.538539171219	None	None	68	75	0
2.7	2015_Jun_02_1105	s	s	18	2	SIC	319	RC	0	2	02VD 02VO 02VC 02MD 02MO 02MC 09RD 02RO	1	0	0.724190950394	-526.0	-174.0	-139	20	0
2.7	2015_Jun_02_1105	s	s	18	2	SIC	320	RC	1	0	02VD 02VO 02VC 02MD 02MO 09MC 02RD 02RO	1	0	0.517256975174	-523.0	376.0	73	166	0
2.7	2015_Jun_02_1105	s	s	18	2	SIC	321	RC	0	2	02VD 02VO 02VC 02MD 02MO 02MC 09RD 02RO	1	0	1.46598505974	254.0	403.0	256	405	1
2.7	2015_Jun_02_1105	s	s	18	2	SIC	322	ABS	2	0	02VD 02VO 10VC 02MD 02MO 02MC 02RD 02RO	1	0	0.679271936417	None	None	88	290	0
2.7	2015_Jun_02_1105	s	s	18	2	SIC	323	ABS	2	1	02VD 10VO 02VC 02MD 02MO 02MC 02RD 02RO	1	0	0.607635974884	None	None	281	-14	0
2.7	2015_Jun_02_1105	s	s	18	2	SIC	324	RC	0	1	02VD 02VO 02VC 02MD 02MO 02MC 02RD 09RO	1	0	0.481985092163	-222.0	350.0	-180	134	0
2.7	2015_Jun_02_1105	s	s	18	2	SIC	325	RC	2	0	02VD 02VO 09VC 02MD 02MO 02MC 02RD 02RO	1	0	2.07717204094	464.0	-171.0	454	-163	1
2.7	2015_Jun_02_1105	s	s	18	2	SIC	326	ABS	2	2	10VD 02VO 02VC 02MD 02MO 02MC 02RD 02RO	1	0	1.63558197021	None	None	377	328	0
2.7	2015_Jun_02_1105	s	s	18	2	SIC	327	ABS	0	1	02VD 02VO 02VC 02MD 02MO 02MC 02RD 10RO	1	0	2.23563885689	None	None	443	310	0
2.7	2015_Jun_02_1105	s	s	18	2	SIC	328	RC	1	0	02VD 02VO 02VC 02MD 02MO 09MC 02RD 02RO	1	0	0.78800201416	499.0	1.0	-300	83	0
2.7	2015_Jun_02_1105	s	s	18	2	SIC	329	ABS	1	2	02VD 02VO 02VC 10MD 02MO 02MC 02RD 02RO	1	0	1.23053908348	None	None	46	-359	0
2.7	2015_Jun_02_1105	s	s	18	2	SIC	330	RC	1	2	02VD 02VO 02VC 09MD 02MO 02MC 02RD 02RO	1	0	0.726225852966	-30.0	-306.0	-288	96	0
2.7	2015_Jun_02_1105	s	s	18	2	SIC	331	RC	2	1	02VD 09VO 02VC 02MD 02MO 02MC 02RD 02RO	1	0	0.655138969421	-228.0	-70.0	-228	-73	1
2.7	2015_Jun_02_1105	s	s	18	2	SIC	332	ABS	0	2	02VD 02VO 02VC 02MD 02MO 02MC 10RD 02RO	1	0	0.54770898819	None	None	-189	-129	0
2.7	2015_Jun_02_1105	s	s	18	2	SIC	333	RC	1	1	02VD 02VO 02VC 02MD 09MO 02MC 02RD 02RO	1	0	1.01160311699	-474.0	328.0	-282	40	0
2.7	2015_Jun_02_1105	s	s	18	2	SIC	334	ABS	1	0	02VD 02VO 02VC 02MD 02MO 10MC 02RD 02RO	1	0	0.570671081543	None	None	-21	-75	0
2.7	2015_Jun_02_1105	s	s	18	2	SIC	335	ABS	1	1	02VD 02VO 02VC 02MD 10MO 02MC 02RD 02RO	1	0	1.79678606987	None	None	171	2	0
2.7	2015_Jun_02_1105	s	s	18	2	SIC	336	RC	2	2	09VD 02VO 02VC 02MD 02MO 02MC 02RD 02RO	1	0	0.537337064743	134.0	-27.0	140	-22	1
2.7	2015_Jun_02_1105	s	s	18	2	SIC	337	ABS	1	1	02VD 02VO 02VC 02MD 10MO 02MC 02RD 02RO	1	0	1.61942386627	None	None	116	-245	0
2.7	2015_Jun_02_1105	s	s	18	2	SIC	338	RC	1	1	02VD 02VO 02VC 02MD 09MO 02MC 02RD 02RO	1	0	1.82383179665	192.0	272.0	185	272	1
2.7	2015_Jun_02_1105	s	s	18	2	SIC	339	RC	2	0	02VD 02VO 09VC 02MD 02MO 02MC 02RD 02RO	1	0	0.505527019501	425.0	209.0	-4	-67	0
2.7	2015_Jun_02_1105	s	s	18	2	SIC	340	ABS	2	2	10VD 02VO 02VC 02MD 02MO 02MC 02RD 02RO	1	0	0.535070896149	None	None	34	33	0
2.7	2015_Jun_02_1105	s	s	18	2	SIC	341	ABS	1	2	02VD 02VO 02VC 10MD 02MO 02MC 02RD 02RO	1	0	1.30633211136	None	None	242	-35	0
2.7	2015_Jun_02_1105	s	s	18	2	SIC	342	ABS	2	0	02VD 02VO 10VC 02MD 02MO 02MC 02RD 02RO	1	0	1.4190530777	None	None	-424	410	0
2.7	2015_Jun_02_1105	s	s	18	2	SIC	343	ABS	1	0	02VD 02VO 02VC 02MD 02MO 10MC 02RD 02RO	1	0	1.07047390938	None	None	-7	195	0
2.7	2015_Jun_02_1105	s	s	18	2	SIC	344	RC	1	0	02VD 02VO 02VC 02MD 02MO 09MC 02RD 02RO	1	0	0.960722923279	-113.0	58.0	-113	55	1
2.7	2015_Jun_02_1105	s	s	18	2	SIC	345	RC	0	1	02VD 02VO 02VC 02MD 02MO 02MC 02RD 09RO	1	0	0.83144903183	-352.0	-91.0	116	13	0
2.7	2015_Jun_02_1105	s	s	18	2	SIC	346	RC	0	2	02VD 02VO 02VC 02MD 02MO 02MC 09RD 02RO	1	0	0.529303073883	-301.0	264.0	34	125	0
2.7	2015_Jun_02_1105	s	s	18	2	SIC	347	ABS	0	2	02VD 02VO 02VC 02MD 02MO 02MC 10RD 02RO	1	0	1.39746499062	None	None	-399	-366	0
2.7	2015_Jun_02_1105	s	s	18	2	SIC	348	ABS	2	1	02VD 10VO 02VC 02MD 02MO 02MC 02RD 02RO	1	0	1.37076187134	None	None	-93	-362	0
2.7	2015_Jun_02_1105	s	s	18	2	SIC	349	ABS	0	1	02VD 02VO 02VC 02MD 02MO 02MC 02RD 10RO	1	0	0.7055580616	None	None	-521	-95	0
2.7	2015_Jun_02_1105	s	s	18	2	SIC	350	RC	1	2	02VD 02VO 02VC 09MD 02MO 02MC 02RD 02RO	1	0	0.564341068268	-7.0	-355.0	-22	136	0
2.7	2015_Jun_02_1105	s	s	18	2	SIC	351	RC	2	1	02VD 09VO 02VC 02MD 02MO 02MC 02RD 02RO	1	0	0.567942142487	130.0	114.0	122	112	1
2.7	2015_Jun_02_1105	s	s	18	2	SIC	352	RC	2	2	09VD 02VO 02VC 02MD 02MO 02MC 02RD 02RO	1	0	0.623072862625	-168.0	11.0	-164	8	1
2.7	2015_Jun_02_1105	s	s	18	2	SIC	353	ABS	2	2	10VD 02VO 02VC 02MD 02MO 02MC 02RD 02RO	1	0	1.41855406761	None	None	-181	390	0
2.7	2015_Jun_02_1105	s	s	18	2	SIC	354	ABS	0	2	02VD 02VO 02VC 02MD 02MO 02MC 10RD 02RO	1	0	0.902230024338	None	None	8	-67	0
2.7	2015_Jun_02_1105	s	s	18	2	SIC	355	ABS	1	0	02VD 02VO 02VC 02MD 02MO 10MC 02RD 02RO	1	0	0.855242013931	None	None	140	-339	0
2.7	2015_Jun_02_1105	s	s	18	2	SIC	356	RC	2	1	02VD 09VO 02VC 02MD 02MO 02MC 02RD 02RO	1	0	0.823333024979	-83.0	-12.0	-83	-20	1
2.7	2015_Jun_02_1105	s	s	18	2	SIC	357	RC	1	2	02VD 02VO 02VC 09MD 02MO 02MC 02RD 02RO	1	0	0.535011053085	108.0	159.0	22	-10	0
2.7	2015_Jun_02_1105	s	s	18	2	SIC	358	RC	1	1	02VD 02VO 02VC 02MD 09MO 02MC 02RD 02RO	1	0	0.829352855682	-308.0	338.0	-141	12	0
2.7	2015_Jun_02_1105	s	s	18	2	SIC	359	RC	0	1	02VD 02VO 02VC 02MD 02MO 02MC 02RD 09RO	1	0	0.375951051712	-487.0	390.0	149	217	0
2.7	2015_Jun_02_1105	s	s	18	2	SIC	360	ABS	2	0	02VD 02VO 10VC 02MD 02MO 02MC 02RD 02RO	1	0	0.855786085129	None	None	106	116	0
2.7	2015_Jun_02_1105	s	s	18	2	SIC	361	ABS	2	1	02VD 10VO 02VC 02MD 02MO 02MC 02RD 02RO	1	0	1.22340512276	None	None	-168	-184	0
2.7	2015_Jun_02_1105	s	s	18	2	SIC	362	ABS	0	1	02VD 02VO 02VC 02MD 02MO 02MC 02RD 10RO	1	0	1.77675008774	None	None	542	308	0
2.7	2015_Jun_02_1105	s	s	18	2	SIC	363	ABS	1	2	02VD 02VO 02VC 10MD 02MO 02MC 02RD 02RO	1	0	1.59430503845	None	None	307	210	0
2.7	2015_Jun_02_1105	s	s	18	2	SIC	364	RC	2	2	09VD 02VO 02VC 02MD 02MO 02MC 02RD 02RO	1	0	0.808356046677	-424.0	-162.0	-90	81	0
2.7	2015_Jun_02_1105	s	s	18	2	SIC	365	RC	2	0	02VD 02VO 09VC 02MD 02MO 02MC 02RD 02RO	1	0	0.791586875916	-86.0	-87.0	-94	-85	1
2.7	2015_Jun_02_1105	s	s	18	2	SIC	366	ABS	1	1	02VD 02VO 02VC 02MD 10MO 02MC 02RD 02RO	1	0	0.835151910782	None	None	-161	373	0
2.7	2015_Jun_02_1105	s	s	18	2	SIC	367	RC	1	0	02VD 02VO 02VC 02MD 02MO 09MC 02RD 02RO	1	0	0.442281007767	428.0	-283.0	146	-390	0
2.7	2015_Jun_02_1105	s	s	18	2	SIC	368	RC	0	2	02VD 02VO 02VC 02MD 02MO 02MC 09RD 02RO	1	0	0.611531972885	519.0	143.0	-98	218	0
2.7	2015_Jun_02_1105	s	s	18	2	SIC	369	ABS	2	0	02VD 02VO 10VC 02MD 02MO 02MC 02RD 02RO	1	0	1.38819813728	None	None	57	-64	0
2.7	2015_Jun_02_1105	s	s	18	2	SIC	370	RC	2	0	02VD 02VO 09VC 02MD 02MO 02MC 02RD 02RO	1	0	0.56186580658	-113.0	-70.0	408	-132	0
2.7	2015_Jun_02_1105	s	s	18	2	SIC	371	RC	1	1	02VD 02VO 02VC 02MD 09MO 02MC 02RD 02RO	1	0	0.611464977264	-78.0	46.0	-81	43	1
2.7	2015_Jun_02_1105	s	s	18	2	SIC	372	ABS	2	2	10VD 02VO 02VC 02MD 02MO 02MC 02RD 02RO	1	0	1.70649194717	None	None	510	162	0
2.7	2015_Jun_02_1105	s	s	18	2	SIC	373	ABS	2	1	02VD 10VO 02VC 02MD 02MO 02MC 02RD 02RO	1	0	1.73869299889	None	None	441	-400	0
2.7	2015_Jun_02_1105	s	s	18	2	SIC	374	RC	0	1	02VD 02VO 02VC 02MD 02MO 02MC 02RD 09RO	1	0	0.443771123886	-164.0	232.0	-171	229	1
2.7	2015_Jun_02_1105	s	s	18	2	SIC	375	ABS	1	2	02VD 02VO 02VC 10MD 02MO 02MC 02RD 02RO	1	0	1.17138814926	None	None	-111	330	0
2.7	2015_Jun_02_1105	s	s	18	2	SIC	376	RC	0	2	02VD 02VO 02VC 02MD 02MO 02MC 09RD 02RO	1	0	1.57299900055	-484.0	-107.0	-477	-103	1
2.7	2015_Jun_02_1105	s	s	18	2	SIC	377	RC	2	2	09VD 02VO 02VC 02MD 02MO 02MC 02RD 02RO	1	0	1.02334904671	-275.0	-377.0	429	-361	0
2.7	2015_Jun_02_1105	s	s	18	2	SIC	378	ABS	0	1	02VD 02VO 02VC 02MD 02MO 02MC 02RD 10RO	1	0	1.64449906349	None	None	69	-222	0
2.7	2015_Jun_02_1105	s	s	18	2	SIC	379	ABS	0	2	02VD 02VO 02VC 02MD 02MO 02MC 10RD 02RO	1	0	1.10579204559	None	None	55	-301	0
2.7	2015_Jun_02_1105	s	s	18	2	SIC	380	ABS	1	1	02VD 02VO 02VC 02MD 10MO 02MC 02RD 02RO	1	0	0.595161914825	None	None	62	-144	0
2.7	2015_Jun_02_1105	s	s	18	2	SIC	381	RC	2	1	02VD 09VO 02VC 02MD 02MO 02MC 02RD 02RO	1	0	0.599572896957	458.0	379.0	209	-307	0
2.7	2015_Jun_02_1105	s	s	18	2	SIC	382	ABS	1	0	02VD 02VO 02VC 02MD 02MO 10MC 02RD 02RO	1	0	0.517131090164	None	None	221	-47	0
2.7	2015_Jun_02_1105	s	s	18	2	SIC	383	RC	1	0	02VD 02VO 02VC 02MD 02MO 09MC 02RD 02RO	1	0	0.564841985703	-152.0	-152.0	110	153	0
2.7	2015_Jun_02_1105	s	s	18	2	SIC	384	RC	1	2	02VD 02VO 02VC 09MD 02MO 02MC 02RD 02RO	1	0	1.59691286087	-278.0	322.0	-290	323	1
2.7	2015_Jun_02_1105	s	s	18	2	SIC	385	RC	0	2	02VD 02VO 02VC 02MD 02MO 02MC 09RD 02RO	1	0	1.02338910103	-20.0	-81.0	-9	-81	1
2.7	2015_Jun_02_1105	s	s	18	2	SIC	386	ABS	2	0	02VD 02VO 10VC 02MD 02MO 02MC 02RD 02RO	1	0	1.42362785339	None	None	-504	-217	0
2.7	2015_Jun_02_1105	s	s	18	2	SIC	387	ABS	2	1	02VD 10VO 02VC 02MD 02MO 02MC 02RD 02RO	1	0	1.71515417099	None	None	269	-236	0
2.7	2015_Jun_02_1105	s	s	18	2	SIC	388	RC	1	2	02VD 02VO 02VC 09MD 02MO 02MC 02RD 02RO	1	0	0.62316608429	-139.0	83.0	405	247	0
2.7	2015_Jun_02_1105	s	s	18	2	SIC	389	RC	2	1	02VD 09VO 02VC 02MD 02MO 02MC 02RD 02RO	1	0	1.86722302437	503.0	-387.0	504	-392	1
2.7	2015_Jun_02_1105	s	s	18	2	SIC	390	ABS	1	0	02VD 02VO 02VC 02MD 02MO 10MC 02RD 02RO	1	0	0.549901008606	None	None	-74	199	0
2.7	2015_Jun_02_1105	s	s	18	2	SIC	391	ABS	0	1	02VD 02VO 02VC 02MD 02MO 02MC 02RD 10RO	1	0	0.75922703743	None	None	63	61	0
2.7	2015_Jun_02_1105	s	s	18	2	SIC	392	ABS	0	2	02VD 02VO 02VC 02MD 02MO 02MC 10RD 02RO	1	0	1.47113704681	None	None	-367	-159	0
2.7	2015_Jun_02_1105	s	s	18	2	SIC	393	ABS	1	2	02VD 02VO 02VC 10MD 02MO 02MC 02RD 02RO	1	0	1.20015501976	None	None	-478	99	0
2.7	2015_Jun_02_1105	s	s	18	2	SIC	394	ABS	1	1	02VD 02VO 02VC 02MD 10MO 02MC 02RD 02RO	1	0	1.92463302612	None	None	327	26	0
2.7	2015_Jun_02_1105	s	s	18	2	SIC	395	RC	2	2	09VD 02VO 02VC 02MD 02MO 02MC 02RD 02RO	1	0	0.924237966537	351.0	161.0	359	160	1
2.7	2015_Jun_02_1105	s	s	18	2	SIC	396	RC	0	1	02VD 02VO 02VC 02MD 02MO 02MC 02RD 09RO	1	0	0.759453773499	-536.0	-30.0	44	318	0
2.7	2015_Jun_02_1105	s	s	18	2	SIC	397	RC	2	0	02VD 02VO 09VC 02MD 02MO 02MC 02RD 02RO	1	0	0.611359834671	-439.0	94.0	-93	138	0
2.7	2015_Jun_02_1105	s	s	18	2	SIC	398	ABS	2	2	10VD 02VO 02VC 02MD 02MO 02MC 02RD 02RO	1	0	0.629287958145	None	None	-126	88	0
2.7	2015_Jun_02_1105	s	s	18	2	SIC	399	RC	1	1	02VD 02VO 02VC 02MD 09MO 02MC 02RD 02RO	1	0	0.806515932083	274.0	-272.0	-289	126	0
2.7	2015_Jun_02_1105	s	s	18	2	SIC	400	RC	1	0	02VD 02VO 02VC 02MD 02MO 09MC 02RD 02RO	1	0	0.960774898529	69.0	-20.0	-212	219	0
2.7	2015_Jun_02_1105	s	s	18	2	SIC	401	RC	2	1	02VD 09VO 02VC 02MD 02MO 02MC 02RD 02RO	1	0	0.664484977722	476.0	-46.0	134	-80	0
2.7	2015_Jun_02_1105	s	s	18	2	SIC	402	RC	1	0	02VD 02VO 02VC 02MD 02MO 09MC 02RD 02RO	1	0	0.546588182449	-401.0	153.0	37	-89	0
2.7	2015_Jun_02_1105	s	s	18	2	SIC	403	ABS	0	2	02VD 02VO 02VC 02MD 02MO 02MC 10RD 02RO	1	0	0.713228940964	None	None	-184	-11	0
2.7	2015_Jun_02_1105	s	s	18	2	SIC	404	RC	2	2	09VD 02VO 02VC 02MD 02MO 02MC 02RD 02RO	1	0	1.25883603096	492.0	-32.0	254	19	0
2.7	2015_Jun_02_1105	s	s	18	2	SIC	405	RC	1	2	02VD 02VO 02VC 09MD 02MO 02MC 02RD 02RO	1	0	0.620378017426	72.0	138.0	71	132	1
2.7	2015_Jun_02_1105	s	s	18	2	SIC	406	ABS	2	1	02VD 10VO 02VC 02MD 02MO 02MC 02RD 02RO	1	0	0.576071023941	None	None	463	-157	0
2.7	2015_Jun_02_1105	s	s	18	2	SIC	407	ABS	2	0	02VD 02VO 10VC 02MD 02MO 02MC 02RD 02RO	1	0	1.18372106552	None	None	323	-5	0
2.7	2015_Jun_02_1105	s	s	18	2	SIC	408	ABS	1	1	02VD 02VO 02VC 02MD 10MO 02MC 02RD 02RO	1	0	4.06021595001	None	None	334	-391	0
2.7	2015_Jun_02_1105	s	s	18	2	SIC	409	ABS	1	0	02VD 02VO 02VC 02MD 02MO 10MC 02RD 02RO	1	0	0.535651922226	None	None	317	-114	0
2.7	2015_Jun_02_1105	s	s	18	2	SIC	410	ABS	2	2	10VD 02VO 02VC 02MD 02MO 02MC 02RD 02RO	1	0	1.17402005196	None	None	55	-390	0
2.7	2015_Jun_02_1105	s	s	18	2	SIC	411	RC	0	2	02VD 02VO 02VC 02MD 02MO 02MC 09RD 02RO	1	0	1.64137816429	-42.0	387.0	-47	389	1
2.7	2015_Jun_02_1105	s	s	18	2	SIC	412	RC	0	1	02VD 02VO 02VC 02MD 02MO 02MC 02RD 09RO	1	0	1.03883099556	-320.0	150.0	-325	153	1
2.7	2015_Jun_02_1105	s	s	18	2	SIC	413	RC	2	0	02VD 02VO 09VC 02MD 02MO 02MC 02RD 02RO	1	0	0.535815954208	365.0	29.0	-184	108	0
2.7	2015_Jun_02_1105	s	s	18	2	SIC	414	RC	1	1	02VD 02VO 02VC 02MD 09MO 02MC 02RD 02RO	1	0	2.34166193008	131.0	363.0	297	246	0
2.7	2015_Jun_02_1105	s	s	18	2	SIC	415	ABS	0	1	02VD 02VO 02VC 02MD 02MO 02MC 02RD 10RO	1	0	2.58542203903	None	None	-235	75	0
2.7	2015_Jun_02_1105	s	s	18	2	SIC	416	ABS	1	2	02VD 02VO 02VC 10MD 02MO 02MC 02RD 02RO	1	0	1.7885389328	None	None	-448	151	0
2.7	2015_Jun_02_1105	s	s	18	2	SIC	417	ABS	1	1	02VD 02VO 02VC 02MD 10MO 02MC 02RD 02RO	1	0	1.04411315918	None	None	-61	227	0
2.7	2015_Jun_02_1105	s	s	18	2	SIC	418	RC	0	1	02VD 02VO 02VC 02MD 02MO 02MC 02RD 09RO	1	0	1.98332309723	-379.0	-65.0	-374	-67	1
2.7	2015_Jun_02_1105	s	s	18	2	SIC	419	ABS	0	1	02VD 02VO 02VC 02MD 02MO 02MC 02RD 10RO	1	0	1.04129290581	None	None	-161	-52	0
2.7	2015_Jun_02_1105	s	s	18	2	SIC	420	ABS	2	1	02VD 10VO 02VC 02MD 02MO 02MC 02RD 02RO	1	0	1.38821101189	None	None	86	187	0
2.7	2015_Jun_02_1105	s	s	18	2	SIC	421	RC	1	1	02VD 02VO 02VC 02MD 09MO 02MC 02RD 02RO	1	0	0.576029062271	73.0	76.0	69	84	1
2.7	2015_Jun_02_1105	s	s	18	2	SIC	422	RC	2	1	02VD 09VO 02VC 02MD 02MO 02MC 02RD 02RO	1	0	1.28950881958	-10.0	279.0	-16	276	1
2.7	2015_Jun_02_1105	s	s	18	2	SIC	423	RC	0	2	02VD 02VO 02VC 02MD 02MO 02MC 09RD 02RO	1	0	0.760810136795	159.0	281.0	157	280	1
2.7	2015_Jun_02_1105	s	s	18	2	SIC	424	ABS	0	2	02VD 02VO 02VC 02MD 02MO 02MC 10RD 02RO	1	0	0.455657958984	None	None	-8	104	0
2.7	2015_Jun_02_1105	s	s	18	2	SIC	425	ABS	1	2	02VD 02VO 02VC 10MD 02MO 02MC 02RD 02RO	1	0	2.57348394394	None	None	-98	39	0
2.7	2015_Jun_02_1105	s	s	18	2	SIC	426	ABS	2	0	02VD 02VO 10VC 02MD 02MO 02MC 02RD 02RO	1	0	2.22392392159	None	None	427	336	0
2.7	2015_Jun_02_1105	s	s	18	2	SIC	427	RC	2	2	09VD 02VO 02VC 02MD 02MO 02MC 02RD 02RO	1	0	0.667448043823	-124.0	-310.0	-193	-9	0
2.7	2015_Jun_02_1105	s	s	18	2	SIC	428	RC	1	2	02VD 02VO 02VC 09MD 02MO 02MC 02RD 02RO	1	0	0.893918991089	193.0	-283.0	204	-282	1
2.7	2015_Jun_02_1105	s	s	18	2	SIC	429	ABS	2	2	10VD 02VO 02VC 02MD 02MO 02MC 02RD 02RO	1	0	1.45401597023	None	None	73	-345	0
2.7	2015_Jun_02_1105	s	s	18	2	SIC	430	RC	1	0	02VD 02VO 02VC 02MD 02MO 09MC 02RD 02RO	1	0	0.725883960724	504.0	-336.0	-19	349	0
2.7	2015_Jun_02_1105	s	s	18	2	SIC	431	RC	2	0	02VD 02VO 09VC 02MD 02MO 02MC 02RD 02RO	1	0	0.75913310051	514.0	-394.0	146	310	0
2.7	2015_Jun_02_1105	s	s	18	2	SIC	432	ABS	1	0	02VD 02VO 02VC 02MD 02MO 10MC 02RD 02RO	1	0	1.56482195854	None	None	-358	228	0
2.7	2015_Jun_02_1105	s	s	18	2	SIC	433	ABS	1	1	02VD 02VO 02VC 02MD 10MO 02MC 02RD 02RO	1	0	1.64322209358	None	None	98	-136	0
2.7	2015_Jun_02_1105	s	s	18	2	SIC	434	ABS	2	2	10VD 02VO 02VC 02MD 02MO 02MC 02RD 02RO	1	0	1.3245267868	None	None	218	291	0
2.7	2015_Jun_02_1105	s	s	18	2	SIC	435	RC	0	2	02VD 02VO 02VC 02MD 02MO 02MC 09RD 02RO	1	0	1.04701590538	356.0	-20.0	52	-412	0
2.7	2015_Jun_02_1105	s	s	18	2	SIC	436	ABS	1	0	02VD 02VO 02VC 02MD 02MO 10MC 02RD 02RO	1	0	0.582195997238	None	None	41	-5	0
2.7	2015_Jun_02_1105	s	s	18	2	SIC	437	RC	2	0	02VD 02VO 09VC 02MD 02MO 02MC 02RD 02RO	1	0	1.10288095474	-87.0	198.0	-23	-207	0
2.7	2015_Jun_02_1105	s	s	18	2	SIC	438	ABS	0	1	02VD 02VO 02VC 02MD 02MO 02MC 02RD 10RO	1	0	1.50981497765	None	None	-398	180	0
2.7	2015_Jun_02_1105	s	s	18	2	SIC	439	RC	2	1	02VD 09VO 02VC 02MD 02MO 02MC 02RD 02RO	1	0	0.764503002167	10.0	261.0	237	14	0
2.7	2015_Jun_02_1105	s	s	18	2	SIC	440	RC	1	1	02VD 02VO 02VC 02MD 09MO 02MC 02RD 02RO	1	0	0.61141204834	-189.0	-10.0	-183	-8	1
2.7	2015_Jun_02_1105	s	s	18	2	SIC	441	RC	1	0	02VD 02VO 02VC 02MD 02MO 09MC 02RD 02RO	1	0	0.700502157211	359.0	156.0	-69	110	0
2.7	2015_Jun_02_1105	s	s	18	2	SIC	442	ABS	1	2	02VD 02VO 02VC 10MD 02MO 02MC 02RD 02RO	1	0	0.503145933151	None	None	141	161	0
2.7	2015_Jun_02_1105	s	s	18	2	SIC	443	RC	2	2	09VD 02VO 02VC 02MD 02MO 02MC 02RD 02RO	1	0	0.735837936401	210.0	-62.0	209	-65	1
2.7	2015_Jun_02_1105	s	s	18	2	SIC	444	ABS	2	1	02VD 10VO 02VC 02MD 02MO 02MC 02RD 02RO	1	0	0.50553393364	None	None	-60	-33	0
2.7	2015_Jun_02_1105	s	s	18	2	SIC	445	RC	0	1	02VD 02VO 02VC 02MD 02MO 02MC 02RD 09RO	1	0	0.940887928009	-247.0	307.0	44	141	0
2.7	2015_Jun_02_1105	s	s	18	2	SIC	446	RC	1	2	02VD 02VO 02VC 09MD 02MO 02MC 02RD 02RO	1	0	0.658480882645	509.0	372.0	-27	277	0
2.7	2015_Jun_02_1105	s	s	18	2	SIC	447	ABS	0	2	02VD 02VO 02VC 02MD 02MO 02MC 10RD 02RO	1	0	1.19981098175	None	None	-201	-335	0
2.7	2015_Jun_02_1105	s	s	18	2	SIC	448	ABS	2	0	02VD 02VO 10VC 02MD 02MO 02MC 02RD 02RO	1	0	1.54789400101	None	None	232	-385	0
2.7	2015_Jun_02_1105	s	s	18	2	SIC	449	ABS	1	1	02VD 02VO 02VC 02MD 10MO 02MC 02RD 02RO	1	0	2.65959501266	None	None	243	271	0
2.7	2015_Jun_02_1105	s	s	18	2	SIC	450	RC	1	2	02VD 02VO 02VC 09MD 02MO 02MC 02RD 02RO	1	0	1.22006702423	-40.0	-355.0	198	-95	0
2.7	2015_Jun_02_1105	s	s	18	2	SIC	451	RC	0	1	02VD 02VO 02VC 02MD 02MO 02MC 02RD 09RO	1	0	1.29401302338	-305.0	-138.0	277	-214	0
2.7	2015_Jun_02_1105	s	s	18	2	SIC	452	ABS	0	2	02VD 02VO 02VC 02MD 02MO 02MC 10RD 02RO	1	0	0.735790014267	None	None	-137	183	0
2.7	2015_Jun_02_1105	s	s	18	2	SIC	453	ABS	1	2	02VD 02VO 02VC 10MD 02MO 02MC 02RD 02RO	1	0	0.705642938614	None	None	-304	137	0
2.7	2015_Jun_02_1105	s	s	18	2	SIC	454	RC	0	2	02VD 02VO 02VC 02MD 02MO 02MC 09RD 02RO	1	0	1.12928199768	285.0	-357.0	302	409	0
2.7	2015_Jun_02_1105	s	s	18	2	SIC	455	RC	1	0	02VD 02VO 02VC 02MD 02MO 09MC 02RD 02RO	1	0	1.1950969696	-183.0	-202.0	400	148	0
2.7	2015_Jun_02_1105	s	s	18	2	SIC	456	ABS	2	2	10VD 02VO 02VC 02MD 02MO 02MC 02RD 02RO	1	0	1.01996898651	None	None	-213	212	0
2.7	2015_Jun_02_1105	s	s	18	2	SIC	457	RC	2	1	02VD 09VO 02VC 02MD 02MO 02MC 02RD 02RO	1	0	0.982823133469	177.0	158.0	184	153	1
2.7	2015_Jun_02_1105	s	s	18	2	SIC	458	RC	2	2	09VD 02VO 02VC 02MD 02MO 02MC 02RD 02RO	1	0	0.623183012009	229.0	148.0	227	148	1
2.7	2015_Jun_02_1105	s	s	18	2	SIC	459	ABS	0	1	02VD 02VO 02VC 02MD 02MO 02MC 02RD 10RO	1	0	2.88322281837	None	None	-243	390	0
2.7	2015_Jun_02_1105	s	s	18	2	SIC	460	ABS	2	0	02VD 02VO 10VC 02MD 02MO 02MC 02RD 02RO	1	0	1.57414913177	None	None	-514	-75	0
2.7	2015_Jun_02_1105	s	s	18	2	SIC	461	ABS	2	1	02VD 10VO 02VC 02MD 02MO 02MC 02RD 02RO	1	0	0.783149957657	None	None	-526	-277	0
2.7	2015_Jun_02_1105	s	s	18	2	SIC	462	ABS	1	0	02VD 02VO 02VC 02MD 02MO 10MC 02RD 02RO	1	0	0.552518129349	None	None	46	-73	0
2.7	2015_Jun_02_1105	s	s	18	2	SIC	463	RC	2	0	02VD 02VO 09VC 02MD 02MO 02MC 02RD 02RO	1	0	1.63284492493	-356.0	-345.0	423	148	0
2.7	2015_Jun_02_1105	s	s	18	2	SIC	464	RC	1	1	02VD 02VO 02VC 02MD 09MO 02MC 02RD 02RO	1	0	0.870528936386	-4.0	-245.0	258	312	0
2.7	2015_Jun_02_1105	s	s	18	2	SIC	465	ABS	2	2	10VD 02VO 02VC 02MD 02MO 02MC 02RD 02RO	1	0	1.01161694527	None	None	-189	-111	0
2.7	2015_Jun_02_1105	s	s	18	2	SIC	466	ABS	1	0	02VD 02VO 02VC 02MD 02MO 10MC 02RD 02RO	1	0	1.16496109962	None	None	218	35	0
2.7	2015_Jun_02_1105	s	s	18	2	SIC	467	ABS	0	1	02VD 02VO 02VC 02MD 02MO 02MC 02RD 10RO	1	0	0.705492019653	None	None	-511	407	0
2.7	2015_Jun_02_1105	s	s	18	2	SIC	468	RC	0	1	02VD 02VO 02VC 02MD 02MO 02MC 02RD 09RO	1	0	0.607610940933	-506.0	225.0	-142	-15	0
2.7	2015_Jun_02_1105	s	s	18	2	SIC	469	ABS	2	1	02VD 10VO 02VC 02MD 02MO 02MC 02RD 02RO	1	0	0.552469015121	None	None	-209	21	0
2.7	2015_Jun_02_1105	s	s	18	2	SIC	470	RC	2	1	02VD 09VO 02VC 02MD 02MO 02MC 02RD 02RO	1	0	1.46576499939	210.0	314.0	365	224	0
2.7	2015_Jun_02_1105	s	s	18	2	SIC	471	RC	1	1	02VD 02VO 02VC 02MD 09MO 02MC 02RD 02RO	1	0	0.976381063461	298.0	-104.0	298	-106	1
2.7	2015_Jun_02_1105	s	s	18	2	SIC	472	RC	0	2	02VD 02VO 02VC 02MD 02MO 02MC 09RD 02RO	1	0	1.10159397125	-205.0	325.0	-349	-259	0
2.7	2015_Jun_02_1105	s	s	18	2	SIC	473	ABS	1	1	02VD 02VO 02VC 02MD 10MO 02MC 02RD 02RO	1	0	1.16057085991	None	None	-268	-63	0
2.7	2015_Jun_02_1105	s	s	18	2	SIC	474	ABS	2	0	02VD 02VO 10VC 02MD 02MO 02MC 02RD 02RO	1	0	0.631967067719	None	None	-67	-169	0
2.7	2015_Jun_02_1105	s	s	18	2	SIC	475	RC	1	2	02VD 02VO 02VC 09MD 02MO 02MC 02RD 02RO	1	0	0.952826023102	451.0	-405.0	62	339	0
2.7	2015_Jun_02_1105	s	s	18	2	SIC	476	ABS	0	2	02VD 02VO 02VC 02MD 02MO 02MC 10RD 02RO	1	0	0.619478940964	None	None	219	58	0
2.7	2015_Jun_02_1105	s	s	18	2	SIC	477	ABS	1	2	02VD 02VO 02VC 10MD 02MO 02MC 02RD 02RO	1	0	0.655819892883	None	None	424	53	0
2.7	2015_Jun_02_1105	s	s	18	2	SIC	478	RC	1	0	02VD 02VO 02VC 02MD 02MO 09MC 02RD 02RO	1	0	0.491269826889	-225.0	-248.0	-111	-10	0
2.7	2015_Jun_02_1105	s	s	18	2	SIC	479	RC	2	2	09VD 02VO 02VC 02MD 02MO 02MC 02RD 02RO	1	0	1.20603084564	71.0	-333.0	70	-335	1
2.7	2015_Jun_02_1105	s	s	18	2	SIC	480	RC	2	0	02VD 02VO 09VC 02MD 02MO 02MC 02RD 02RO	1	0	0.517266988754	125.0	-305.0	120	-309	1
