Version	Date	Stimuli	Method	Subject	Session	Condition	Trial	Target	Channel1	Channel2	Distractors	LMouseButton	RMouseButton	RT	TargetX	TargetY	ResponseX	ResponseY	Correct
2.7	2015_Jun_05_1105	s	s	18	5	Capacity	1	RC	2	0	15VC 08MC	1	0	2.20684480667	58.0	377.0	140	97	0
2.7	2015_Jun_05_1105	s	s	18	5	Capacity	2	ABS	2	0	16VC 08MC	1	0	1.00646686554	None	None	249	-57	0
2.7	2015_Jun_05_1105	s	s	18	5	Capacity	3	ABS	1	0	08VC 16MC	1	0	0.406377077103	None	None	87	136	0
2.7	2015_Jun_05_1105	s	s	18	5	Capacity	4	RC	1	0	08VC 15MC	1	0	0.490293979645	407.0	-58.0	-215	98	0
2.7	2015_Jun_05_1105	s	s	18	5	Capacity	5	RC	1	0	08VC 15MC	1	0	1.25377106667	323.0	358.0	-340	-27	0
2.7	2015_Jun_05_1105	s	s	18	5	Capacity	6	RC	2	0	15VC 08MC	1	0	0.640423059464	518.0	365.0	-397	84	0
2.7	2015_Jun_05_1105	s	s	18	5	Capacity	7	ABS	1	0	08VC 16MC	1	0	0.405827045441	None	None	-379	127	0
2.7	2015_Jun_05_1105	s	s	18	5	Capacity	8	ABS	2	0	16VC 08MC	1	0	0.547482013702	None	None	-481	62	0
2.7	2015_Jun_05_1105	s	s	18	5	Capacity	9	RC	2	0	15VC 08MC	1	0	0.834784984589	-30.0	232.0	-29	239	1
2.7	2015_Jun_05_1105	s	s	18	5	Capacity	10	RC	1	0	08VC 15MC	1	0	0.434923171997	-122.0	-51.0	-124	-54	1
2.7	2015_Jun_05_1105	s	s	18	5	Capacity	11	ABS	2	0	16VC 08MC	1	0	0.370281219482	None	None	-1	11	0
2.7	2015_Jun_05_1105	s	s	18	5	Capacity	12	ABS	1	0	08VC 16MC	1	0	0.525496006012	None	None	-8	126	0
2.7	2015_Jun_05_1105	s	s	18	5	Capacity	13	RC	1	0	08VC 15MC	1	0	0.629898786545	-23.0	-151.0	-15	-145	1
2.7	2015_Jun_05_1105	s	s	18	5	Capacity	14	RC	2	0	15VC 08MC	1	0	0.417490005493	176.0	108.0	-103	119	0
2.7	2015_Jun_05_1105	s	s	18	5	Capacity	15	ABS	2	0	16VC 08MC	1	0	0.434731006622	None	None	-193	38	0
2.7	2015_Jun_05_1105	s	s	18	5	Capacity	16	ABS	1	0	08VC 16MC	1	0	0.278424024582	None	None	-110	-48	0
2.7	2015_Jun_05_1105	s	s	18	5	Capacity	17	RC	1	0	08VC 15MC	1	0	0.443203210831	-363.0	303.0	-299	-6	0
2.7	2015_Jun_05_1105	s	s	18	5	Capacity	18	RC	2	0	15VC 08MC	1	0	0.488019943237	331.0	280.0	-51	-188	0
2.7	2015_Jun_05_1105	s	s	18	5	Capacity	19	ABS	2	0	16VC 08MC	1	0	1.03524017334	None	None	123	-50	0
2.7	2015_Jun_05_1105	s	s	18	5	Capacity	20	ABS	1	0	08VC 16MC	1	0	0.375851869583	None	None	-12	-38	0
2.7	2015_Jun_05_1105	s	s	18	5	Capacity	21	ABS	2	0	16VC 08MC	1	0	0.434793949127	None	None	-36	-34	0
2.7	2015_Jun_05_1105	s	s	18	5	Capacity	22	RC	2	0	15VC 08MC	1	0	0.724278926849	-509.0	147.0	240	-33	0
2.7	2015_Jun_05_1105	s	s	18	5	Capacity	23	RC	1	0	08VC 15MC	1	0	0.27006983757	493.0	-400.0	97	-101	0
2.7	2015_Jun_05_1105	s	s	18	5	Capacity	24	ABS	1	0	08VC 16MC	1	0	0.442718982697	None	None	28	-147	0
2.7	2015_Jun_05_1105	s	s	18	5	Capacity	25	RC	2	0	15VC 08MC	1	0	0.291362047195	304.0	-22.0	54	131	0
2.7	2015_Jun_05_1105	s	s	18	5	Capacity	26	ABS	2	0	16VC 08MC	1	0	0.470074176788	None	None	-14	-58	0
2.7	2015_Jun_05_1105	s	s	18	5	Capacity	27	RC	1	0	08VC 15MC	1	0	0.394310951233	258.0	96.0	-1	-10	0
2.7	2015_Jun_05_1105	s	s	18	5	Capacity	28	ABS	1	0	08VC 16MC	1	0	0.443125963211	None	None	223	192	0
2.7	2015_Jun_05_1105	s	s	18	5	Capacity	29	ABS	1	0	08VC 16MC	1	0	0.335655927658	None	None	-24	148	0
2.7	2015_Jun_05_1105	s	s	18	5	Capacity	30	RC	1	0	08VC 15MC	1	0	0.434902906418	519.0	76.0	151	-5	0
2.7	2015_Jun_05_1105	s	s	18	5	Capacity	31	ABS	2	0	16VC 08MC	1	0	0.655926942825	None	None	71	62	0
2.7	2015_Jun_05_1105	s	s	18	5	Capacity	32	RC	2	0	15VC 08MC	1	0	0.517499923706	300.0	-144.0	52	47	0
2.7	2015_Jun_05_1105	s	s	18	5	Capacity	33	RC	1	0	08VC 15MC	1	0	0.349800109863	-63.0	402.0	148	1	0
2.7	2015_Jun_05_1105	s	s	18	5	Capacity	34	ABS	1	0	08VC 16MC	1	0	0.265184879303	None	None	191	-24	0
2.7	2015_Jun_05_1105	s	s	18	5	Capacity	35	ABS	2	0	16VC 08MC	1	0	0.797291994095	None	None	-148	-136	0
2.7	2015_Jun_05_1105	s	s	18	5	Capacity	36	RC	2	0	15VC 08MC	1	0	0.4769718647	-445.0	142.0	204	189	0
2.7	2015_Jun_05_1105	s	s	18	5	Capacity	37	RC	2	0	15VC 08MC	1	0	0.717321872711	519.0	-260.0	-165	171	0
2.7	2015_Jun_05_1105	s	s	18	5	Capacity	38	ABS	2	0	16VC 08MC	1	0	0.559633016586	None	None	-233	-145	0
2.7	2015_Jun_05_1105	s	s	18	5	Capacity	39	RC	1	0	08VC 15MC	1	0	2.55054092407	-29.0	309.0	-90	140	0
2.7	2015_Jun_05_1105	s	s	18	5	Capacity	40	ABS	1	0	08VC 16MC	1	0	0.976174116135	None	None	-221	-53	0
2.7	2015_Jun_05_1105	s	s	18	5	Capacity	41	RC	2	0	15VC 08MC	1	0	0.787994861603	390.0	30.0	-245	-163	0
2.7	2015_Jun_05_1105	s	s	18	5	Capacity	42	RC	1	0	08VC 15MC	1	0	0.656089067459	-342.0	-22.0	-336	-20	1
2.7	2015_Jun_05_1105	s	s	18	5	Capacity	43	ABS	1	0	08VC 16MC	1	0	5.26969504356	None	None	-159	-109	0
2.7	2015_Jun_05_1105	s	s	18	5	Capacity	44	ABS	2	0	16VC 08MC	1	0	6.71477007866	None	None	-178	4	0
2.7	2015_Jun_05_1105	s	s	18	5	Capacity	45	RC	2	0	15VC 08MC	1	0	1.5059568882	208.0	92.0	-206	79	0
2.7	2015_Jun_05_1105	s	s	18	5	Capacity	46	RC	1	0	08VC 15MC	1	0	3.34828400612	472.0	228.0	-242	-129	0
2.7	2015_Jun_05_1105	s	s	18	5	Capacity	47	ABS	2	0	16VC 08MC	1	0	0.9471180439	None	None	-75	104	0
2.7	2015_Jun_05_1105	s	s	18	5	Capacity	48	ABS	1	0	08VC 16MC	1	0	6.27977013588	None	None	-175	70	0
2.7	2015_Jun_05_1105	s	s	18	5	Capacity	49	RC	1	0	08VC 15MC	1	0	0.278333187103	-257.0	283.0	-117	233	0
2.7	2015_Jun_05_1105	s	s	18	5	Capacity	50	RC	2	0	15VC 08MC	1	0	0.456248998642	-479.0	-134.0	-193	346	0
2.7	2015_Jun_05_1105	s	s	18	5	Capacity	51	ABS	2	0	16VC 08MC	1	0	0.573267936707	None	None	-453	253	0
2.7	2015_Jun_05_1105	s	s	18	5	Capacity	52	ABS	1	0	08VC 16MC	1	0	0.55255484581	None	None	-128	111	0
2.7	2015_Jun_05_1105	s	s	18	5	Capacity	53	RC	2	0	15VC 08MC	1	0	0.453464031219	260.0	-269.0	-93	-38	0
2.7	2015_Jun_05_1105	s	s	18	5	Capacity	54	RC	1	0	08VC 15MC	1	0	0.475852012634	-121.0	-343.0	20	-79	0
2.7	2015_Jun_05_1105	s	s	18	5	Capacity	55	ABS	2	0	16VC 08MC	1	0	0.571058988571	None	None	135	-105	0
2.7	2015_Jun_05_1105	s	s	18	5	Capacity	56	ABS	1	0	08VC 16MC	1	0	0.391484975815	None	None	25	-136	0
2.7	2015_Jun_05_1105	s	s	18	5	Capacity	57	ABS	1	0	08VC 16MC	1	0	0.529088973999	None	None	116	94	0
2.7	2015_Jun_05_1105	s	s	18	5	Capacity	58	RC	1	0	08VC 15MC	1	0	0.349821090698	-171.0	-15.0	-7	-28	0
2.7	2015_Jun_05_1105	s	s	18	5	Capacity	59	RC	2	0	15VC 08MC	1	0	0.387781143188	-527.0	-19.0	72	-74	0
2.7	2015_Jun_05_1105	s	s	18	5	Capacity	60	ABS	2	0	16VC 08MC	1	0	0.440327882767	None	None	193	-63	0
2.7	2015_Jun_05_1105	s	s	18	5	Capacity	61	RC	1	0	08VC 15MC	1	0	0.512329101562	-20.0	-301.0	183	53	0
2.7	2015_Jun_05_1105	s	s	18	5	Capacity	62	ABS	1	0	08VC 16MC	1	0	0.376044034958	None	None	-5	-115	0
2.7	2015_Jun_05_1105	s	s	18	5	Capacity	63	ABS	2	0	16VC 08MC	1	0	0.25553894043	None	None	79	-53	0
2.7	2015_Jun_05_1105	s	s	18	5	Capacity	64	RC	2	0	15VC 08MC	1	0	0.470173120499	524.0	369.0	191	-144	0
2.7	2015_Jun_05_1105	s	s	18	5	Capacity	1	RC	0	2	15RD 08RO	0	1	2.43072795868	381.0	31.0	None	None	0
2.7	2015_Jun_05_1105	s	s	18	5	Capacity	2	RC	0	1	08RD 15RO	1	0	1.69438004494	-131.0	-301.0	-136	-309	1
2.7	2015_Jun_05_1105	s	s	18	5	Capacity	3	ABS	0	2	16RD 08RO	0	1	2.04153084755	None	None	None	None	1
2.7	2015_Jun_05_1105	s	s	18	5	Capacity	4	ABS	0	1	08RD 16RO	0	1	2.34749507904	None	None	None	None	1
2.7	2015_Jun_05_1105	s	s	18	5	Capacity	5	RC	0	2	15RD 08RO	1	0	2.25438714027	463.0	-366.0	472	-369	1
2.7	2015_Jun_05_1105	s	s	18	5	Capacity	6	RC	0	1	08RD 15RO	1	0	0.86222410202	83.0	-195.0	79	-192	1
2.7	2015_Jun_05_1105	s	s	18	5	Capacity	7	ABS	0	2	16RD 08RO	0	1	1.90145301819	None	None	None	None	1
2.7	2015_Jun_05_1105	s	s	18	5	Capacity	8	ABS	0	1	08RD 16RO	0	1	3.1618309021	None	None	None	None	1
2.7	2015_Jun_05_1105	s	s	18	5	Capacity	9	ABS	0	1	08RD 16RO	0	1	2.73015499115	None	None	None	None	1
2.7	2015_Jun_05_1105	s	s	18	5	Capacity	10	RC	0	1	08RD 15RO	1	0	1.78847002983	238.0	-221.0	229	-220	1
2.7	2015_Jun_05_1105	s	s	18	5	Capacity	11	RC	0	2	15RD 08RO	1	0	1.15278291702	-180.0	204.0	-189	201	1
2.7	2015_Jun_05_1105	s	s	18	5	Capacity	12	ABS	0	2	16RD 08RO	0	1	2.32997393608	None	None	None	None	1
2.7	2015_Jun_05_1105	s	s	18	5	Capacity	13	RC	0	1	08RD 15RO	1	0	2.22431993484	-345.0	-179.0	-347	-180	1
2.7	2015_Jun_05_1105	s	s	18	5	Capacity	14	ABS	0	2	16RD 08RO	0	1	2.14879202843	None	None	None	None	1
2.7	2015_Jun_05_1105	s	s	18	5	Capacity	15	ABS	0	1	08RD 16RO	0	1	2.26304197311	None	None	None	None	1
2.7	2015_Jun_05_1105	s	s	18	5	Capacity	16	RC	0	2	15RD 08RO	1	0	0.997579813004	42.0	17.0	41	18	1
2.7	2015_Jun_05_1105	s	s	18	5	Capacity	17	ABS	0	1	08RD 16RO	0	1	3.94259905815	None	None	None	None	1
2.7	2015_Jun_05_1105	s	s	18	5	Capacity	18	ABS	0	2	16RD 08RO	1	0	2.844009161	None	None	-124	-21	0
2.7	2015_Jun_05_1105	s	s	18	5	Capacity	19	RC	0	1	08RD 15RO	0	1	3.14857602119	-322.0	76.0	None	None	0
2.7	2015_Jun_05_1105	s	s	18	5	Capacity	20	RC	0	2	15RD 08RO	1	0	1.12456083298	-138.0	297.0	-136	298	1
2.7	2015_Jun_05_1105	s	s	18	5	Capacity	21	RC	0	1	08RD 15RO	1	0	2.30635309219	258.0	-160.0	255	-161	1
2.7	2015_Jun_05_1105	s	s	18	5	Capacity	22	ABS	0	2	16RD 08RO	0	1	2.08300185204	None	None	None	None	1
2.7	2015_Jun_05_1105	s	s	18	5	Capacity	23	ABS	0	1	08RD 16RO	0	1	1.83566308022	None	None	None	None	1
2.7	2015_Jun_05_1105	s	s	18	5	Capacity	24	RC	0	2	15RD 08RO	1	0	1.57664895058	242.0	36.0	240	23	1
2.7	2015_Jun_05_1105	s	s	18	5	Capacity	25	ABS	0	2	16RD 08RO	0	1	0.0936031341553	None	None	None	None	1
2.7	2015_Jun_05_1105	s	s	18	5	Capacity	26	RC	0	1	08RD 15RO	1	0	1.4588727951	80.0	-359.0	76	-351	1
2.7	2015_Jun_05_1105	s	s	18	5	Capacity	27	ABS	0	1	08RD 16RO	0	1	3.06892895699	None	None	None	None	1
2.7	2015_Jun_05_1105	s	s	18	5	Capacity	28	RC	0	2	15RD 08RO	1	0	2.14164090157	-507.0	-351.0	-501	-358	1
2.7	2015_Jun_05_1105	s	s	18	5	Capacity	29	ABS	0	2	16RD 08RO	0	1	2.03561711311	None	None	None	None	1
2.7	2015_Jun_05_1105	s	s	18	5	Capacity	30	RC	0	1	08RD 15RO	1	0	0.679310083389	143.0	-50.0	139	-53	1
2.7	2015_Jun_05_1105	s	s	18	5	Capacity	31	ABS	0	1	08RD 16RO	0	1	2.46631717682	None	None	None	None	1
2.7	2015_Jun_05_1105	s	s	18	5	Capacity	32	RC	0	2	15RD 08RO	1	0	1.58565402031	482.0	374.0	483	368	1
2.7	2015_Jun_05_1105	s	s	18	5	Capacity	33	RC	0	1	08RD 15RO	1	0	3.64826107025	-426.0	52.0	-433	51	1
2.7	2015_Jun_05_1105	s	s	18	5	Capacity	34	RC	0	2	15RD 08RO	1	0	2.52233719826	437.0	244.0	440	236	1
2.7	2015_Jun_05_1105	s	s	18	5	Capacity	35	ABS	0	2	16RD 08RO	0	1	3.07532382011	None	None	None	None	1
2.7	2015_Jun_05_1105	s	s	18	5	Capacity	36	ABS	0	1	08RD 16RO	0	1	3.27867388725	None	None	None	None	1
2.7	2015_Jun_05_1105	s	s	18	5	Capacity	37	ABS	0	2	16RD 08RO	0	1	3.01249194145	None	None	None	None	1
2.7	2015_Jun_05_1105	s	s	18	5	Capacity	38	RC	0	2	15RD 08RO	1	0	1.17639112473	405.0	238.0	397	236	1
2.7	2015_Jun_05_1105	s	s	18	5	Capacity	39	ABS	0	1	08RD 16RO	0	1	3.51870298386	None	None	None	None	1
2.7	2015_Jun_05_1105	s	s	18	5	Capacity	40	RC	0	1	08RD 15RO	1	0	2.31334400177	-204.0	-222.0	-194	-213	1
2.7	2015_Jun_05_1105	s	s	18	5	Capacity	41	ABS	0	1	08RD 16RO	0	1	3.97320699692	None	None	None	None	1
2.7	2015_Jun_05_1105	s	s	18	5	Capacity	42	RC	0	1	08RD 15RO	1	0	0.56422495842	46.0	52.0	48	59	1
2.7	2015_Jun_05_1105	s	s	18	5	Capacity	43	RC	0	2	15RD 08RO	1	0	2.1580350399	65.0	296.0	63	293	1
2.7	2015_Jun_05_1105	s	s	18	5	Capacity	44	ABS	0	2	16RD 08RO	1	0	4.0201151371	None	None	13	48	0
2.7	2015_Jun_05_1105	s	s	18	5	Capacity	45	ABS	0	1	08RD 16RO	0	1	2.40954709053	None	None	None	None	1
2.7	2015_Jun_05_1105	s	s	18	5	Capacity	46	ABS	0	2	16RD 08RO	0	1	1.9126830101	None	None	None	None	1
2.7	2015_Jun_05_1105	s	s	18	5	Capacity	47	RC	0	1	08RD 15RO	1	0	0.93718290329	-157.0	8.0	-157	10	1
2.7	2015_Jun_05_1105	s	s	18	5	Capacity	48	RC	0	2	15RD 08RO	1	0	1.61905312538	532.0	-339.0	536	-340	1
2.7	2015_Jun_05_1105	s	s	18	5	Capacity	49	RC	0	1	08RD 15RO	1	0	0.690564870834	-50.0	-64.0	-48	-66	1
2.7	2015_Jun_05_1105	s	s	18	5	Capacity	50	ABS	0	1	08RD 16RO	0	1	3.17347788811	None	None	None	None	1
2.7	2015_Jun_05_1105	s	s	18	5	Capacity	51	RC	0	2	15RD 08RO	1	0	1.65899419785	496.0	31.0	503	24	1
2.7	2015_Jun_05_1105	s	s	18	5	Capacity	52	ABS	0	2	16RD 08RO	1	0	1.78570079803	None	None	-11	117	0
2.7	2015_Jun_05_1105	s	s	18	5	Capacity	53	ABS	0	2	16RD 08RO	0	1	2.58890986443	None	None	None	None	1
2.7	2015_Jun_05_1105	s	s	18	5	Capacity	54	RC	0	1	08RD 15RO	1	0	2.76586699486	461.0	332.0	450	332	1
2.7	2015_Jun_05_1105	s	s	18	5	Capacity	55	ABS	0	1	08RD 16RO	0	1	3.18915390968	None	None	None	None	1
2.7	2015_Jun_05_1105	s	s	18	5	Capacity	56	RC	0	2	15RD 08RO	0	1	1.98368692398	-365.0	-34.0	None	None	0
2.7	2015_Jun_05_1105	s	s	18	5	Capacity	57	RC	0	2	15RD 08RO	1	0	1.34122800827	307.0	360.0	300	367	1
2.7	2015_Jun_05_1105	s	s	18	5	Capacity	58	ABS	0	1	08RD 16RO	0	1	3.60804986954	None	None	None	None	1
2.7	2015_Jun_05_1105	s	s	18	5	Capacity	59	RC	0	1	08RD 15RO	1	0	2.24761605263	331.0	-127.0	338	-128	1
2.7	2015_Jun_05_1105	s	s	18	5	Capacity	60	ABS	0	2	16RD 08RO	0	1	2.91555094719	None	None	None	None	1
2.7	2015_Jun_05_1105	s	s	18	5	Capacity	61	RC	0	2	15RD 08RO	1	0	2.53621006012	-439.0	-208.0	-438	-203	1
2.7	2015_Jun_05_1105	s	s	18	5	Capacity	62	ABS	0	1	08RD 16RO	0	1	4.15137386322	None	None	None	None	1
2.7	2015_Jun_05_1105	s	s	18	5	Capacity	63	ABS	0	2	16RD 08RO	0	1	2.95377111435	None	None	None	None	1
2.7	2015_Jun_05_1105	s	s	18	5	Capacity	64	RC	0	1	08RD 15RO	1	0	1.33616709709	374.0	-76.0	384	-66	1
2.7	2015_Jun_05_1105	s	s	18	5	SIC	1	RC	0	2	02VD 02VO 02VC 02MD 02MO 02MC 09RD 02RO	1	0	1.19617676735	434.0	180.0	439	177	1
2.7	2015_Jun_05_1105	s	s	18	5	SIC	2	ABS	2	1	02VD 10VO 02VC 02MD 02MO 02MC 02RD 02RO	1	0	0.559437036514	None	None	-62	-9	0
2.7	2015_Jun_05_1105	s	s	18	5	SIC	3	ABS	0	1	02VD 02VO 02VC 02MD 02MO 02MC 02RD 10RO	1	0	0.620615959167	None	None	-59	168	0
2.7	2015_Jun_05_1105	s	s	18	5	SIC	4	RC	0	1	02VD 02VO 02VC 02MD 02MO 02MC 02RD 09RO	1	0	0.46700501442	-122.0	-27.0	-114	-29	1
2.7	2015_Jun_05_1105	s	s	18	5	SIC	5	RC	2	0	02VD 02VO 09VC 02MD 02MO 02MC 02RD 02RO	1	0	2.28843402863	442.0	-1.0	-477	256	0
2.7	2015_Jun_05_1105	s	s	18	5	SIC	6	ABS	1	2	02VD 02VO 02VC 10MD 02MO 02MC 02RD 02RO	1	0	0.744564056396	None	None	-2	246	0
2.7	2015_Jun_05_1105	s	s	18	5	SIC	7	ABS	2	2	10VD 02VO 02VC 02MD 02MO 02MC 02RD 02RO	1	0	1.263671875	None	None	-445	-64	0
2.7	2015_Jun_05_1105	s	s	18	5	SIC	8	RC	1	0	02VD 02VO 02VC 02MD 02MO 09MC 02RD 02RO	1	0	1.15296220779	462.0	300.0	-170	-314	0
2.7	2015_Jun_05_1105	s	s	18	5	SIC	9	RC	1	2	02VD 02VO 02VC 09MD 02MO 02MC 02RD 02RO	1	0	0.552589893341	469.0	304.0	-22	136	0
2.7	2015_Jun_05_1105	s	s	18	5	SIC	10	ABS	0	2	02VD 02VO 02VC 02MD 02MO 02MC 10RD 02RO	1	0	1.21772813797	None	None	377	-197	0
2.7	2015_Jun_05_1105	s	s	18	5	SIC	11	RC	2	1	02VD 09VO 02VC 02MD 02MO 02MC 02RD 02RO	1	0	1.01160383224	530.0	242.0	337	-116	0
2.7	2015_Jun_05_1105	s	s	18	5	SIC	12	ABS	2	0	02VD 02VO 10VC 02MD 02MO 02MC 02RD 02RO	1	0	1.02355194092	None	None	-207	363	0
2.7	2015_Jun_05_1105	s	s	18	5	SIC	13	ABS	1	0	02VD 02VO 02VC 02MD 02MO 10MC 02RD 02RO	1	0	0.830159902573	None	None	-525	41	0
2.7	2015_Jun_05_1105	s	s	18	5	SIC	14	RC	1	1	02VD 02VO 02VC 02MD 09MO 02MC 02RD 02RO	1	0	0.77351307869	-235.0	143.0	-245	144	1
2.7	2015_Jun_05_1105	s	s	18	5	SIC	15	ABS	1	1	02VD 02VO 02VC 02MD 10MO 02MC 02RD 02RO	1	0	1.64700579643	None	None	-109	-289	0
2.7	2015_Jun_05_1105	s	s	18	5	SIC	16	RC	2	2	09VD 02VO 02VC 02MD 02MO 02MC 02RD 02RO	1	0	0.783154964447	-235.0	-42.0	-242	-43	1
2.7	2015_Jun_05_1105	s	s	18	5	SIC	17	RC	1	1	02VD 02VO 02VC 02MD 09MO 02MC 02RD 02RO	1	0	0.843368053436	-473.0	-126.0	-476	-131	1
2.7	2015_Jun_05_1105	s	s	18	5	SIC	18	RC	2	2	09VD 02VO 02VC 02MD 02MO 02MC 02RD 02RO	1	0	0.783108949661	191.0	151.0	-334	96	0
2.7	2015_Jun_05_1105	s	s	18	5	SIC	19	ABS	0	1	02VD 02VO 02VC 02MD 02MO 02MC 02RD 10RO	1	0	3.06769990921	None	None	-246	-343	0
2.7	2015_Jun_05_1105	s	s	18	5	SIC	20	RC	0	1	02VD 02VO 02VC 02MD 02MO 02MC 02RD 09RO	1	0	1.15273809433	-402.0	261.0	109	365	0
2.7	2015_Jun_05_1105	s	s	18	5	SIC	21	ABS	2	2	10VD 02VO 02VC 02MD 02MO 02MC 02RD 02RO	1	0	0.69980597496	None	None	-144	317	0
2.7	2015_Jun_05_1105	s	s	18	5	SIC	22	ABS	1	2	02VD 02VO 02VC 10MD 02MO 02MC 02RD 02RO	1	0	0.594836950302	None	None	38	77	0
2.7	2015_Jun_05_1105	s	s	18	5	SIC	23	RC	2	1	02VD 09VO 02VC 02MD 02MO 02MC 02RD 02RO	1	0	0.58794093132	22.0	-60.0	23	-51	1
2.7	2015_Jun_05_1105	s	s	18	5	SIC	24	ABS	2	1	02VD 10VO 02VC 02MD 02MO 02MC 02RD 02RO	1	0	0.796820163727	None	None	53	-111	0
2.7	2015_Jun_05_1105	s	s	18	5	SIC	25	RC	0	2	02VD 02VO 02VC 02MD 02MO 02MC 09RD 02RO	1	0	0.595299959183	57.0	-123.0	56	-119	1
2.7	2015_Jun_05_1105	s	s	18	5	SIC	26	ABS	1	0	02VD 02VO 02VC 02MD 02MO 10MC 02RD 02RO	1	0	0.470335960388	None	None	107	25	0
2.7	2015_Jun_05_1105	s	s	18	5	SIC	27	ABS	0	2	02VD 02VO 02VC 02MD 02MO 02MC 10RD 02RO	1	0	1.01789903641	None	None	373	-4	0
2.7	2015_Jun_05_1105	s	s	18	5	SIC	28	ABS	2	0	02VD 02VO 10VC 02MD 02MO 02MC 02RD 02RO	1	0	1.64150094986	None	None	-485	280	0
2.7	2015_Jun_05_1105	s	s	18	5	SIC	29	ABS	1	1	02VD 02VO 02VC 02MD 10MO 02MC 02RD 02RO	1	0	0.983238935471	None	None	-340	378	0
2.7	2015_Jun_05_1105	s	s	18	5	SIC	30	RC	2	0	02VD 02VO 09VC 02MD 02MO 02MC 02RD 02RO	1	0	0.823235034943	-246.0	-97.0	-94	2	0
2.7	2015_Jun_05_1105	s	s	18	5	SIC	31	RC	1	2	02VD 02VO 02VC 09MD 02MO 02MC 02RD 02RO	1	0	0.552523136139	-160.0	275.0	110	79	0
2.7	2015_Jun_05_1105	s	s	18	5	SIC	32	RC	1	0	02VD 02VO 02VC 02MD 02MO 09MC 02RD 02RO	1	0	0.499580144882	345.0	356.0	92	14	0
2.7	2015_Jun_05_1105	s	s	18	5	SIC	33	RC	0	2	02VD 02VO 02VC 02MD 02MO 02MC 09RD 02RO	1	0	0.729403972626	-540.0	122.0	-205	215	0
2.7	2015_Jun_05_1105	s	s	18	5	SIC	34	RC	2	1	02VD 09VO 02VC 02MD 02MO 02MC 02RD 02RO	1	0	0.729479074478	-181.0	189.0	-177	186	1
2.7	2015_Jun_05_1105	s	s	18	5	SIC	35	RC	0	1	02VD 02VO 02VC 02MD 02MO 02MC 02RD 09RO	1	0	1.33610486984	-540.0	-187.0	-478	380	0
2.7	2015_Jun_05_1105	s	s	18	5	SIC	36	ABS	1	1	02VD 02VO 02VC 02MD 10MO 02MC 02RD 02RO	1	0	0.771219968796	None	None	-507	3	0
2.7	2015_Jun_05_1105	s	s	18	5	SIC	37	ABS	2	2	10VD 02VO 02VC 02MD 02MO 02MC 02RD 02RO	1	0	1.2314081192	None	None	-373	-27	0
2.7	2015_Jun_05_1105	s	s	18	5	SIC	38	ABS	1	2	02VD 02VO 02VC 10MD 02MO 02MC 02RD 02RO	1	0	1.76138091087	None	None	254	196	0
2.7	2015_Jun_05_1105	s	s	18	5	SIC	39	ABS	0	2	02VD 02VO 02VC 02MD 02MO 02MC 10RD 02RO	1	0	0.855790138245	None	None	-352	1	0
2.7	2015_Jun_05_1105	s	s	18	5	SIC	40	ABS	2	0	02VD 02VO 10VC 02MD 02MO 02MC 02RD 02RO	1	0	0.819183826447	None	None	-380	378	0
2.7	2015_Jun_05_1105	s	s	18	5	SIC	41	ABS	1	0	02VD 02VO 02VC 02MD 02MO 10MC 02RD 02RO	1	0	0.776221990585	None	None	-125	158	0
2.7	2015_Jun_05_1105	s	s	18	5	SIC	42	RC	1	1	02VD 02VO 02VC 02MD 09MO 02MC 02RD 02RO	1	0	1.61755013466	-292.0	-183.0	-11	-365	0
2.7	2015_Jun_05_1105	s	s	18	5	SIC	43	RC	2	2	09VD 02VO 02VC 02MD 02MO 02MC 02RD 02RO	1	0	1.10576200485	-494.0	225.0	85	362	0
2.7	2015_Jun_05_1105	s	s	18	5	SIC	44	RC	1	0	02VD 02VO 02VC 02MD 02MO 09MC 02RD 02RO	1	0	1.07047700882	317.0	-195.0	-202	-51	0
2.7	2015_Jun_05_1105	s	s	18	5	SIC	45	RC	1	2	02VD 02VO 02VC 09MD 02MO 02MC 02RD 02RO	1	0	0.941069126129	-440.0	-411.0	-371	-74	0
2.7	2015_Jun_05_1105	s	s	18	5	SIC	46	RC	2	0	02VD 02VO 09VC 02MD 02MO 02MC 02RD 02RO	1	0	0.670391082764	188.0	-59.0	186	-55	1
2.7	2015_Jun_05_1105	s	s	18	5	SIC	47	ABS	2	1	02VD 10VO 02VC 02MD 02MO 02MC 02RD 02RO	1	0	1.32944297791	None	None	-488	-207	0
2.7	2015_Jun_05_1105	s	s	18	5	SIC	48	ABS	0	1	02VD 02VO 02VC 02MD 02MO 02MC 02RD 10RO	1	0	1.29065608978	None	None	-297	382	0
2.7	2015_Jun_05_1105	s	s	18	5	SIC	49	RC	0	1	02VD 02VO 02VC 02MD 02MO 02MC 02RD 09RO	1	0	0.67910194397	144.0	-48.0	42	150	0
2.7	2015_Jun_05_1105	s	s	18	5	SIC	50	ABS	1	1	02VD 02VO 02VC 02MD 10MO 02MC 02RD 02RO	1	0	1.00654411316	None	None	147	365	0
2.7	2015_Jun_05_1105	s	s	18	5	SIC	51	ABS	0	2	02VD 02VO 02VC 02MD 02MO 02MC 10RD 02RO	1	0	1.81818413734	None	None	232	-45	0
2.7	2015_Jun_05_1105	s	s	18	5	SIC	52	ABS	2	0	02VD 02VO 10VC 02MD 02MO 02MC 02RD 02RO	1	0	0.724301099777	None	None	351	128	0
2.7	2015_Jun_05_1105	s	s	18	5	SIC	53	RC	2	1	02VD 09VO 02VC 02MD 02MO 02MC 02RD 02RO	1	0	0.535716772079	63.0	12.0	71	17	1
2.7	2015_Jun_05_1105	s	s	18	5	SIC	54	RC	1	1	02VD 02VO 02VC 02MD 09MO 02MC 02RD 02RO	1	0	1.1175391674	-289.0	-29.0	-280	-32	1
2.7	2015_Jun_05_1105	s	s	18	5	SIC	55	ABS	1	2	02VD 02VO 02VC 10MD 02MO 02MC 02RD 02RO	1	0	0.415011882782	None	None	-293	-34	0
2.7	2015_Jun_05_1105	s	s	18	5	SIC	56	ABS	1	0	02VD 02VO 02VC 02MD 02MO 10MC 02RD 02RO	1	0	0.634968042374	None	None	-113	242	0
2.7	2015_Jun_05_1105	s	s	18	5	SIC	57	RC	0	2	02VD 02VO 02VC 02MD 02MO 02MC 09RD 02RO	1	0	1.19997501373	-457.0	195.0	-451	194	1
2.7	2015_Jun_05_1105	s	s	18	5	SIC	58	RC	1	0	02VD 02VO 02VC 02MD 02MO 09MC 02RD 02RO	1	0	0.740785121918	-187.0	-130.0	-296	337	0
2.7	2015_Jun_05_1105	s	s	18	5	SIC	59	ABS	2	2	10VD 02VO 02VC 02MD 02MO 02MC 02RD 02RO	1	0	1.31297397614	None	None	272	154	0
2.7	2015_Jun_05_1105	s	s	18	5	SIC	60	RC	2	2	09VD 02VO 02VC 02MD 02MO 02MC 02RD 02RO	1	0	1.33620500565	473.0	234.0	472	227	1
2.7	2015_Jun_05_1105	s	s	18	5	SIC	61	ABS	0	1	02VD 02VO 02VC 02MD 02MO 02MC 02RD 10RO	1	0	4.39604496956	None	None	-297	-314	0
2.7	2015_Jun_05_1105	s	s	18	5	SIC	62	ABS	2	1	02VD 10VO 02VC 02MD 02MO 02MC 02RD 02RO	1	0	0.834944963455	None	None	-47	324	0
2.7	2015_Jun_05_1105	s	s	18	5	SIC	63	RC	1	2	02VD 02VO 02VC 09MD 02MO 02MC 02RD 02RO	1	0	0.843528032303	215.0	325.0	216	326	1
2.7	2015_Jun_05_1105	s	s	18	5	SIC	64	RC	2	0	02VD 02VO 09VC 02MD 02MO 02MC 02RD 02RO	1	0	2.49203586578	452.0	-317.0	-260	21	0
2.7	2015_Jun_05_1105	s	s	18	5	SIC	65	RC	0	2	02VD 02VO 02VC 02MD 02MO 02MC 09RD 02RO	1	0	0.820618152618	163.0	174.0	163	177	1
2.7	2015_Jun_05_1105	s	s	18	5	SIC	66	RC	2	1	02VD 09VO 02VC 02MD 02MO 02MC 02RD 02RO	1	0	0.771827936172	47.0	252.0	54	251	1
2.7	2015_Jun_05_1105	s	s	18	5	SIC	67	RC	1	0	02VD 02VO 02VC 02MD 02MO 09MC 02RD 02RO	1	0	0.643378019333	-51.0	245.0	46	77	0
2.7	2015_Jun_05_1105	s	s	18	5	SIC	68	ABS	2	2	10VD 02VO 02VC 02MD 02MO 02MC 02RD 02RO	1	0	0.903414011002	None	None	-356	300	0
2.7	2015_Jun_05_1105	s	s	18	5	SIC	69	ABS	0	1	02VD 02VO 02VC 02MD 02MO 02MC 02RD 10RO	1	0	0.596936941147	None	None	-141	133	0
2.7	2015_Jun_05_1105	s	s	18	5	SIC	70	ABS	2	1	02VD 10VO 02VC 02MD 02MO 02MC 02RD 02RO	1	0	1.64728593826	None	None	-513	340	0
2.7	2015_Jun_05_1105	s	s	18	5	SIC	71	ABS	1	1	02VD 02VO 02VC 02MD 10MO 02MC 02RD 02RO	1	0	1.73798394203	None	None	-199	-318	0
2.7	2015_Jun_05_1105	s	s	18	5	SIC	72	ABS	1	2	02VD 02VO 02VC 10MD 02MO 02MC 02RD 02RO	1	0	0.523023843765	None	None	-51	-88	0
2.7	2015_Jun_05_1105	s	s	18	5	SIC	73	RC	1	1	02VD 02VO 02VC 02MD 09MO 02MC 02RD 02RO	1	0	2.60710692406	-246.0	-178.0	-89	-377	0
2.7	2015_Jun_05_1105	s	s	18	5	SIC	74	RC	1	2	02VD 02VO 02VC 09MD 02MO 02MC 02RD 02RO	1	0	1.75874090195	-375.0	-186.0	289	-360	0
2.7	2015_Jun_05_1105	s	s	18	5	SIC	75	RC	2	2	09VD 02VO 02VC 02MD 02MO 02MC 02RD 02RO	1	0	0.576273918152	-200.0	112.0	-194	111	1
2.7	2015_Jun_05_1105	s	s	18	5	SIC	76	RC	2	0	02VD 02VO 09VC 02MD 02MO 02MC 02RD 02RO	1	0	0.729099035263	-1.0	181.0	0	182	1
2.7	2015_Jun_05_1105	s	s	18	5	SIC	77	RC	0	1	02VD 02VO 02VC 02MD 02MO 02MC 02RD 09RO	1	0	1.91792798042	150.0	-399.0	155	-405	1
2.7	2015_Jun_05_1105	s	s	18	5	SIC	78	ABS	2	0	02VD 02VO 10VC 02MD 02MO 02MC 02RD 02RO	1	0	0.949676036835	None	None	47	-73	0
2.7	2015_Jun_05_1105	s	s	18	5	SIC	79	ABS	1	0	02VD 02VO 02VC 02MD 02MO 10MC 02RD 02RO	1	0	0.488704919815	None	None	-28	94	0
2.7	2015_Jun_05_1105	s	s	18	5	SIC	80	ABS	0	2	02VD 02VO 02VC 02MD 02MO 02MC 10RD 02RO	1	0	0.776223897934	None	None	264	97	0
2.7	2015_Jun_05_1105	s	s	18	5	SIC	81	RC	1	2	02VD 02VO 02VC 09MD 02MO 02MC 02RD 02RO	1	0	0.526382923126	-67.0	-167.0	-63	-170	1
2.7	2015_Jun_05_1105	s	s	18	5	SIC	82	ABS	2	1	02VD 10VO 02VC 02MD 02MO 02MC 02RD 02RO	1	0	0.830197095871	None	None	169	-354	0
2.7	2015_Jun_05_1105	s	s	18	5	SIC	83	RC	0	1	02VD 02VO 02VC 02MD 02MO 02MC 02RD 09RO	1	0	1.52613210678	-446.0	15.0	-278	-379	0
2.7	2015_Jun_05_1105	s	s	18	5	SIC	84	ABS	1	0	02VD 02VO 02VC 02MD 02MO 10MC 02RD 02RO	1	0	0.618317127228	None	None	-160	141	0
2.7	2015_Jun_05_1105	s	s	18	5	SIC	85	RC	1	0	02VD 02VO 02VC 02MD 02MO 09MC 02RD 02RO	1	0	0.700212955475	449.0	24.0	-38	-48	0
2.7	2015_Jun_05_1105	s	s	18	5	SIC	86	ABS	0	1	02VD 02VO 02VC 02MD 02MO 02MC 02RD 10RO	1	0	1.04689788818	None	None	-195	10	0
2.7	2015_Jun_05_1105	s	s	18	5	SIC	87	ABS	2	2	10VD 02VO 02VC 02MD 02MO 02MC 02RD 02RO	1	0	0.502820968628	None	None	-166	57	0
2.7	2015_Jun_05_1105	s	s	18	5	SIC	88	ABS	1	2	02VD 02VO 02VC 10MD 02MO 02MC 02RD 02RO	1	0	0.747210979462	None	None	43	201	0
2.7	2015_Jun_05_1105	s	s	18	5	SIC	89	RC	2	1	02VD 09VO 02VC 02MD 02MO 02MC 02RD 02RO	1	0	0.788311958313	-324.0	102.0	-320	100	1
2.7	2015_Jun_05_1105	s	s	18	5	SIC	90	ABS	2	0	02VD 02VO 10VC 02MD 02MO 02MC 02RD 02RO	1	0	1.04698014259	None	None	-313	-287	0
2.7	2015_Jun_05_1105	s	s	18	5	SIC	91	ABS	0	2	02VD 02VO 02VC 02MD 02MO 02MC 10RD 02RO	1	0	1.12578105927	None	None	-298	-254	0
2.7	2015_Jun_05_1105	s	s	18	5	SIC	92	RC	0	2	02VD 02VO 02VC 02MD 02MO 02MC 09RD 02RO	1	0	0.481900930405	491.0	-268.0	-61	-7	0
2.7	2015_Jun_05_1105	s	s	18	5	SIC	93	ABS	1	1	02VD 02VO 02VC 02MD 10MO 02MC 02RD 02RO	1	0	1.48853707314	None	None	271	183	0
2.7	2015_Jun_05_1105	s	s	18	5	SIC	94	RC	2	2	09VD 02VO 02VC 02MD 02MO 02MC 02RD 02RO	1	0	0.823726892471	288.0	83.0	285	83	1
2.7	2015_Jun_05_1105	s	s	18	5	SIC	95	RC	1	1	02VD 02VO 02VC 02MD 09MO 02MC 02RD 02RO	1	0	0.987982988358	-217.0	-298.0	120	386	0
2.7	2015_Jun_05_1105	s	s	18	5	SIC	96	RC	2	0	02VD 02VO 09VC 02MD 02MO 02MC 02RD 02RO	1	0	1.34858107567	-500.0	-291.0	30	312	0
2.7	2015_Jun_05_1105	s	s	18	5	SIC	97	RC	0	1	02VD 02VO 02VC 02MD 02MO 02MC 02RD 09RO	1	0	0.594454050064	432.0	275.0	440	270	1
2.7	2015_Jun_05_1105	s	s	18	5	SIC	98	ABS	2	2	10VD 02VO 02VC 02MD 02MO 02MC 02RD 02RO	1	0	0.853587865829	None	None	-194	35	0
2.7	2015_Jun_05_1105	s	s	18	5	SIC	99	ABS	0	1	02VD 02VO 02VC 02MD 02MO 02MC 02RD 10RO	1	0	2.99510979652	None	None	467	-117	0
2.7	2015_Jun_05_1105	s	s	18	5	SIC	100	ABS	1	2	02VD 02VO 02VC 10MD 02MO 02MC 02RD 02RO	1	0	0.690207958221	None	None	-239	64	0
2.7	2015_Jun_05_1105	s	s	18	5	SIC	101	RC	1	2	02VD 02VO 02VC 09MD 02MO 02MC 02RD 02RO	1	0	0.575985193253	58.0	70.0	58	73	1
2.7	2015_Jun_05_1105	s	s	18	5	SIC	102	RC	2	1	02VD 09VO 02VC 02MD 02MO 02MC 02RD 02RO	1	0	1.0917069912	-254.0	-44.0	-263	-43	1
2.7	2015_Jun_05_1105	s	s	18	5	SIC	103	RC	2	0	02VD 02VO 09VC 02MD 02MO 02MC 02RD 02RO	1	0	0.581872940063	216.0	244.0	212	246	1
2.7	2015_Jun_05_1105	s	s	18	5	SIC	104	RC	0	2	02VD 02VO 02VC 02MD 02MO 02MC 09RD 02RO	1	0	1.10581612587	247.0	394.0	221	-197	0
2.7	2015_Jun_05_1105	s	s	18	5	SIC	105	ABS	1	0	02VD 02VO 02VC 02MD 02MO 10MC 02RD 02RO	1	0	0.846836090088	None	None	-30	305	0
2.7	2015_Jun_05_1105	s	s	18	5	SIC	106	ABS	0	2	02VD 02VO 02VC 02MD 02MO 02MC 10RD 02RO	1	0	0.759801864624	None	None	-81	288	0
2.7	2015_Jun_05_1105	s	s	18	5	SIC	107	ABS	2	0	02VD 02VO 10VC 02MD 02MO 02MC 02RD 02RO	1	0	0.894356012344	None	None	158	402	0
2.7	2015_Jun_05_1105	s	s	18	5	SIC	108	ABS	1	1	02VD 02VO 02VC 02MD 10MO 02MC 02RD 02RO	1	0	0.514644861221	None	None	145	161	0
2.7	2015_Jun_05_1105	s	s	18	5	SIC	109	RC	2	2	09VD 02VO 02VC 02MD 02MO 02MC 02RD 02RO	1	0	0.854820013046	-207.0	-406.0	313	-169	0
2.7	2015_Jun_05_1105	s	s	18	5	SIC	110	ABS	2	1	02VD 10VO 02VC 02MD 02MO 02MC 02RD 02RO	1	0	0.705672979355	None	None	-64	106	0
2.7	2015_Jun_05_1105	s	s	18	5	SIC	111	RC	1	0	02VD 02VO 02VC 02MD 02MO 09MC 02RD 02RO	1	0	0.464455842972	175.0	-245.0	11	109	0
2.7	2015_Jun_05_1105	s	s	18	5	SIC	112	RC	1	1	02VD 02VO 02VC 02MD 09MO 02MC 02RD 02RO	1	0	0.752693891525	-51.0	266.0	-48	259	1
2.7	2015_Jun_05_1105	s	s	18	5	SIC	113	ABS	1	1	02VD 02VO 02VC 02MD 10MO 02MC 02RD 02RO	1	0	1.43535494804	None	None	-261	265	0
2.7	2015_Jun_05_1105	s	s	18	5	SIC	114	RC	2	2	09VD 02VO 02VC 02MD 02MO 02MC 02RD 02RO	1	0	0.499742984772	-3.0	2.0	-10	8	1
2.7	2015_Jun_05_1105	s	s	18	5	SIC	115	RC	2	1	02VD 09VO 02VC 02MD 02MO 02MC 02RD 02RO	1	0	0.844220876694	-508.0	-316.0	-188	307	0
2.7	2015_Jun_05_1105	s	s	18	5	SIC	116	ABS	2	2	10VD 02VO 02VC 02MD 02MO 02MC 02RD 02RO	1	0	0.517166852951	None	None	150	-33	0
2.7	2015_Jun_05_1105	s	s	18	5	SIC	117	ABS	1	0	02VD 02VO 02VC 02MD 02MO 10MC 02RD 02RO	1	0	0.733070850372	None	None	-74	37	0
2.7	2015_Jun_05_1105	s	s	18	5	SIC	118	ABS	0	1	02VD 02VO 02VC 02MD 02MO 02MC 02RD 10RO	1	0	1.43534994125	None	None	347	-292	0
2.7	2015_Jun_05_1105	s	s	18	5	SIC	119	RC	2	0	02VD 02VO 09VC 02MD 02MO 02MC 02RD 02RO	1	0	0.478793859482	4.0	-15.0	-2	-19	1
2.7	2015_Jun_05_1105	s	s	18	5	SIC	120	RC	1	0	02VD 02VO 02VC 02MD 02MO 09MC 02RD 02RO	1	0	1.05869913101	60.0	-235.0	62	-250	1
2.7	2015_Jun_05_1105	s	s	18	5	SIC	121	ABS	2	1	02VD 10VO 02VC 02MD 02MO 02MC 02RD 02RO	1	0	1.23083686829	None	None	-340	195	0
2.7	2015_Jun_05_1105	s	s	18	5	SIC	122	ABS	0	2	02VD 02VO 02VC 02MD 02MO 02MC 10RD 02RO	1	0	3.56573796272	None	None	-470	283	0
2.7	2015_Jun_05_1105	s	s	18	5	SIC	123	ABS	1	2	02VD 02VO 02VC 10MD 02MO 02MC 02RD 02RO	1	0	1.16456198692	None	None	197	-15	0
2.7	2015_Jun_05_1105	s	s	18	5	SIC	124	RC	0	2	02VD 02VO 02VC 02MD 02MO 02MC 09RD 02RO	1	0	1.84155201912	-277.0	346.0	-281	346	1
2.7	2015_Jun_05_1105	s	s	18	5	SIC	125	RC	1	1	02VD 02VO 02VC 02MD 09MO 02MC 02RD 02RO	1	0	0.552561044693	-88.0	168.0	-82	160	1
2.7	2015_Jun_05_1105	s	s	18	5	SIC	126	ABS	2	0	02VD 02VO 10VC 02MD 02MO 02MC 02RD 02RO	1	0	1.40929508209	None	None	-495	2	0
2.7	2015_Jun_05_1105	s	s	18	5	SIC	127	RC	1	2	02VD 02VO 02VC 09MD 02MO 02MC 02RD 02RO	1	0	0.681969881058	-142.0	-265.0	-246	244	0
2.7	2015_Jun_05_1105	s	s	18	5	SIC	128	RC	0	1	02VD 02VO 02VC 02MD 02MO 02MC 02RD 09RO	1	0	0.855898141861	298.0	98.0	-309	213	0
2.7	2015_Jun_05_1105	s	s	18	5	SIC	129	RC	0	1	02VD 02VO 02VC 02MD 02MO 02MC 02RD 09RO	1	0	1.18822598457	-103.0	-361.0	302	225	0
2.7	2015_Jun_05_1105	s	s	18	5	SIC	130	ABS	1	2	02VD 02VO 02VC 10MD 02MO 02MC 02RD 02RO	1	0	1.20790696144	None	None	261	232	0
2.7	2015_Jun_05_1105	s	s	18	5	SIC	131	ABS	2	0	02VD 02VO 10VC 02MD 02MO 02MC 02RD 02RO	1	0	1.78463602066	None	None	-169	374	0
2.7	2015_Jun_05_1105	s	s	18	5	SIC	132	RC	1	0	02VD 02VO 02VC 02MD 02MO 09MC 02RD 02RO	1	0	0.865569829941	-196.0	20.0	110	170	0
2.7	2015_Jun_05_1105	s	s	18	5	SIC	133	ABS	1	0	02VD 02VO 02VC 02MD 02MO 10MC 02RD 02RO	1	0	1.41782808304	None	None	-111	291	0
2.7	2015_Jun_05_1105	s	s	18	5	SIC	134	ABS	2	1	02VD 10VO 02VC 02MD 02MO 02MC 02RD 02RO	1	0	0.618180036545	None	None	-76	349	0
2.7	2015_Jun_05_1105	s	s	18	5	SIC	135	RC	2	0	02VD 02VO 09VC 02MD 02MO 02MC 02RD 02RO	1	0	0.725783109665	464.0	393.0	466	391	1
2.7	2015_Jun_05_1105	s	s	18	5	SIC	136	RC	1	2	02VD 02VO 02VC 09MD 02MO 02MC 02RD 02RO	1	0	0.911852836609	225.0	406.0	387	-244	0
2.7	2015_Jun_05_1105	s	s	18	5	SIC	137	RC	2	2	09VD 02VO 02VC 02MD 02MO 02MC 02RD 02RO	1	0	0.929120063782	-299.0	177.0	50	-245	0
2.7	2015_Jun_05_1105	s	s	18	5	SIC	138	RC	1	1	02VD 02VO 02VC 02MD 09MO 02MC 02RD 02RO	1	0	1.16456389427	-22.0	-244.0	-23	-239	1
2.7	2015_Jun_05_1105	s	s	18	5	SIC	139	ABS	2	2	10VD 02VO 02VC 02MD 02MO 02MC 02RD 02RO	1	0	0.526122093201	None	None	-85	-31	0
2.7	2015_Jun_05_1105	s	s	18	5	SIC	140	RC	0	2	02VD 02VO 02VC 02MD 02MO 02MC 09RD 02RO	1	0	0.772902965546	-532.0	148.0	-306	116	0
2.7	2015_Jun_05_1105	s	s	18	5	SIC	141	ABS	0	2	02VD 02VO 02VC 02MD 02MO 02MC 10RD 02RO	1	0	0.640119075775	None	None	188	149	0
2.7	2015_Jun_05_1105	s	s	18	5	SIC	142	ABS	0	1	02VD 02VO 02VC 02MD 02MO 02MC 02RD 10RO	1	0	1.69440293312	None	None	427	147	0
2.7	2015_Jun_05_1105	s	s	18	5	SIC	143	RC	2	1	02VD 09VO 02VC 02MD 02MO 02MC 02RD 02RO	1	0	1.04404401779	47.0	-362.0	48	-363	1
2.7	2015_Jun_05_1105	s	s	18	5	SIC	144	ABS	1	1	02VD 02VO 02VC 02MD 10MO 02MC 02RD 02RO	1	0	1.22003293037	None	None	-348	47	0
2.7	2015_Jun_05_1105	s	s	18	5	SIC	145	RC	1	2	02VD 02VO 02VC 09MD 02MO 02MC 02RD 02RO	1	0	0.99725484848	134.0	-19.0	126	-23	1
2.7	2015_Jun_05_1105	s	s	18	5	SIC	146	RC	2	0	02VD 02VO 09VC 02MD 02MO 02MC 02RD 02RO	1	0	1.44044518471	374.0	-75.0	379	-75	1
2.7	2015_Jun_05_1105	s	s	18	5	SIC	147	ABS	2	0	02VD 02VO 10VC 02MD 02MO 02MC 02RD 02RO	1	0	2.25939798355	None	None	-113	224	0
2.7	2015_Jun_05_1105	s	s	18	5	SIC	148	ABS	0	1	02VD 02VO 02VC 02MD 02MO 02MC 02RD 10RO	1	0	1.9270529747	None	None	437	-370	0
2.7	2015_Jun_05_1105	s	s	18	5	SIC	149	ABS	1	2	02VD 02VO 02VC 10MD 02MO 02MC 02RD 02RO	1	0	1.30041193962	None	None	-295	-313	0
2.7	2015_Jun_05_1105	s	s	18	5	SIC	150	ABS	2	2	10VD 02VO 02VC 02MD 02MO 02MC 02RD 02RO	1	0	0.956836938858	None	None	314	-183	0
2.7	2015_Jun_05_1105	s	s	18	5	SIC	151	RC	2	1	02VD 09VO 02VC 02MD 02MO 02MC 02RD 02RO	1	0	0.490254163742	-219.0	81.0	-69	9	0
2.7	2015_Jun_05_1105	s	s	18	5	SIC	152	ABS	1	0	02VD 02VO 02VC 02MD 02MO 10MC 02RD 02RO	1	0	0.835010051727	None	None	-319	162	0
2.7	2015_Jun_05_1105	s	s	18	5	SIC	153	RC	1	1	02VD 02VO 02VC 02MD 09MO 02MC 02RD 02RO	1	0	0.571067094803	-98.0	12.0	-92	11	1
2.7	2015_Jun_05_1105	s	s	18	5	SIC	154	RC	0	2	02VD 02VO 02VC 02MD 02MO 02MC 09RD 02RO	1	0	1.64106202126	114.0	278.0	-372	93	0
2.7	2015_Jun_05_1105	s	s	18	5	SIC	155	RC	1	0	02VD 02VO 02VC 02MD 02MO 09MC 02RD 02RO	1	0	1.09386181831	-386.0	-312.0	-518	126	0
2.7	2015_Jun_05_1105	s	s	18	5	SIC	156	RC	0	1	02VD 02VO 02VC 02MD 02MO 02MC 02RD 09RO	1	0	0.491197109222	-218.0	164.0	-221	168	1
2.7	2015_Jun_05_1105	s	s	18	5	SIC	157	ABS	2	1	02VD 10VO 02VC 02MD 02MO 02MC 02RD 02RO	1	0	1.15913891792	None	None	212	240	0
2.7	2015_Jun_05_1105	s	s	18	5	SIC	158	ABS	1	1	02VD 02VO 02VC 02MD 10MO 02MC 02RD 02RO	1	0	0.850630998611	None	None	-45	-392	0
2.7	2015_Jun_05_1105	s	s	18	5	SIC	159	RC	2	2	09VD 02VO 02VC 02MD 02MO 02MC 02RD 02RO	1	0	0.679279088974	131.0	337.0	128	72	0
2.7	2015_Jun_05_1105	s	s	18	5	SIC	160	ABS	0	2	02VD 02VO 02VC 02MD 02MO 02MC 10RD 02RO	1	0	1.07041501999	None	None	324	-278	0
2.7	2015_Jun_05_1105	s	s	18	5	SIC	161	RC	2	0	02VD 02VO 09VC 02MD 02MO 02MC 02RD 02RO	1	0	0.846846103668	-31.0	154.0	-29	150	1
2.7	2015_Jun_05_1105	s	s	18	5	SIC	162	RC	0	1	02VD 02VO 02VC 02MD 02MO 02MC 02RD 09RO	1	0	0.595995187759	195.0	123.0	-8	99	0
2.7	2015_Jun_05_1105	s	s	18	5	SIC	163	RC	1	1	02VD 02VO 02VC 02MD 09MO 02MC 02RD 02RO	1	0	1.7766828537	-465.0	-348.0	-465	-349	1
2.7	2015_Jun_05_1105	s	s	18	5	SIC	164	RC	0	2	02VD 02VO 02VC 02MD 02MO 02MC 09RD 02RO	1	0	0.599537134171	-187.0	-282.0	46	-41	0
2.7	2015_Jun_05_1105	s	s	18	5	SIC	165	RC	1	0	02VD 02VO 02VC 02MD 02MO 09MC 02RD 02RO	1	0	0.529006004333	187.0	148.0	69	-173	0
2.7	2015_Jun_05_1105	s	s	18	5	SIC	166	RC	2	1	02VD 09VO 02VC 02MD 02MO 02MC 02RD 02RO	1	0	0.588338136673	255.0	352.0	160	-94	0
2.7	2015_Jun_05_1105	s	s	18	5	SIC	167	ABS	1	1	02VD 02VO 02VC 02MD 10MO 02MC 02RD 02RO	1	0	0.737178087234	None	None	-264	169	0
2.7	2015_Jun_05_1105	s	s	18	5	SIC	168	ABS	1	0	02VD 02VO 02VC 02MD 02MO 10MC 02RD 02RO	1	0	0.785347938538	None	None	32	119	0
2.7	2015_Jun_05_1105	s	s	18	5	SIC	169	RC	2	2	09VD 02VO 02VC 02MD 02MO 02MC 02RD 02RO	1	0	0.567957878113	45.0	279.0	43	275	1
2.7	2015_Jun_05_1105	s	s	18	5	SIC	170	RC	1	2	02VD 02VO 02VC 09MD 02MO 02MC 02RD 02RO	1	0	0.514065027237	-453.0	-259.0	52	-201	0
2.7	2015_Jun_05_1105	s	s	18	5	SIC	171	ABS	2	2	10VD 02VO 02VC 02MD 02MO 02MC 02RD 02RO	1	0	0.488780021667	None	None	72	-121	0
2.7	2015_Jun_05_1105	s	s	18	5	SIC	172	ABS	1	2	02VD 02VO 02VC 10MD 02MO 02MC 02RD 02RO	1	0	0.537900924683	None	None	251	-196	0
2.7	2015_Jun_05_1105	s	s	18	5	SIC	173	ABS	2	0	02VD 02VO 10VC 02MD 02MO 02MC 02RD 02RO	1	0	0.513866901398	None	None	153	-178	0
2.7	2015_Jun_05_1105	s	s	18	5	SIC	174	ABS	0	1	02VD 02VO 02VC 02MD 02MO 02MC 02RD 10RO	1	0	0.582581996918	None	None	184	-404	0
2.7	2015_Jun_05_1105	s	s	18	5	SIC	175	ABS	2	1	02VD 10VO 02VC 02MD 02MO 02MC 02RD 02RO	1	0	0.490744829178	None	None	-93	264	0
2.7	2015_Jun_05_1105	s	s	18	5	SIC	176	ABS	0	2	02VD 02VO 02VC 02MD 02MO 02MC 10RD 02RO	1	0	0.540843963623	None	None	2	45	0
2.7	2015_Jun_05_1105	s	s	18	5	SIC	177	ABS	1	2	02VD 02VO 02VC 10MD 02MO 02MC 02RD 02RO	1	0	0.664603948593	None	None	-57	-123	0
2.7	2015_Jun_05_1105	s	s	18	5	SIC	178	ABS	0	2	02VD 02VO 02VC 02MD 02MO 02MC 10RD 02RO	1	0	0.693879127502	None	None	-116	-195	0
2.7	2015_Jun_05_1105	s	s	18	5	SIC	179	RC	2	0	02VD 02VO 09VC 02MD 02MO 02MC 02RD 02RO	1	0	0.761819124222	486.0	-208.0	-17	-321	0
2.7	2015_Jun_05_1105	s	s	18	5	SIC	180	RC	1	1	02VD 02VO 02VC 02MD 09MO 02MC 02RD 02RO	1	0	0.631762981415	-414.0	96.0	-100	-139	0
2.7	2015_Jun_05_1105	s	s	18	5	SIC	181	RC	1	2	02VD 02VO 02VC 09MD 02MO 02MC 02RD 02RO	1	0	0.702395915985	-143.0	-343.0	-128	-2	0
2.7	2015_Jun_05_1105	s	s	18	5	SIC	182	RC	0	1	02VD 02VO 02VC 02MD 02MO 02MC 02RD 09RO	1	0	0.443956851959	262.0	-126.0	-18	-231	0
2.7	2015_Jun_05_1105	s	s	18	5	SIC	183	ABS	1	1	02VD 02VO 02VC 02MD 10MO 02MC 02RD 02RO	1	0	0.535635948181	None	None	-192	-279	0
2.7	2015_Jun_05_1105	s	s	18	5	SIC	184	ABS	2	0	02VD 02VO 10VC 02MD 02MO 02MC 02RD 02RO	1	0	1.7647330761	None	None	36	254	0
2.7	2015_Jun_05_1105	s	s	18	5	SIC	185	RC	0	2	02VD 02VO 02VC 02MD 02MO 02MC 09RD 02RO	1	0	0.876291036606	324.0	339.0	137	-220	0
2.7	2015_Jun_05_1105	s	s	18	5	SIC	186	ABS	2	2	10VD 02VO 02VC 02MD 02MO 02MC 02RD 02RO	1	0	0.576066017151	None	None	11	38	0
2.7	2015_Jun_05_1105	s	s	18	5	SIC	187	ABS	1	0	02VD 02VO 02VC 02MD 02MO 10MC 02RD 02RO	1	0	0.584622144699	None	None	12	-230	0
2.7	2015_Jun_05_1105	s	s	18	5	SIC	188	ABS	0	1	02VD 02VO 02VC 02MD 02MO 02MC 02RD 10RO	1	0	0.500512123108	None	None	81	97	0
2.7	2015_Jun_05_1105	s	s	18	5	SIC	189	RC	2	1	02VD 09VO 02VC 02MD 02MO 02MC 02RD 02RO	1	0	0.750305891037	539.0	217.0	251	-198	0
2.7	2015_Jun_05_1105	s	s	18	5	SIC	190	ABS	2	1	02VD 10VO 02VC 02MD 02MO 02MC 02RD 02RO	1	0	0.888131856918	None	None	308	-234	0
2.7	2015_Jun_05_1105	s	s	18	5	SIC	191	RC	1	0	02VD 02VO 02VC 02MD 02MO 09MC 02RD 02RO	1	0	0.552510976791	91.0	-302.0	-81	118	0
2.7	2015_Jun_05_1105	s	s	18	5	SIC	192	RC	2	2	09VD 02VO 02VC 02MD 02MO 02MC 02RD 02RO	1	0	0.547873973846	463.0	-26.0	5	45	0
2.7	2015_Jun_05_1105	s	s	18	5	SIC	193	ABS	1	2	02VD 02VO 02VC 10MD 02MO 02MC 02RD 02RO	1	0	0.42305803299	None	None	29	-15	0
2.7	2015_Jun_05_1105	s	s	18	5	SIC	194	ABS	2	0	02VD 02VO 10VC 02MD 02MO 02MC 02RD 02RO	1	0	0.745552062988	None	None	-36	212	0
2.7	2015_Jun_05_1105	s	s	18	5	SIC	195	ABS	0	2	02VD 02VO 02VC 02MD 02MO 02MC 10RD 02RO	1	0	0.500880002975	None	None	-506	223	0
2.7	2015_Jun_05_1105	s	s	18	5	SIC	196	RC	1	2	02VD 02VO 02VC 09MD 02MO 02MC 02RD 02RO	1	0	0.723791122437	128.0	-276.0	-411	340	0
2.7	2015_Jun_05_1105	s	s	18	5	SIC	197	ABS	1	0	02VD 02VO 02VC 02MD 02MO 10MC 02RD 02RO	1	0	0.713096857071	None	None	127	33	0
2.7	2015_Jun_05_1105	s	s	18	5	SIC	198	RC	2	2	09VD 02VO 02VC 02MD 02MO 02MC 02RD 02RO	1	0	0.92111992836	-22.0	-229.0	-21	-227	1
2.7	2015_Jun_05_1105	s	s	18	5	SIC	199	RC	0	2	02VD 02VO 02VC 02MD 02MO 02MC 09RD 02RO	1	0	1.1619989872	-495.0	191.0	-506	196	1
2.7	2015_Jun_05_1105	s	s	18	5	SIC	200	ABS	0	1	02VD 02VO 02VC 02MD 02MO 02MC 02RD 10RO	1	0	0.528965950012	None	None	147	67	0
2.7	2015_Jun_05_1105	s	s	18	5	SIC	201	RC	2	0	02VD 02VO 09VC 02MD 02MO 02MC 02RD 02RO	1	0	0.923095941544	255.0	70.0	246	66	1
2.7	2015_Jun_05_1105	s	s	18	5	SIC	202	RC	1	0	02VD 02VO 02VC 02MD 02MO 09MC 02RD 02RO	1	0	0.583420038223	468.0	-271.0	-49	-16	0
2.7	2015_Jun_05_1105	s	s	18	5	SIC	203	RC	0	1	02VD 02VO 02VC 02MD 02MO 02MC 02RD 09RO	1	0	1.10581803322	61.0	-116.0	54	-112	1
2.7	2015_Jun_05_1105	s	s	18	5	SIC	204	ABS	2	2	10VD 02VO 02VC 02MD 02MO 02MC 02RD 02RO	1	0	0.876418828964	None	None	-196	-229	0
2.7	2015_Jun_05_1105	s	s	18	5	SIC	205	RC	1	1	02VD 02VO 02VC 02MD 09MO 02MC 02RD 02RO	1	0	0.799734830856	-21.0	-323.0	-24	-320	1
2.7	2015_Jun_05_1105	s	s	18	5	SIC	206	RC	2	1	02VD 09VO 02VC 02MD 02MO 02MC 02RD 02RO	1	0	0.808104038239	-136.0	-206.0	-128	-200	1
2.7	2015_Jun_05_1105	s	s	18	5	SIC	207	ABS	1	1	02VD 02VO 02VC 02MD 10MO 02MC 02RD 02RO	1	0	1.43533301353	None	None	-257	-4	0
2.7	2015_Jun_05_1105	s	s	18	5	SIC	208	ABS	2	1	02VD 10VO 02VC 02MD 02MO 02MC 02RD 02RO	1	0	0.724046945572	None	None	-148	-271	0
2.7	2015_Jun_05_1105	s	s	18	5	SIC	209	RC	2	1	02VD 09VO 02VC 02MD 02MO 02MC 02RD 02RO	1	0	0.805840015411	-179.0	-180.0	-125	-50	0
2.7	2015_Jun_05_1105	s	s	18	5	SIC	210	ABS	0	1	02VD 02VO 02VC 02MD 02MO 02MC 02RD 10RO	1	0	3.22446417809	None	None	187	-354	0
2.7	2015_Jun_05_1105	s	s	18	5	SIC	211	ABS	2	0	02VD 02VO 10VC 02MD 02MO 02MC 02RD 02RO	1	0	0.926546096802	None	None	285	258	0
2.7	2015_Jun_05_1105	s	s	18	5	SIC	212	RC	2	0	02VD 02VO 09VC 02MD 02MO 02MC 02RD 02RO	1	0	0.714621067047	-246.0	305.0	-85	-72	0
2.7	2015_Jun_05_1105	s	s	18	5	SIC	213	ABS	2	1	02VD 10VO 02VC 02MD 02MO 02MC 02RD 02RO	1	0	2.04129600525	None	None	210	-57	0
2.7	2015_Jun_05_1105	s	s	18	5	SIC	214	RC	1	2	02VD 02VO 02VC 09MD 02MO 02MC 02RD 02RO	1	0	1.65323185921	-504.0	60.0	-502	60	1
2.7	2015_Jun_05_1105	s	s	18	5	SIC	215	ABS	1	2	02VD 02VO 02VC 10MD 02MO 02MC 02RD 02RO	1	0	0.722478866577	None	None	341	-282	0
2.7	2015_Jun_05_1105	s	s	18	5	SIC	216	RC	2	2	09VD 02VO 02VC 02MD 02MO 02MC 02RD 02RO	1	0	0.523439884186	-186.0	-153.0	-20	-81	0
2.7	2015_Jun_05_1105	s	s	18	5	SIC	217	ABS	1	0	02VD 02VO 02VC 02MD 02MO 10MC 02RD 02RO	1	0	0.529029846191	None	None	-19	-18	0
2.7	2015_Jun_05_1105	s	s	18	5	SIC	218	ABS	2	2	10VD 02VO 02VC 02MD 02MO 02MC 02RD 02RO	1	0	1.0529229641	None	None	211	190	0
2.7	2015_Jun_05_1105	s	s	18	5	SIC	219	RC	0	1	02VD 02VO 02VC 02MD 02MO 02MC 02RD 09RO	1	0	0.988180160522	-304.0	-200.0	-304	-207	1
2.7	2015_Jun_05_1105	s	s	18	5	SIC	220	RC	1	1	02VD 02VO 02VC 02MD 09MO 02MC 02RD 02RO	1	0	0.693778038025	428.0	-172.0	-80	-96	0
2.7	2015_Jun_05_1105	s	s	18	5	SIC	221	RC	1	0	02VD 02VO 02VC 02MD 02MO 09MC 02RD 02RO	1	0	0.835002183914	-315.0	-77.0	-247	-267	0
2.7	2015_Jun_05_1105	s	s	18	5	SIC	222	RC	0	2	02VD 02VO 02VC 02MD 02MO 02MC 09RD 02RO	1	0	1.04093289375	116.0	244.0	116	239	1
2.7	2015_Jun_05_1105	s	s	18	5	SIC	223	ABS	1	1	02VD 02VO 02VC 02MD 10MO 02MC 02RD 02RO	1	0	1.14119505882	None	None	98	257	0
2.7	2015_Jun_05_1105	s	s	18	5	SIC	224	ABS	0	2	02VD 02VO 02VC 02MD 02MO 02MC 10RD 02RO	1	0	1.09120392799	None	None	-31	179	0
2.7	2015_Jun_05_1105	s	s	18	5	SIC	225	RC	1	0	02VD 02VO 02VC 02MD 02MO 09MC 02RD 02RO	1	0	0.608237028122	81.0	-229.0	-66	150	0
2.7	2015_Jun_05_1105	s	s	18	5	SIC	226	ABS	1	1	02VD 02VO 02VC 02MD 10MO 02MC 02RD 02RO	1	0	1.61807012558	None	None	418	410	0
2.7	2015_Jun_05_1105	s	s	18	5	SIC	227	ABS	0	1	02VD 02VO 02VC 02MD 02MO 02MC 02RD 10RO	1	0	2.10650897026	None	None	483	229	0
2.7	2015_Jun_05_1105	s	s	18	5	SIC	228	RC	2	2	09VD 02VO 02VC 02MD 02MO 02MC 02RD 02RO	1	0	0.917412996292	-522.0	113.0	-143	216	0
2.7	2015_Jun_05_1105	s	s	18	5	SIC	229	ABS	2	1	02VD 10VO 02VC 02MD 02MO 02MC 02RD 02RO	1	0	0.91422700882	None	None	-321	162	0
2.7	2015_Jun_05_1105	s	s	18	5	SIC	230	RC	0	2	02VD 02VO 02VC 02MD 02MO 02MC 09RD 02RO	1	0	1.03233194351	325.0	162.0	77	307	0
2.7	2015_Jun_05_1105	s	s	18	5	SIC	231	ABS	0	2	02VD 02VO 02VC 02MD 02MO 02MC 10RD 02RO	1	0	0.564280033112	None	None	182	106	0
2.7	2015_Jun_05_1105	s	s	18	5	SIC	232	RC	2	0	02VD 02VO 09VC 02MD 02MO 02MC 02RD 02RO	1	0	1.117882967	-263.0	282.0	-263	278	1
2.7	2015_Jun_05_1105	s	s	18	5	SIC	233	ABS	2	2	10VD 02VO 02VC 02MD 02MO 02MC 02RD 02RO	1	0	1.17632508278	None	None	-292	413	0
2.7	2015_Jun_05_1105	s	s	18	5	SIC	234	RC	2	1	02VD 09VO 02VC 02MD 02MO 02MC 02RD 02RO	1	0	1.38243198395	-91.0	-205.0	-90	-210	1
2.7	2015_Jun_05_1105	s	s	18	5	SIC	235	ABS	2	0	02VD 02VO 10VC 02MD 02MO 02MC 02RD 02RO	1	0	2.47098898888	None	None	-301	-236	0
2.7	2015_Jun_05_1105	s	s	18	5	SIC	236	RC	1	2	02VD 02VO 02VC 09MD 02MO 02MC 02RD 02RO	1	0	0.846841812134	-287.0	244.0	-287	246	1
2.7	2015_Jun_05_1105	s	s	18	5	SIC	237	ABS	1	0	02VD 02VO 02VC 02MD 02MO 10MC 02RD 02RO	1	0	0.493741989136	None	None	5	22	0
2.7	2015_Jun_05_1105	s	s	18	5	SIC	238	RC	0	1	02VD 02VO 02VC 02MD 02MO 02MC 02RD 09RO	1	0	0.737363815308	-23.0	-164.0	-23	-158	1
2.7	2015_Jun_05_1105	s	s	18	5	SIC	239	ABS	1	2	02VD 02VO 02VC 10MD 02MO 02MC 02RD 02RO	1	0	0.823369979858	None	None	-292	-110	0
2.7	2015_Jun_05_1105	s	s	18	5	SIC	240	RC	1	1	02VD 02VO 02VC 02MD 09MO 02MC 02RD 02RO	1	0	0.52894115448	-60.0	71.0	-65	72	1
2.7	2015_Jun_05_1105	s	s	18	5	SIC	241	ABS	2	0	02VD 02VO 10VC 02MD 02MO 02MC 02RD 02RO	1	0	2.27108192444	None	None	-382	370	0
2.7	2015_Jun_05_1105	s	s	18	5	SIC	242	RC	1	0	02VD 02VO 02VC 02MD 02MO 09MC 02RD 02RO	1	0	0.556258916855	-247.0	241.0	-130	-11	0
2.7	2015_Jun_05_1105	s	s	18	5	SIC	243	ABS	2	1	02VD 10VO 02VC 02MD 02MO 02MC 02RD 02RO	1	0	1.45529294014	None	None	503	-22	0
2.7	2015_Jun_05_1105	s	s	18	5	SIC	244	ABS	2	2	10VD 02VO 02VC 02MD 02MO 02MC 02RD 02RO	1	0	1.72955107689	None	None	-409	-38	0
2.7	2015_Jun_05_1105	s	s	18	5	SIC	245	ABS	1	0	02VD 02VO 02VC 02MD 02MO 10MC 02RD 02RO	1	0	0.547394037247	None	None	-32	-76	0
2.7	2015_Jun_05_1105	s	s	18	5	SIC	246	ABS	0	1	02VD 02VO 02VC 02MD 02MO 02MC 02RD 10RO	1	0	6.10492396355	None	None	533	404	0
2.7	2015_Jun_05_1105	s	s	18	5	SIC	247	RC	2	2	09VD 02VO 02VC 02MD 02MO 02MC 02RD 02RO	1	0	0.717358112335	295.0	-137.0	288	-143	1
2.7	2015_Jun_05_1105	s	s	18	5	SIC	248	ABS	0	2	02VD 02VO 02VC 02MD 02MO 02MC 10RD 02RO	1	0	0.806569099426	None	None	73	266	0
2.7	2015_Jun_05_1105	s	s	18	5	SIC	249	ABS	1	2	02VD 02VO 02VC 10MD 02MO 02MC 02RD 02RO	1	0	0.997133970261	None	None	-367	178	0
2.7	2015_Jun_05_1105	s	s	18	5	SIC	250	RC	2	1	02VD 09VO 02VC 02MD 02MO 02MC 02RD 02RO	1	0	0.701800107956	176.0	-115.0	186	-116	1
2.7	2015_Jun_05_1105	s	s	18	5	SIC	251	ABS	1	1	02VD 02VO 02VC 02MD 10MO 02MC 02RD 02RO	1	0	0.688927173615	None	None	-110	13	0
2.7	2015_Jun_05_1105	s	s	18	5	SIC	252	RC	2	0	02VD 02VO 09VC 02MD 02MO 02MC 02RD 02RO	1	0	0.455537080765	-309.0	-72.0	3	15	0
2.7	2015_Jun_05_1105	s	s	18	5	SIC	253	RC	1	1	02VD 02VO 02VC 02MD 09MO 02MC 02RD 02RO	1	0	0.396908998489	-451.0	203.0	110	5	0
2.7	2015_Jun_05_1105	s	s	18	5	SIC	254	RC	0	1	02VD 02VO 02VC 02MD 02MO 02MC 02RD 09RO	1	0	0.512099981308	-24.0	141.0	-26	138	1
2.7	2015_Jun_05_1105	s	s	18	5	SIC	255	RC	0	2	02VD 02VO 02VC 02MD 02MO 02MC 09RD 02RO	1	0	0.376440048218	341.0	313.0	-127	5	0
2.7	2015_Jun_05_1105	s	s	18	5	SIC	256	RC	1	2	02VD 02VO 02VC 09MD 02MO 02MC 02RD 02RO	1	0	0.712331056595	450.0	217.0	118	258	0
2.7	2015_Jun_05_1105	s	s	18	5	SIC	257	RC	0	1	02VD 02VO 02VC 02MD 02MO 02MC 02RD 09RO	1	0	0.581836223602	-220.0	-98.0	-225	-91	1
2.7	2015_Jun_05_1105	s	s	18	5	SIC	258	ABS	1	1	02VD 02VO 02VC 02MD 10MO 02MC 02RD 02RO	1	0	0.465219020844	None	None	108	47	0
2.7	2015_Jun_05_1105	s	s	18	5	SIC	259	RC	1	1	02VD 02VO 02VC 02MD 09MO 02MC 02RD 02RO	1	0	0.912078857422	-53.0	263.0	-47	265	1
2.7	2015_Jun_05_1105	s	s	18	5	SIC	260	RC	2	0	02VD 02VO 09VC 02MD 02MO 02MC 02RD 02RO	1	0	0.705605983734	273.0	265.0	285	270	1
2.7	2015_Jun_05_1105	s	s	18	5	SIC	261	ABS	2	1	02VD 10VO 02VC 02MD 02MO 02MC 02RD 02RO	1	0	1.27057695389	None	None	-191	321	0
2.7	2015_Jun_05_1105	s	s	18	5	SIC	262	ABS	0	2	02VD 02VO 02VC 02MD 02MO 02MC 10RD 02RO	1	0	0.717582941055	None	None	-135	282	0
2.7	2015_Jun_05_1105	s	s	18	5	SIC	263	ABS	2	2	10VD 02VO 02VC 02MD 02MO 02MC 02RD 02RO	1	0	0.702922821045	None	None	81	298	0
2.7	2015_Jun_05_1105	s	s	18	5	SIC	264	RC	1	0	02VD 02VO 02VC 02MD 02MO 09MC 02RD 02RO	1	0	0.865274190903	223.0	-268.0	168	153	0
2.7	2015_Jun_05_1105	s	s	18	5	SIC	265	ABS	1	0	02VD 02VO 02VC 02MD 02MO 10MC 02RD 02RO	1	0	0.476686000824	None	None	-20	59	0
2.7	2015_Jun_05_1105	s	s	18	5	SIC	266	RC	2	1	02VD 09VO 02VC 02MD 02MO 02MC 02RD 02RO	1	0	1.14109802246	-158.0	362.0	-159	363	1
2.7	2015_Jun_05_1105	s	s	18	5	SIC	267	RC	1	2	02VD 02VO 02VC 09MD 02MO 02MC 02RD 02RO	1	0	0.729200124741	107.0	325.0	105	323	1
2.7	2015_Jun_05_1105	s	s	18	5	SIC	268	ABS	0	1	02VD 02VO 02VC 02MD 02MO 02MC 02RD 10RO	1	0	0.929171085358	None	None	-233	191	0
2.7	2015_Jun_05_1105	s	s	18	5	SIC	269	ABS	1	2	02VD 02VO 02VC 10MD 02MO 02MC 02RD 02RO	1	0	1.0821211338	None	None	341	266	0
2.7	2015_Jun_05_1105	s	s	18	5	SIC	270	RC	2	2	09VD 02VO 02VC 02MD 02MO 02MC 02RD 02RO	1	0	1.04416680336	-430.0	-392.0	-8	235	0
2.7	2015_Jun_05_1105	s	s	18	5	SIC	271	ABS	2	0	02VD 02VO 10VC 02MD 02MO 02MC 02RD 02RO	1	0	1.06511211395	None	None	311	3	0
2.7	2015_Jun_05_1105	s	s	18	5	SIC	272	RC	0	2	02VD 02VO 02VC 02MD 02MO 02MC 09RD 02RO	1	0	0.670401096344	51.0	219.0	61	93	0
2.7	2015_Jun_05_1105	s	s	18	5	SIC	273	ABS	1	2	02VD 02VO 02VC 10MD 02MO 02MC 02RD 02RO	1	0	0.446686029434	None	None	188	-18	0
2.7	2015_Jun_05_1105	s	s	18	5	SIC	274	RC	2	2	09VD 02VO 02VC 02MD 02MO 02MC 02RD 02RO	1	0	0.682121992111	372.0	-75.0	381	-76	1
2.7	2015_Jun_05_1105	s	s	18	5	SIC	275	RC	0	1	02VD 02VO 02VC 02MD 02MO 02MC 02RD 09RO	1	0	1.60019898415	-362.0	331.0	-364	328	1
2.7	2015_Jun_05_1105	s	s	18	5	SIC	276	ABS	1	0	02VD 02VO 02VC 02MD 02MO 10MC 02RD 02RO	1	0	1.14112591743	None	None	-284	164	0
2.7	2015_Jun_05_1105	s	s	18	5	SIC	277	ABS	1	1	02VD 02VO 02VC 02MD 10MO 02MC 02RD 02RO	1	0	1.10111403465	None	None	76	266	0
2.7	2015_Jun_05_1105	s	s	18	5	SIC	278	ABS	2	2	10VD 02VO 02VC 02MD 02MO 02MC 02RD 02RO	1	0	1.1057870388	None	None	-326	352	0
2.7	2015_Jun_05_1105	s	s	18	5	SIC	279	RC	1	2	02VD 02VO 02VC 09MD 02MO 02MC 02RD 02RO	1	0	1.61992192268	-270.0	-232.0	-268	-243	1
2.7	2015_Jun_05_1105	s	s	18	5	SIC	280	RC	2	1	02VD 09VO 02VC 02MD 02MO 02MC 02RD 02RO	1	0	1.00026798248	367.0	96.0	369	95	1
2.7	2015_Jun_05_1105	s	s	18	5	SIC	281	RC	1	0	02VD 02VO 02VC 02MD 02MO 09MC 02RD 02RO	1	0	0.893803119659	-354.0	35.0	-358	23	1
2.7	2015_Jun_05_1105	s	s	18	5	SIC	282	RC	0	2	02VD 02VO 02VC 02MD 02MO 02MC 09RD 02RO	1	0	1.4234662056	245.0	88.0	255	88	1
2.7	2015_Jun_05_1105	s	s	18	5	SIC	283	RC	2	0	02VD 02VO 09VC 02MD 02MO 02MC 02RD 02RO	1	0	0.858659982681	432.0	-305.0	197	-4	0
2.7	2015_Jun_05_1105	s	s	18	5	SIC	284	ABS	2	1	02VD 10VO 02VC 02MD 02MO 02MC 02RD 02RO	1	0	2.27116799355	None	None	339	-385	0
2.7	2015_Jun_05_1105	s	s	18	5	SIC	285	RC	1	1	02VD 02VO 02VC 02MD 09MO 02MC 02RD 02RO	1	0	1.08226799965	107.0	174.0	100	174	1
2.7	2015_Jun_05_1105	s	s	18	5	SIC	286	ABS	2	0	02VD 02VO 10VC 02MD 02MO 02MC 02RD 02RO	1	0	0.700730085373	None	None	298	128	0
2.7	2015_Jun_05_1105	s	s	18	5	SIC	287	ABS	0	1	02VD 02VO 02VC 02MD 02MO 02MC 02RD 10RO	1	0	0.961777925491	None	None	-111	241	0
2.7	2015_Jun_05_1105	s	s	18	5	SIC	288	ABS	0	2	02VD 02VO 02VC 02MD 02MO 02MC 10RD 02RO	1	0	0.693809986115	None	None	314	-14	0
2.7	2015_Jun_05_1105	s	s	18	5	SIC	289	ABS	2	0	02VD 02VO 10VC 02MD 02MO 02MC 02RD 02RO	1	0	1.3239979744	None	None	434	68	0
2.7	2015_Jun_05_1105	s	s	18	5	SIC	290	RC	1	0	02VD 02VO 02VC 02MD 02MO 09MC 02RD 02RO	1	0	0.737478971481	-525.0	-20.0	231	211	0
2.7	2015_Jun_05_1105	s	s	18	5	SIC	291	RC	2	0	02VD 02VO 09VC 02MD 02MO 02MC 02RD 02RO	1	0	0.654623985291	-239.0	72.0	-231	72	1
2.7	2015_Jun_05_1105	s	s	18	5	SIC	292	RC	1	1	02VD 02VO 02VC 02MD 09MO 02MC 02RD 02RO	1	0	0.705901145935	-309.0	326.0	-303	331	1
2.7	2015_Jun_05_1105	s	s	18	5	SIC	293	ABS	2	1	02VD 10VO 02VC 02MD 02MO 02MC 02RD 02RO	1	0	1.75306510925	None	None	-266	-256	0
2.7	2015_Jun_05_1105	s	s	18	5	SIC	294	RC	1	2	02VD 02VO 02VC 09MD 02MO 02MC 02RD 02RO	1	0	1.04352283478	-63.0	378.0	-59	382	1
2.7	2015_Jun_05_1105	s	s	18	5	SIC	295	RC	0	2	02VD 02VO 02VC 02MD 02MO 02MC 09RD 02RO	1	0	0.714720010757	158.0	113.0	-162	-32	0
2.7	2015_Jun_05_1105	s	s	18	5	SIC	296	ABS	0	1	02VD 02VO 02VC 02MD 02MO 02MC 02RD 10RO	1	0	1.73862910271	None	None	-70	-203	0
2.7	2015_Jun_05_1105	s	s	18	5	SIC	297	ABS	2	2	10VD 02VO 02VC 02MD 02MO 02MC 02RD 02RO	1	0	1.29405593872	None	None	411	-11	0
2.7	2015_Jun_05_1105	s	s	18	5	SIC	298	ABS	0	2	02VD 02VO 02VC 02MD 02MO 02MC 10RD 02RO	1	0	1.53638792038	None	None	207	-410	0
2.7	2015_Jun_05_1105	s	s	18	5	SIC	299	RC	0	1	02VD 02VO 02VC 02MD 02MO 02MC 02RD 09RO	1	0	0.623120069504	57.0	-366.0	-254	19	0
2.7	2015_Jun_05_1105	s	s	18	5	SIC	300	RC	2	2	09VD 02VO 02VC 02MD 02MO 02MC 02RD 02RO	1	0	0.529014825821	-356.0	298.0	-186	-1	0
2.7	2015_Jun_05_1105	s	s	18	5	SIC	301	ABS	1	2	02VD 02VO 02VC 10MD 02MO 02MC 02RD 02RO	1	0	0.58349108696	None	None	-32	-176	0
2.7	2015_Jun_05_1105	s	s	18	5	SIC	302	ABS	1	1	02VD 02VO 02VC 02MD 10MO 02MC 02RD 02RO	1	0	0.655001878738	None	None	-2	327	0
2.7	2015_Jun_05_1105	s	s	18	5	SIC	303	ABS	1	0	02VD 02VO 02VC 02MD 02MO 10MC 02RD 02RO	1	0	0.458318948746	None	None	-75	-49	0
2.7	2015_Jun_05_1105	s	s	18	5	SIC	304	RC	2	1	02VD 09VO 02VC 02MD 02MO 02MC 02RD 02RO	1	0	0.882093906403	38.0	-186.0	45	-187	1
2.7	2015_Jun_05_1105	s	s	18	5	SIC	305	ABS	1	0	02VD 02VO 02VC 02MD 02MO 10MC 02RD 02RO	1	0	0.61497592926	None	None	-65	-83	0
2.7	2015_Jun_05_1105	s	s	18	5	SIC	306	ABS	0	1	02VD 02VO 02VC 02MD 02MO 02MC 02RD 10RO	1	0	2.05921602249	None	None	200	-345	0
2.7	2015_Jun_05_1105	s	s	18	5	SIC	307	ABS	2	0	02VD 02VO 10VC 02MD 02MO 02MC 02RD 02RO	1	0	0.606602907181	None	None	-43	22	0
2.7	2015_Jun_05_1105	s	s	18	5	SIC	308	ABS	1	1	02VD 02VO 02VC 02MD 10MO 02MC 02RD 02RO	1	0	0.68209195137	None	None	-46	217	0
2.7	2015_Jun_05_1105	s	s	18	5	SIC	309	ABS	2	1	02VD 10VO 02VC 02MD 02MO 02MC 02RD 02RO	1	0	0.77632021904	None	None	-347	-93	0
2.7	2015_Jun_05_1105	s	s	18	5	SIC	310	ABS	2	2	10VD 02VO 02VC 02MD 02MO 02MC 02RD 02RO	1	0	0.702809810638	None	None	204	20	0
2.7	2015_Jun_05_1105	s	s	18	5	SIC	311	RC	0	2	02VD 02VO 02VC 02MD 02MO 02MC 09RD 02RO	1	0	0.564218044281	326.0	380.0	37	98	0
2.7	2015_Jun_05_1105	s	s	18	5	SIC	312	RC	0	1	02VD 02VO 02VC 02MD 02MO 02MC 02RD 09RO	1	0	1.3362660408	-524.0	-289.0	236	-253	0
2.7	2015_Jun_05_1105	s	s	18	5	SIC	313	RC	2	2	09VD 02VO 02VC 02MD 02MO 02MC 02RD 02RO	1	0	0.682005882263	166.0	112.0	159	108	1
2.7	2015_Jun_05_1105	s	s	18	5	SIC	314	RC	2	1	02VD 09VO 02VC 02MD 02MO 02MC 02RD 02RO	1	0	0.561871051788	157.0	242.0	-55	-86	0
2.7	2015_Jun_05_1105	s	s	18	5	SIC	315	RC	1	1	02VD 02VO 02VC 02MD 09MO 02MC 02RD 02RO	1	0	0.913558959961	-293.0	25.0	208	169	0
2.7	2015_Jun_05_1105	s	s	18	5	SIC	316	ABS	0	2	02VD 02VO 02VC 02MD 02MO 02MC 10RD 02RO	1	0	1.48609685898	None	None	423	-140	0
2.7	2015_Jun_05_1105	s	s	18	5	SIC	317	RC	1	0	02VD 02VO 02VC 02MD 02MO 09MC 02RD 02RO	1	0	0.842351913452	145.0	371.0	-391	118	0
2.7	2015_Jun_05_1105	s	s	18	5	SIC	318	RC	1	2	02VD 02VO 02VC 09MD 02MO 02MC 02RD 02RO	1	0	0.807406187057	-110.0	-372.0	-195	-128	0
2.7	2015_Jun_05_1105	s	s	18	5	SIC	319	RC	2	0	02VD 02VO 09VC 02MD 02MO 02MC 02RD 02RO	1	0	0.693813085556	260.0	132.0	259	125	1
2.7	2015_Jun_05_1105	s	s	18	5	SIC	320	ABS	1	2	02VD 02VO 02VC 10MD 02MO 02MC 02RD 02RO	1	0	0.759778022766	None	None	392	9	0
2.7	2015_Jun_05_1105	s	s	18	5	SIC	321	ABS	1	0	02VD 02VO 02VC 02MD 02MO 10MC 02RD 02RO	1	0	0.536571979523	None	None	-128	57	0
2.7	2015_Jun_05_1105	s	s	18	5	SIC	322	RC	0	2	02VD 02VO 02VC 02MD 02MO 02MC 09RD 02RO	1	0	0.571491956711	120.0	127.0	117	125	1
2.7	2015_Jun_05_1105	s	s	18	5	SIC	323	ABS	2	2	10VD 02VO 02VC 02MD 02MO 02MC 02RD 02RO	1	0	0.623174905777	None	None	-39	-100	0
2.7	2015_Jun_05_1105	s	s	18	5	SIC	324	ABS	0	1	02VD 02VO 02VC 02MD 02MO 02MC 02RD 10RO	1	0	0.517235994339	None	None	-56	179	0
2.7	2015_Jun_05_1105	s	s	18	5	SIC	325	RC	2	2	09VD 02VO 02VC 02MD 02MO 02MC 02RD 02RO	1	0	0.478128910065	92.0	126.0	93	119	1
2.7	2015_Jun_05_1105	s	s	18	5	SIC	326	ABS	2	1	02VD 10VO 02VC 02MD 02MO 02MC 02RD 02RO	1	0	0.529083013535	None	None	143	30	0
2.7	2015_Jun_05_1105	s	s	18	5	SIC	327	ABS	2	0	02VD 02VO 10VC 02MD 02MO 02MC 02RD 02RO	1	0	0.912612915039	None	None	115	-201	0
2.7	2015_Jun_05_1105	s	s	18	5	SIC	328	RC	2	0	02VD 02VO 09VC 02MD 02MO 02MC 02RD 02RO	1	0	0.799779891968	298.0	128.0	306	127	1
2.7	2015_Jun_05_1105	s	s	18	5	SIC	329	RC	2	1	02VD 09VO 02VC 02MD 02MO 02MC 02RD 02RO	1	0	0.799695968628	320.0	-106.0	-44	-79	0
2.7	2015_Jun_05_1105	s	s	18	5	SIC	330	RC	1	0	02VD 02VO 02VC 02MD 02MO 09MC 02RD 02RO	1	0	0.658430099487	-104.0	-327.0	-39	84	0
2.7	2015_Jun_05_1105	s	s	18	5	SIC	331	ABS	0	2	02VD 02VO 02VC 02MD 02MO 02MC 10RD 02RO	1	0	0.65584397316	None	None	99	-161	0
2.7	2015_Jun_05_1105	s	s	18	5	SIC	332	RC	1	1	02VD 02VO 02VC 02MD 09MO 02MC 02RD 02RO	1	0	0.799726963043	-275.0	-91.0	17	-164	0
2.7	2015_Jun_05_1105	s	s	18	5	SIC	333	RC	1	2	02VD 02VO 02VC 09MD 02MO 02MC 02RD 02RO	1	0	0.526103019714	352.0	241.0	-20	26	0
2.7	2015_Jun_05_1105	s	s	18	5	SIC	334	ABS	1	1	02VD 02VO 02VC 02MD 10MO 02MC 02RD 02RO	1	0	0.599694013596	None	None	-91	163	0
2.7	2015_Jun_05_1105	s	s	18	5	SIC	335	ABS	1	2	02VD 02VO 02VC 10MD 02MO 02MC 02RD 02RO	1	0	0.478892803192	None	None	4	-87	0
2.7	2015_Jun_05_1105	s	s	18	5	SIC	336	RC	0	1	02VD 02VO 02VC 02MD 02MO 02MC 02RD 09RO	1	0	1.11745905876	455.0	-66.0	367	122	0
2.7	2015_Jun_05_1105	s	s	18	5	SIC	337	ABS	2	0	02VD 02VO 10VC 02MD 02MO 02MC 02RD 02RO	1	0	0.423094034195	None	None	-21	12	0
2.7	2015_Jun_05_1105	s	s	18	5	SIC	338	ABS	2	1	02VD 10VO 02VC 02MD 02MO 02MC 02RD 02RO	1	0	0.493658065796	None	None	-150	167	0
2.7	2015_Jun_05_1105	s	s	18	5	SIC	339	ABS	1	1	02VD 02VO 02VC 02MD 10MO 02MC 02RD 02RO	1	0	0.724252939224	None	None	4	-97	0
2.7	2015_Jun_05_1105	s	s	18	5	SIC	340	RC	2	2	09VD 02VO 02VC 02MD 02MO 02MC 02RD 02RO	1	0	1.24150896072	-207.0	369.0	-214	372	1
2.7	2015_Jun_05_1105	s	s	18	5	SIC	341	RC	2	1	02VD 09VO 02VC 02MD 02MO 02MC 02RD 02RO	1	0	0.838740825653	107.0	262.0	108	262	1
2.7	2015_Jun_05_1105	s	s	18	5	SIC	342	RC	0	1	02VD 02VO 02VC 02MD 02MO 02MC 02RD 09RO	1	0	1.55975317955	472.0	-304.0	-37	-114	0
2.7	2015_Jun_05_1105	s	s	18	5	SIC	343	ABS	1	0	02VD 02VO 02VC 02MD 02MO 10MC 02RD 02RO	1	0	0.665105104446	None	None	17	-308	0
2.7	2015_Jun_05_1105	s	s	18	5	SIC	344	RC	2	0	02VD 02VO 09VC 02MD 02MO 02MC 02RD 02RO	1	0	0.905616044998	-492.0	-156.0	241	9	0
2.7	2015_Jun_05_1105	s	s	18	5	SIC	345	RC	1	2	02VD 02VO 02VC 09MD 02MO 02MC 02RD 02RO	1	0	0.39945101738	-23.0	-3.0	-16	2	1
2.7	2015_Jun_05_1105	s	s	18	5	SIC	346	ABS	0	1	02VD 02VO 02VC 02MD 02MO 02MC 02RD 10RO	1	0	0.44128203392	None	None	-173	27	0
2.7	2015_Jun_05_1105	s	s	18	5	SIC	347	ABS	1	2	02VD 02VO 02VC 10MD 02MO 02MC 02RD 02RO	1	0	0.489852905273	None	None	221	236	0
2.7	2015_Jun_05_1105	s	s	18	5	SIC	348	ABS	2	2	10VD 02VO 02VC 02MD 02MO 02MC 02RD 02RO	1	0	0.665024995804	None	None	-361	371	0
2.7	2015_Jun_05_1105	s	s	18	5	SIC	349	RC	1	1	02VD 02VO 02VC 02MD 09MO 02MC 02RD 02RO	1	0	0.513194799423	-380.0	296.0	-193	218	0
2.7	2015_Jun_05_1105	s	s	18	5	SIC	350	RC	1	0	02VD 02VO 02VC 02MD 02MO 09MC 02RD 02RO	1	0	0.67032790184	-448.0	-197.0	81	222	0
2.7	2015_Jun_05_1105	s	s	18	5	SIC	351	RC	0	2	02VD 02VO 02VC 02MD 02MO 02MC 09RD 02RO	1	0	1.09407901764	405.0	-333.0	-410	372	0
2.7	2015_Jun_05_1105	s	s	18	5	SIC	352	ABS	0	2	02VD 02VO 02VC 02MD 02MO 02MC 10RD 02RO	1	0	0.823276042938	None	None	279	319	0
2.7	2015_Jun_05_1105	s	s	18	5	SIC	353	ABS	0	1	02VD 02VO 02VC 02MD 02MO 02MC 02RD 10RO	1	0	0.634896039963	None	None	-472	272	0
2.7	2015_Jun_05_1105	s	s	18	5	SIC	354	RC	2	2	09VD 02VO 02VC 02MD 02MO 02MC 02RD 02RO	1	0	0.799612998962	536.0	-375.0	0	-51	0
2.7	2015_Jun_05_1105	s	s	18	5	SIC	355	RC	0	1	02VD 02VO 02VC 02MD 02MO 02MC 02RD 09RO	1	0	2.05435299873	-408.0	-145.0	-415	-152	1
2.7	2015_Jun_05_1105	s	s	18	5	SIC	356	RC	1	0	02VD 02VO 02VC 02MD 02MO 09MC 02RD 02RO	1	0	0.420297145844	260.0	13.0	-20	13	0
2.7	2015_Jun_05_1105	s	s	18	5	SIC	357	ABS	2	0	02VD 02VO 10VC 02MD 02MO 02MC 02RD 02RO	1	0	1.36177492142	None	None	262	407	0
2.7	2015_Jun_05_1105	s	s	18	5	SIC	358	RC	2	0	02VD 02VO 09VC 02MD 02MO 02MC 02RD 02RO	1	0	0.784009218216	346.0	187.0	-261	181	0
2.7	2015_Jun_05_1105	s	s	18	5	SIC	359	ABS	2	1	02VD 10VO 02VC 02MD 02MO 02MC 02RD 02RO	1	0	0.868109941483	None	None	135	-109	0
2.7	2015_Jun_05_1105	s	s	18	5	SIC	360	ABS	0	2	02VD 02VO 02VC 02MD 02MO 02MC 10RD 02RO	1	0	0.71724820137	None	None	347	-32	0
2.7	2015_Jun_05_1105	s	s	18	5	SIC	361	RC	0	2	02VD 02VO 02VC 02MD 02MO 02MC 09RD 02RO	1	0	0.45062494278	16.0	51.0	12	41	1
2.7	2015_Jun_05_1105	s	s	18	5	SIC	362	ABS	1	1	02VD 02VO 02VC 02MD 10MO 02MC 02RD 02RO	1	0	0.666507005692	None	None	-17	-16	0
2.7	2015_Jun_05_1105	s	s	18	5	SIC	363	ABS	1	0	02VD 02VO 02VC 02MD 02MO 10MC 02RD 02RO	1	0	0.540821790695	None	None	102	-117	0
2.7	2015_Jun_05_1105	s	s	18	5	SIC	364	RC	1	1	02VD 02VO 02VC 02MD 09MO 02MC 02RD 02RO	1	0	1.4471590519	423.0	65.0	462	-120	0
2.7	2015_Jun_05_1105	s	s	18	5	SIC	365	RC	2	1	02VD 09VO 02VC 02MD 02MO 02MC 02RD 02RO	1	0	0.817972183228	-213.0	-97.0	-211	-105	1
2.7	2015_Jun_05_1105	s	s	18	5	SIC	366	ABS	2	2	10VD 02VO 02VC 02MD 02MO 02MC 02RD 02RO	1	0	0.547451019287	None	None	-87	-54	0
2.7	2015_Jun_05_1105	s	s	18	5	SIC	367	ABS	1	2	02VD 02VO 02VC 10MD 02MO 02MC 02RD 02RO	1	0	1.12936019897	None	None	-311	-194	0
2.7	2015_Jun_05_1105	s	s	18	5	SIC	368	RC	1	2	02VD 02VO 02VC 09MD 02MO 02MC 02RD 02RO	1	0	0.596921920776	-120.0	-32.0	-116	-32	1
2.7	2015_Jun_05_1105	s	s	18	5	SIC	369	ABS	1	0	02VD 02VO 02VC 02MD 02MO 10MC 02RD 02RO	1	0	0.714992046356	None	None	43	-2	0
2.7	2015_Jun_05_1105	s	s	18	5	SIC	370	RC	1	0	02VD 02VO 02VC 02MD 02MO 09MC 02RD 02RO	1	0	0.806669950485	-378.0	-256.0	23	252	0
2.7	2015_Jun_05_1105	s	s	18	5	SIC	371	RC	2	2	09VD 02VO 02VC 02MD 02MO 02MC 02RD 02RO	1	0	1.02981281281	113.0	-314.0	-252	241	0
2.7	2015_Jun_05_1105	s	s	18	5	SIC	372	ABS	1	1	02VD 02VO 02VC 02MD 10MO 02MC 02RD 02RO	1	0	2.22987699509	None	None	-407	-233	0
2.7	2015_Jun_05_1105	s	s	18	5	SIC	373	RC	0	1	02VD 02VO 02VC 02MD 02MO 02MC 02RD 09RO	1	0	1.07829999924	-6.0	370.0	170	-69	0
2.7	2015_Jun_05_1105	s	s	18	5	SIC	374	ABS	2	0	02VD 02VO 10VC 02MD 02MO 02MC 02RD 02RO	1	0	1.37082719803	None	None	-89	-38	0
2.7	2015_Jun_05_1105	s	s	18	5	SIC	375	ABS	0	2	02VD 02VO 02VC 02MD 02MO 02MC 10RD 02RO	1	0	1.11234807968	None	None	-266	249	0
2.7	2015_Jun_05_1105	s	s	18	5	SIC	376	ABS	2	1	02VD 10VO 02VC 02MD 02MO 02MC 02RD 02RO	1	0	1.5410490036	None	None	-314	-288	0
2.7	2015_Jun_05_1105	s	s	18	5	SIC	377	RC	0	2	02VD 02VO 02VC 02MD 02MO 02MC 09RD 02RO	1	0	1.63549685478	251.0	217.0	247	211	1
2.7	2015_Jun_05_1105	s	s	18	5	SIC	378	RC	1	2	02VD 02VO 02VC 09MD 02MO 02MC 02RD 02RO	1	0	1.4000620842	254.0	5.0	249	5	1
2.7	2015_Jun_05_1105	s	s	18	5	SIC	379	RC	1	1	02VD 02VO 02VC 02MD 09MO 02MC 02RD 02RO	1	0	0.999905109406	-531.0	-175.0	256	73	0
2.7	2015_Jun_05_1105	s	s	18	5	SIC	380	RC	2	0	02VD 02VO 09VC 02MD 02MO 02MC 02RD 02RO	1	0	1.05855894089	251.0	-304.0	430	-35	0
2.7	2015_Jun_05_1105	s	s	18	5	SIC	381	ABS	2	2	10VD 02VO 02VC 02MD 02MO 02MC 02RD 02RO	1	0	0.961852073669	None	None	-59	77	0
2.7	2015_Jun_05_1105	s	s	18	5	SIC	382	ABS	1	2	02VD 02VO 02VC 10MD 02MO 02MC 02RD 02RO	1	0	2.23295497894	None	None	532	-64	0
2.7	2015_Jun_05_1105	s	s	18	5	SIC	383	RC	2	1	02VD 09VO 02VC 02MD 02MO 02MC 02RD 02RO	1	0	0.759521007538	-143.0	14.0	-140	11	1
2.7	2015_Jun_05_1105	s	s	18	5	SIC	384	ABS	0	1	02VD 02VO 02VC 02MD 02MO 02MC 02RD 10RO	1	0	0.938015937805	None	None	-503	-13	0
2.7	2015_Jun_05_1105	s	s	18	5	SIC	385	RC	1	1	02VD 02VO 02VC 02MD 09MO 02MC 02RD 02RO	1	0	2.73013687134	-478.0	304.0	330	303	0
2.7	2015_Jun_05_1105	s	s	18	5	SIC	386	RC	0	2	02VD 02VO 02VC 02MD 02MO 02MC 09RD 02RO	1	0	1.36120200157	61.0	405.0	60	399	1
2.7	2015_Jun_05_1105	s	s	18	5	SIC	387	ABS	1	1	02VD 02VO 02VC 02MD 10MO 02MC 02RD 02RO	1	0	1.27053499222	None	None	77	63	0
2.7	2015_Jun_05_1105	s	s	18	5	SIC	388	RC	2	0	02VD 02VO 09VC 02MD 02MO 02MC 02RD 02RO	1	0	1.23053479195	-178.0	359.0	-169	360	1
2.7	2015_Jun_05_1105	s	s	18	5	SIC	389	RC	1	0	02VD 02VO 02VC 02MD 02MO 09MC 02RD 02RO	1	0	1.17131900787	-391.0	-267.0	-129	22	0
2.7	2015_Jun_05_1105	s	s	18	5	SIC	390	RC	2	2	09VD 02VO 02VC 02MD 02MO 02MC 02RD 02RO	1	0	2.23583388329	-183.0	82.0	-192	78	1
2.7	2015_Jun_05_1105	s	s	18	5	SIC	391	ABS	1	0	02VD 02VO 02VC 02MD 02MO 10MC 02RD 02RO	1	0	0.846739053726	None	None	95	-114	0
2.7	2015_Jun_05_1105	s	s	18	5	SIC	392	RC	2	1	02VD 09VO 02VC 02MD 02MO 02MC 02RD 02RO	1	0	0.5878469944	119.0	225.0	110	234	1
2.7	2015_Jun_05_1105	s	s	18	5	SIC	393	ABS	2	2	10VD 02VO 02VC 02MD 02MO 02MC 02RD 02RO	1	0	0.929281949997	None	None	511	157	0
2.7	2015_Jun_05_1105	s	s	18	5	SIC	394	ABS	2	0	02VD 02VO 10VC 02MD 02MO 02MC 02RD 02RO	1	0	0.714236021042	None	None	247	201	0
2.7	2015_Jun_05_1105	s	s	18	5	SIC	395	ABS	0	2	02VD 02VO 02VC 02MD 02MO 02MC 10RD 02RO	1	0	0.83868598938	None	None	-338	242	0
2.7	2015_Jun_05_1105	s	s	18	5	SIC	396	ABS	0	1	02VD 02VO 02VC 02MD 02MO 02MC 02RD 10RO	1	0	1.19518184662	None	None	-281	287	0
2.7	2015_Jun_05_1105	s	s	18	5	SIC	397	RC	0	1	02VD 02VO 02VC 02MD 02MO 02MC 02RD 09RO	1	0	1.59686899185	-510.0	223.0	-508	219	1
2.7	2015_Jun_05_1105	s	s	18	5	SIC	398	RC	1	2	02VD 02VO 02VC 09MD 02MO 02MC 02RD 02RO	1	0	0.842349052429	-59.0	117.0	-53	117	1
2.7	2015_Jun_05_1105	s	s	18	5	SIC	399	ABS	2	1	02VD 10VO 02VC 02MD 02MO 02MC 02RD 02RO	1	0	1.15043401718	None	None	-328	269	0
2.7	2015_Jun_05_1105	s	s	18	5	SIC	400	ABS	1	2	02VD 02VO 02VC 10MD 02MO 02MC 02RD 02RO	1	0	0.846910953522	None	None	1	-237	0
2.7	2015_Jun_05_1105	s	s	18	5	SIC	401	RC	2	2	09VD 02VO 02VC 02MD 02MO 02MC 02RD 02RO	1	0	0.585031986237	-382.0	410.0	113	-366	0
2.7	2015_Jun_05_1105	s	s	18	5	SIC	402	RC	2	1	02VD 09VO 02VC 02MD 02MO 02MC 02RD 02RO	1	0	1.17325782776	89.0	-27.0	-81	-172	0
2.7	2015_Jun_05_1105	s	s	18	5	SIC	403	RC	1	1	02VD 02VO 02VC 02MD 09MO 02MC 02RD 02RO	1	0	1.71779298782	418.0	64.0	-356	-86	0
2.7	2015_Jun_05_1105	s	s	18	5	SIC	404	ABS	0	2	02VD 02VO 02VC 02MD 02MO 02MC 10RD 02RO	1	0	0.749967813492	None	None	213	-110	0
2.7	2015_Jun_05_1105	s	s	18	5	SIC	405	ABS	2	0	02VD 02VO 10VC 02MD 02MO 02MC 02RD 02RO	1	0	1.465747118	None	None	-258	-260	0
2.7	2015_Jun_05_1105	s	s	18	5	SIC	406	ABS	1	1	02VD 02VO 02VC 02MD 10MO 02MC 02RD 02RO	1	0	2.24251413345	None	None	137	-283	0
2.7	2015_Jun_05_1105	s	s	18	5	SIC	407	ABS	1	2	02VD 02VO 02VC 10MD 02MO 02MC 02RD 02RO	1	0	1.51302194595	None	None	-119	-287	0
2.7	2015_Jun_05_1105	s	s	18	5	SIC	408	ABS	2	2	10VD 02VO 02VC 02MD 02MO 02MC 02RD 02RO	1	0	0.584758996964	None	None	84	119	0
2.7	2015_Jun_05_1105	s	s	18	5	SIC	409	ABS	0	1	02VD 02VO 02VC 02MD 02MO 02MC 02RD 10RO	1	0	3.14213085175	None	None	407	175	0
2.7	2015_Jun_05_1105	s	s	18	5	SIC	410	RC	1	2	02VD 02VO 02VC 09MD 02MO 02MC 02RD 02RO	1	0	0.947775840759	401.0	-136.0	401	-139	1
2.7	2015_Jun_05_1105	s	s	18	5	SIC	411	ABS	2	1	02VD 10VO 02VC 02MD 02MO 02MC 02RD 02RO	1	0	1.6826031208	None	None	-484	329	0
2.7	2015_Jun_05_1105	s	s	18	5	SIC	412	RC	0	1	02VD 02VO 02VC 02MD 02MO 02MC 02RD 09RO	1	0	2.12561607361	-305.0	53.0	-184	-351	0
2.7	2015_Jun_05_1105	s	s	18	5	SIC	413	ABS	1	0	02VD 02VO 02VC 02MD 02MO 10MC 02RD 02RO	1	0	0.50533914566	None	None	25	-163	0
2.7	2015_Jun_05_1105	s	s	18	5	SIC	414	RC	1	0	02VD 02VO 02VC 02MD 02MO 09MC 02RD 02RO	1	0	0.552561044693	98.0	368.0	122	73	0
2.7	2015_Jun_05_1105	s	s	18	5	SIC	415	RC	2	0	02VD 02VO 09VC 02MD 02MO 02MC 02RD 02RO	1	0	0.941595077515	462.0	230.0	465	226	1
2.7	2015_Jun_05_1105	s	s	18	5	SIC	416	RC	0	2	02VD 02VO 02VC 02MD 02MO 02MC 09RD 02RO	1	0	0.583363056183	-62.0	-412.0	118	-131	0
2.7	2015_Jun_05_1105	s	s	18	5	SIC	417	RC	0	2	02VD 02VO 02VC 02MD 02MO 02MC 09RD 02RO	1	0	0.752552032471	-245.0	93.0	-246	93	1
2.7	2015_Jun_05_1105	s	s	18	5	SIC	418	ABS	2	1	02VD 10VO 02VC 02MD 02MO 02MC 02RD 02RO	1	0	1.44204092026	None	None	-250	-410	0
2.7	2015_Jun_05_1105	s	s	18	5	SIC	419	ABS	2	2	10VD 02VO 02VC 02MD 02MO 02MC 02RD 02RO	1	0	0.599688053131	None	None	-263	6	0
2.7	2015_Jun_05_1105	s	s	18	5	SIC	420	ABS	2	0	02VD 02VO 10VC 02MD 02MO 02MC 02RD 02RO	1	0	0.858701944351	None	None	-9	-277	0
2.7	2015_Jun_05_1105	s	s	18	5	SIC	421	RC	2	0	02VD 02VO 09VC 02MD 02MO 02MC 02RD 02RO	1	0	0.846860170364	-189.0	332.0	-187	333	1
2.7	2015_Jun_05_1105	s	s	18	5	SIC	422	ABS	1	2	02VD 02VO 02VC 10MD 02MO 02MC 02RD 02RO	1	0	0.88214802742	None	None	-397	125	0
2.7	2015_Jun_05_1105	s	s	18	5	SIC	423	ABS	0	1	02VD 02VO 02VC 02MD 02MO 02MC 02RD 10RO	1	0	0.559758901596	None	None	-27	-10	0
2.7	2015_Jun_05_1105	s	s	18	5	SIC	424	RC	1	2	02VD 02VO 02VC 09MD 02MO 02MC 02RD 02RO	1	0	0.655827045441	-161.0	-291.0	-90	307	0
2.7	2015_Jun_05_1105	s	s	18	5	SIC	425	ABS	0	2	02VD 02VO 02VC 02MD 02MO 02MC 10RD 02RO	1	0	1.30066919327	None	None	-433	269	0
2.7	2015_Jun_05_1105	s	s	18	5	SIC	426	RC	2	1	02VD 09VO 02VC 02MD 02MO 02MC 02RD 02RO	1	0	0.629343032837	293.0	7.0	-111	104	0
2.7	2015_Jun_05_1105	s	s	18	5	SIC	427	RC	2	2	09VD 02VO 02VC 02MD 02MO 02MC 02RD 02RO	1	0	0.526290893555	-136.0	-361.0	-43	76	0
2.7	2015_Jun_05_1105	s	s	18	5	SIC	428	RC	1	1	02VD 02VO 02VC 02MD 09MO 02MC 02RD 02RO	1	0	0.502552032471	-314.0	400.0	-56	62	0
2.7	2015_Jun_05_1105	s	s	18	5	SIC	429	ABS	1	1	02VD 02VO 02VC 02MD 10MO 02MC 02RD 02RO	1	0	0.434788942337	None	None	0	-37	0
2.7	2015_Jun_05_1105	s	s	18	5	SIC	430	RC	0	1	02VD 02VO 02VC 02MD 02MO 02MC 02RD 09RO	1	0	1.81216716766	117.0	-331.0	242	-28	0
2.7	2015_Jun_05_1105	s	s	18	5	SIC	431	ABS	1	0	02VD 02VO 02VC 02MD 02MO 10MC 02RD 02RO	1	0	0.570852994919	None	None	116	-146	0
2.7	2015_Jun_05_1105	s	s	18	5	SIC	432	RC	1	0	02VD 02VO 02VC 02MD 02MO 09MC 02RD 02RO	1	0	0.540717840195	-111.0	42.0	175	15	0
2.7	2015_Jun_05_1105	s	s	18	5	SIC	433	RC	2	2	09VD 02VO 02VC 02MD 02MO 02MC 02RD 02RO	1	0	0.443964958191	45.0	37.0	55	37	1
2.7	2015_Jun_05_1105	s	s	18	5	SIC	434	RC	1	2	02VD 02VO 02VC 09MD 02MO 02MC 02RD 02RO	1	0	1.10277199745	-529.0	83.0	-524	78	1
2.7	2015_Jun_05_1105	s	s	18	5	SIC	435	RC	0	2	02VD 02VO 02VC 02MD 02MO 02MC 09RD 02RO	1	0	0.947910070419	153.0	-356.0	-297	-278	0
2.7	2015_Jun_05_1105	s	s	18	5	SIC	436	ABS	2	2	10VD 02VO 02VC 02MD 02MO 02MC 02RD 02RO	1	0	0.665073156357	None	None	-168	-97	0
2.7	2015_Jun_05_1105	s	s	18	5	SIC	437	ABS	0	2	02VD 02VO 02VC 02MD 02MO 02MC 10RD 02RO	1	0	0.736430168152	None	None	-74	174	0
2.7	2015_Jun_05_1105	s	s	18	5	SIC	438	ABS	0	1	02VD 02VO 02VC 02MD 02MO 02MC 02RD 10RO	1	0	1.12590718269	None	None	-64	408	0
2.7	2015_Jun_05_1105	s	s	18	5	SIC	439	RC	2	0	02VD 02VO 09VC 02MD 02MO 02MC 02RD 02RO	1	0	0.889079093933	522.0	105.0	262	84	0
2.7	2015_Jun_05_1105	s	s	18	5	SIC	440	RC	1	0	02VD 02VO 02VC 02MD 02MO 09MC 02RD 02RO	1	0	0.573513031006	249.0	-119.0	253	-122	1
2.7	2015_Jun_05_1105	s	s	18	5	SIC	441	ABS	2	1	02VD 10VO 02VC 02MD 02MO 02MC 02RD 02RO	1	0	0.399553060532	None	None	148	-91	0
2.7	2015_Jun_05_1105	s	s	18	5	SIC	442	RC	2	1	02VD 09VO 02VC 02MD 02MO 02MC 02RD 02RO	1	0	0.364300966263	-497.0	-120.0	64	-47	0
2.7	2015_Jun_05_1105	s	s	18	5	SIC	443	ABS	2	0	02VD 02VO 10VC 02MD 02MO 02MC 02RD 02RO	1	0	1.63059186935	None	None	452	-392	0
2.7	2015_Jun_05_1105	s	s	18	5	SIC	444	ABS	1	1	02VD 02VO 02VC 02MD 10MO 02MC 02RD 02RO	1	0	0.559019088745	None	None	-2	-64	0
2.7	2015_Jun_05_1105	s	s	18	5	SIC	445	RC	0	1	02VD 02VO 02VC 02MD 02MO 02MC 02RD 09RO	1	0	1.45908808708	-483.0	111.0	-481	112	1
2.7	2015_Jun_05_1105	s	s	18	5	SIC	446	ABS	1	2	02VD 02VO 02VC 10MD 02MO 02MC 02RD 02RO	1	0	0.90204000473	None	None	334	259	0
2.7	2015_Jun_05_1105	s	s	18	5	SIC	447	RC	1	1	02VD 02VO 02VC 02MD 09MO 02MC 02RD 02RO	1	0	2.33670687675	269.0	-145.0	273	-146	1
2.7	2015_Jun_05_1105	s	s	18	5	SIC	448	ABS	1	0	02VD 02VO 02VC 02MD 02MO 10MC 02RD 02RO	1	0	0.428536891937	None	None	108	94	0
2.7	2015_Jun_05_1105	s	s	18	5	SIC	449	ABS	0	2	02VD 02VO 02VC 02MD 02MO 02MC 10RD 02RO	1	0	1.10019087791	None	None	-253	287	0
2.7	2015_Jun_05_1105	s	s	18	5	SIC	450	RC	2	0	02VD 02VO 09VC 02MD 02MO 02MC 02RD 02RO	1	0	0.560036897659	98.0	-24.0	97	-30	1
2.7	2015_Jun_05_1105	s	s	18	5	SIC	451	RC	1	0	02VD 02VO 02VC 02MD 02MO 09MC 02RD 02RO	1	0	0.529160022736	-208.0	84.0	-202	81	1
2.7	2015_Jun_05_1105	s	s	18	5	SIC	452	ABS	1	1	02VD 02VO 02VC 02MD 10MO 02MC 02RD 02RO	1	0	1.47923994064	None	None	-450	-226	0
2.7	2015_Jun_05_1105	s	s	18	5	SIC	453	ABS	1	2	02VD 02VO 02VC 10MD 02MO 02MC 02RD 02RO	1	0	0.924273967743	None	None	237	120	0
2.7	2015_Jun_05_1105	s	s	18	5	SIC	454	RC	2	2	09VD 02VO 02VC 02MD 02MO 02MC 02RD 02RO	1	0	0.78794503212	-472.0	30.0	-287	90	0
2.7	2015_Jun_05_1105	s	s	18	5	SIC	455	ABS	2	1	02VD 10VO 02VC 02MD 02MO 02MC 02RD 02RO	1	0	1.14827299118	None	None	-201	-352	0
2.7	2015_Jun_05_1105	s	s	18	5	SIC	456	RC	0	2	02VD 02VO 02VC 02MD 02MO 02MC 09RD 02RO	1	0	0.929312944412	257.0	-191.0	254	-188	1
2.7	2015_Jun_05_1105	s	s	18	5	SIC	457	RC	1	1	02VD 02VO 02VC 02MD 09MO 02MC 02RD 02RO	1	0	0.446681976318	-183.0	195.0	-59	12	0
2.7	2015_Jun_05_1105	s	s	18	5	SIC	458	ABS	1	0	02VD 02VO 02VC 02MD 02MO 10MC 02RD 02RO	1	0	0.441730976105	None	None	-31	58	0
2.7	2015_Jun_05_1105	s	s	18	5	SIC	459	RC	2	1	02VD 09VO 02VC 02MD 02MO 02MC 02RD 02RO	1	0	0.505388021469	389.0	151.0	55	-21	0
2.7	2015_Jun_05_1105	s	s	18	5	SIC	460	RC	0	1	02VD 02VO 02VC 02MD 02MO 02MC 02RD 09RO	1	0	0.776178836823	251.0	-344.0	235	-168	0
2.7	2015_Jun_05_1105	s	s	18	5	SIC	461	ABS	0	1	02VD 02VO 02VC 02MD 02MO 02MC 02RD 10RO	1	0	0.500358104706	None	None	115	188	0
2.7	2015_Jun_05_1105	s	s	18	5	SIC	462	ABS	2	0	02VD 02VO 10VC 02MD 02MO 02MC 02RD 02RO	1	0	0.405879020691	None	None	-37	-123	0
2.7	2015_Jun_05_1105	s	s	18	5	SIC	463	RC	1	2	02VD 02VO 02VC 09MD 02MO 02MC 02RD 02RO	1	0	1.28225898743	442.0	338.0	-264	-107	0
2.7	2015_Jun_05_1105	s	s	18	5	SIC	464	ABS	2	2	10VD 02VO 02VC 02MD 02MO 02MC 02RD 02RO	1	0	0.958925962448	None	None	-309	378	0
2.7	2015_Jun_05_1105	s	s	18	5	SIC	465	RC	2	0	02VD 02VO 09VC 02MD 02MO 02MC 02RD 02RO	1	0	1.22100400925	57.0	-290.0	65	-290	1
2.7	2015_Jun_05_1105	s	s	18	5	SIC	466	ABS	2	0	02VD 02VO 10VC 02MD 02MO 02MC 02RD 02RO	1	0	0.517134904861	None	None	-417	-254	0
2.7	2015_Jun_05_1105	s	s	18	5	SIC	467	RC	0	2	02VD 02VO 02VC 02MD 02MO 02MC 09RD 02RO	1	0	0.643903017044	324.0	370.0	-125	-241	0
2.7	2015_Jun_05_1105	s	s	18	5	SIC	468	RC	1	1	02VD 02VO 02VC 02MD 09MO 02MC 02RD 02RO	1	0	0.587963104248	-232.0	-87.0	-221	-86	1
2.7	2015_Jun_05_1105	s	s	18	5	SIC	469	ABS	2	2	10VD 02VO 02VC 02MD 02MO 02MC 02RD 02RO	1	0	1.80028820038	None	None	259	274	0
2.7	2015_Jun_05_1105	s	s	18	5	SIC	470	RC	0	1	02VD 02VO 02VC 02MD 02MO 02MC 02RD 09RO	1	0	1.06797003746	261.0	-378.0	-131	306	0
2.7	2015_Jun_05_1105	s	s	18	5	SIC	471	RC	1	0	02VD 02VO 02VC 02MD 02MO 09MC 02RD 02RO	1	0	0.511775970459	90.0	-260.0	-8	177	0
2.7	2015_Jun_05_1105	s	s	18	5	SIC	472	RC	2	1	02VD 09VO 02VC 02MD 02MO 02MC 02RD 02RO	1	0	0.947951078415	-265.0	-341.0	-262	-342	1
2.7	2015_Jun_05_1105	s	s	18	5	SIC	473	ABS	2	1	02VD 10VO 02VC 02MD 02MO 02MC 02RD 02RO	1	0	1.05365920067	None	None	508	-17	0
2.7	2015_Jun_05_1105	s	s	18	5	SIC	474	ABS	0	1	02VD 02VO 02VC 02MD 02MO 02MC 02RD 10RO	1	0	0.376446962357	None	None	-31	272	0
2.7	2015_Jun_05_1105	s	s	18	5	SIC	475	RC	2	2	09VD 02VO 02VC 02MD 02MO 02MC 02RD 02RO	1	0	0.823698997498	68.0	-6.0	72	-14	1
2.7	2015_Jun_05_1105	s	s	18	5	SIC	476	ABS	0	2	02VD 02VO 02VC 02MD 02MO 02MC 10RD 02RO	1	0	1.25885510445	None	None	188	-166	0
2.7	2015_Jun_05_1105	s	s	18	5	SIC	477	ABS	1	2	02VD 02VO 02VC 10MD 02MO 02MC 02RD 02RO	1	0	1.04183912277	None	None	-302	48	0
2.7	2015_Jun_05_1105	s	s	18	5	SIC	478	ABS	1	1	02VD 02VO 02VC 02MD 10MO 02MC 02RD 02RO	1	0	1.43041300774	None	None	447	408	0
2.7	2015_Jun_05_1105	s	s	18	5	SIC	479	RC	1	2	02VD 02VO 02VC 09MD 02MO 02MC 02RD 02RO	1	0	0.865437984467	-80.0	294.0	-73	293	1
2.7	2015_Jun_05_1105	s	s	18	5	SIC	480	ABS	1	0	02VD 02VO 02VC 02MD 02MO 10MC 02RD 02RO	1	0	0.488696813583	None	None	6	11	0
