Version	Date	Stimuli	Method	Subject	Session	Condition	Trial	Target	Channel1	Channel2	Distractors	LMouseButton	RMouseButton	RT	TargetX	TargetY	ResponseX	ResponseY	Correct
2.7	2015_Jun_04_1106	s	s	18	4	Capacity	1	RC	0	2	15RD 08RO	1	0	1.67885804176	525.0	-92.0	530	-91	1
2.7	2015_Jun_04_1106	s	s	18	4	Capacity	2	ABS	0	1	08RD 16RO	0	1	3.47172808647	None	None	None	None	1
2.7	2015_Jun_04_1106	s	s	18	4	Capacity	3	RC	0	1	08RD 15RO	1	0	3.17340803146	-458.0	224.0	-464	228	1
2.7	2015_Jun_04_1106	s	s	18	4	Capacity	4	ABS	0	2	16RD 08RO	0	1	1.80921387672	None	None	None	None	1
2.7	2015_Jun_04_1106	s	s	18	4	Capacity	5	RC	0	2	15RD 08RO	1	0	0.823080062866	-100.0	270.0	-97	264	1
2.7	2015_Jun_04_1106	s	s	18	4	Capacity	6	ABS	0	2	16RD 08RO	0	1	1.85915708542	None	None	None	None	1
2.7	2015_Jun_04_1106	s	s	18	4	Capacity	7	RC	0	1	08RD 15RO	0	1	2.71840500832	-503.0	-118.0	None	None	0
2.7	2015_Jun_04_1106	s	s	18	4	Capacity	8	ABS	0	1	08RD 16RO	0	1	3.31372690201	None	None	None	None	1
2.7	2015_Jun_04_1106	s	s	18	4	Capacity	9	ABS	0	1	08RD 16RO	0	1	2.57717108727	None	None	None	None	1
2.7	2015_Jun_04_1106	s	s	18	4	Capacity	10	ABS	0	2	16RD 08RO	0	1	1.78853702545	None	None	None	None	1
2.7	2015_Jun_04_1106	s	s	18	4	Capacity	11	RC	0	2	15RD 08RO	1	0	2.47558784485	384.0	-111.0	386	-113	1
2.7	2015_Jun_04_1106	s	s	18	4	Capacity	12	RC	0	1	08RD 15RO	0	1	4.89280390739	187.0	338.0	None	None	0
2.7	2015_Jun_04_1106	s	s	18	4	Capacity	13	ABS	0	2	16RD 08RO	0	1	6.4379491806	None	None	None	None	1
2.7	2015_Jun_04_1106	s	s	18	4	Capacity	14	ABS	0	1	08RD 16RO	0	1	3.99672198296	None	None	None	None	1
2.7	2015_Jun_04_1106	s	s	18	4	Capacity	15	RC	0	1	08RD 15RO	1	0	1.70078706741	147.0	397.0	155	398	1
2.7	2015_Jun_04_1106	s	s	18	4	Capacity	16	RC	0	2	15RD 08RO	1	0	2.64318704605	290.0	205.0	297	210	1
2.7	2015_Jun_04_1106	s	s	18	4	Capacity	17	ABS	0	2	16RD 08RO	0	1	3.68339514732	None	None	None	None	1
2.7	2015_Jun_04_1106	s	s	18	4	Capacity	18	RC	0	2	15RD 08RO	1	0	1.78354001045	-338.0	-146.0	-342	-148	1
2.7	2015_Jun_04_1106	s	s	18	4	Capacity	19	RC	0	1	08RD 15RO	1	0	1.0898308754	-34.0	318.0	-33	327	1
2.7	2015_Jun_04_1106	s	s	18	4	Capacity	20	ABS	0	1	08RD 16RO	0	1	3.43630313873	None	None	None	None	1
2.7	2015_Jun_04_1106	s	s	18	4	Capacity	21	ABS	0	1	08RD 16RO	0	1	3.31865096092	None	None	None	None	1
2.7	2015_Jun_04_1106	s	s	18	4	Capacity	22	RC	0	1	08RD 15RO	0	1	2.47941088676	320.0	-265.0	None	None	0
2.7	2015_Jun_04_1106	s	s	18	4	Capacity	23	RC	0	2	15RD 08RO	1	0	1.13594508171	-348.0	95.0	-343	91	1
2.7	2015_Jun_04_1106	s	s	18	4	Capacity	24	ABS	0	2	16RD 08RO	0	1	2.92709088326	None	None	None	None	1
2.7	2015_Jun_04_1106	s	s	18	4	Capacity	25	RC	0	2	15RD 08RO	1	0	1.53854489326	-109.0	353.0	-107	345	1
2.7	2015_Jun_04_1106	s	s	18	4	Capacity	26	ABS	0	2	16RD 08RO	0	1	2.9067401886	None	None	None	None	1
2.7	2015_Jun_04_1106	s	s	18	4	Capacity	27	RC	0	1	08RD 15RO	1	0	3.313601017	-285.0	127.0	-280	129	1
2.7	2015_Jun_04_1106	s	s	18	4	Capacity	28	ABS	0	1	08RD 16RO	0	1	5.6340739727	None	None	None	None	1
2.7	2015_Jun_04_1106	s	s	18	4	Capacity	29	ABS	0	1	08RD 16RO	0	1	4.22505402565	None	None	None	None	1
2.7	2015_Jun_04_1106	s	s	18	4	Capacity	30	ABS	0	2	16RD 08RO	0	1	2.48991894722	None	None	None	None	1
2.7	2015_Jun_04_1106	s	s	18	4	Capacity	31	RC	0	2	15RD 08RO	0	1	2.13683509827	-129.0	344.0	None	None	0
2.7	2015_Jun_04_1106	s	s	18	4	Capacity	32	RC	0	1	08RD 15RO	1	0	2.64771103859	-470.0	190.0	-465	194	1
2.7	2015_Jun_04_1106	s	s	18	4	Capacity	33	RC	0	2	15RD 08RO	1	0	2.67128396034	-383.0	-163.0	-373	-165	1
2.7	2015_Jun_04_1106	s	s	18	4	Capacity	34	ABS	0	2	16RD 08RO	0	1	3.5495159626	None	None	None	None	1
2.7	2015_Jun_04_1106	s	s	18	4	Capacity	35	RC	0	1	08RD 15RO	1	0	1.48935294151	-201.0	-94.0	-202	-98	1
2.7	2015_Jun_04_1106	s	s	18	4	Capacity	36	ABS	0	1	08RD 16RO	0	1	3.80128383636	None	None	None	None	1
2.7	2015_Jun_04_1106	s	s	18	4	Capacity	37	RC	0	1	08RD 15RO	1	0	1.92629790306	-275.0	-260.0	-266	-260	1
2.7	2015_Jun_04_1106	s	s	18	4	Capacity	38	RC	0	2	15RD 08RO	1	0	1.94165420532	289.0	187.0	288	189	1
2.7	2015_Jun_04_1106	s	s	18	4	Capacity	39	ABS	0	1	08RD 16RO	0	1	4.49560904503	None	None	None	None	1
2.7	2015_Jun_04_1106	s	s	18	4	Capacity	40	ABS	0	2	16RD 08RO	0	1	4.02497792244	None	None	None	None	1
2.7	2015_Jun_04_1106	s	s	18	4	Capacity	41	RC	0	1	08RD 15RO	1	0	3.03622889519	349.0	-347.0	350	-349	1
2.7	2015_Jun_04_1106	s	s	18	4	Capacity	42	ABS	0	1	08RD 16RO	0	1	4.7485909462	None	None	None	None	1
2.7	2015_Jun_04_1106	s	s	18	4	Capacity	43	ABS	0	2	16RD 08RO	0	1	3.5187189579	None	None	None	None	1
2.7	2015_Jun_04_1106	s	s	18	4	Capacity	44	RC	0	2	15RD 08RO	1	0	2.43594193459	-165.0	-105.0	-162	-107	1
2.7	2015_Jun_04_1106	s	s	18	4	Capacity	45	RC	0	2	15RD 08RO	1	0	1.28936815262	218.0	-138.0	217	-135	1
2.7	2015_Jun_04_1106	s	s	18	4	Capacity	46	ABS	0	2	16RD 08RO	0	1	4.2782201767	None	None	None	None	1
2.7	2015_Jun_04_1106	s	s	18	4	Capacity	47	ABS	0	1	08RD 16RO	0	1	3.43332910538	None	None	None	None	1
2.7	2015_Jun_04_1106	s	s	18	4	Capacity	48	RC	0	1	08RD 15RO	1	0	3.23631596565	-305.0	-386.0	-306	-387	1
2.7	2015_Jun_04_1106	s	s	18	4	Capacity	49	ABS	0	2	16RD 08RO	0	1	2.11420297623	None	None	None	None	1
2.7	2015_Jun_04_1106	s	s	18	4	Capacity	50	ABS	0	1	08RD 16RO	0	1	3.00087118149	None	None	None	None	1
2.7	2015_Jun_04_1106	s	s	18	4	Capacity	51	RC	0	2	15RD 08RO	1	0	1.53323221207	469.0	374.0	468	373	1
2.7	2015_Jun_04_1106	s	s	18	4	Capacity	52	RC	0	1	08RD 15RO	1	0	3.23631906509	86.0	-341.0	81	-348	1
2.7	2015_Jun_04_1106	s	s	18	4	Capacity	53	ABS	0	1	08RD 16RO	0	1	2.77448892593	None	None	None	None	1
2.7	2015_Jun_04_1106	s	s	18	4	Capacity	54	ABS	0	2	16RD 08RO	0	1	1.79662680626	None	None	None	None	1
2.7	2015_Jun_04_1106	s	s	18	4	Capacity	55	RC	0	2	15RD 08RO	1	0	2.24492478371	-219.0	213.0	-215	215	1
2.7	2015_Jun_04_1106	s	s	18	4	Capacity	56	RC	0	1	08RD 15RO	1	0	1.80694508553	399.0	2.0	399	-4	1
2.7	2015_Jun_04_1106	s	s	18	4	Capacity	57	RC	0	2	15RD 08RO	1	0	1.10583686829	32.0	309.0	26	318	1
2.7	2015_Jun_04_1106	s	s	18	4	Capacity	58	ABS	0	2	16RD 08RO	0	1	2.74180912971	None	None	None	None	1
2.7	2015_Jun_04_1106	s	s	18	4	Capacity	59	ABS	0	1	08RD 16RO	0	1	3.13939213753	None	None	None	None	1
2.7	2015_Jun_04_1106	s	s	18	4	Capacity	60	RC	0	1	08RD 15RO	0	1	2.56552696228	326.0	-55.0	None	None	0
2.7	2015_Jun_04_1106	s	s	18	4	Capacity	61	RC	0	1	08RD 15RO	0	1	1.85521197319	147.0	-398.0	None	None	0
2.7	2015_Jun_04_1106	s	s	18	4	Capacity	62	ABS	0	2	16RD 08RO	1	0	1.81204319	None	None	-57	-46	0
2.7	2015_Jun_04_1106	s	s	18	4	Capacity	63	ABS	0	1	08RD 16RO	0	1	4.20158791542	None	None	None	None	1
2.7	2015_Jun_04_1106	s	s	18	4	Capacity	64	RC	0	2	15RD 08RO	1	0	2.74792599678	-467.0	-136.0	-468	-135	1
2.7	2015_Jun_04_1106	s	s	18	4	Capacity	1	RC	2	0	15VC 08MC	1	0	1.25892496109	338.0	-326.0	123	120	0
2.7	2015_Jun_04_1106	s	s	18	4	Capacity	2	RC	1	0	08VC 15MC	1	0	0.305229902267	82.0	33.0	-161	-32	0
2.7	2015_Jun_04_1106	s	s	18	4	Capacity	3	ABS	1	0	08VC 16MC	1	0	0.487471818924	None	None	-43	221	0
2.7	2015_Jun_04_1106	s	s	18	4	Capacity	4	ABS	2	0	16VC 08MC	1	0	0.611481189728	None	None	-367	281	0
2.7	2015_Jun_04_1106	s	s	18	4	Capacity	5	RC	2	0	15VC 08MC	1	0	2.59495401382	165.0	-55.0	-313	167	0
2.7	2015_Jun_04_1106	s	s	18	4	Capacity	6	RC	1	0	08VC 15MC	1	0	0.988059997559	-440.0	-323.0	-445	245	0
2.7	2015_Jun_04_1106	s	s	18	4	Capacity	7	ABS	1	0	08VC 16MC	1	0	1.74140310287	None	None	-142	3	0
2.7	2015_Jun_04_1106	s	s	18	4	Capacity	8	ABS	2	0	16VC 08MC	1	0	2.09104704857	None	None	-272	171	0
2.7	2015_Jun_04_1106	s	s	18	4	Capacity	9	ABS	2	0	16VC 08MC	1	0	1.27903795242	None	None	-318	-401	0
2.7	2015_Jun_04_1106	s	s	18	4	Capacity	10	RC	1	0	08VC 15MC	1	0	1.97687506676	41.0	-206.0	-142	201	0
2.7	2015_Jun_04_1106	s	s	18	4	Capacity	11	ABS	1	0	08VC 16MC	1	0	0.290939092636	None	None	-85	38	0
2.7	2015_Jun_04_1106	s	s	18	4	Capacity	12	RC	2	0	15VC 08MC	1	0	0.279191970825	227.0	258.0	110	189	0
2.7	2015_Jun_04_1106	s	s	18	4	Capacity	13	RC	1	0	08VC 15MC	1	0	0.399557113647	-227.0	-27.0	-109	-87	0
2.7	2015_Jun_04_1106	s	s	18	4	Capacity	14	ABS	1	0	08VC 16MC	1	0	0.431771039963	None	None	-247	-84	0
2.7	2015_Jun_04_1106	s	s	18	4	Capacity	15	RC	2	0	15VC 08MC	1	0	1.21822690964	505.0	-406.0	1	90	0
2.7	2015_Jun_04_1106	s	s	18	4	Capacity	16	ABS	2	0	16VC 08MC	1	0	0.729104995728	None	None	-143	196	0
2.7	2015_Jun_04_1106	s	s	18	4	Capacity	17	ABS	2	0	16VC 08MC	1	0	0.905682086945	None	None	-37	139	0
2.7	2015_Jun_04_1106	s	s	18	4	Capacity	18	RC	2	0	15VC 08MC	1	0	1.51509809494	-503.0	-82.0	105	-56	0
2.7	2015_Jun_04_1106	s	s	18	4	Capacity	19	RC	1	0	08VC 15MC	1	0	1.69429588318	488.0	318.0	-260	-203	0
2.7	2015_Jun_04_1106	s	s	18	4	Capacity	20	ABS	1	0	08VC 16MC	1	0	0.599632024765	None	None	-25	1	0
2.7	2015_Jun_04_1106	s	s	18	4	Capacity	21	RC	1	0	08VC 15MC	1	0	0.6471118927	14.0	406.0	-139	60	0
2.7	2015_Jun_04_1106	s	s	18	4	Capacity	22	RC	2	0	15VC 08MC	1	0	0.643800020218	-258.0	327.0	-255	335	1
2.7	2015_Jun_04_1106	s	s	18	4	Capacity	23	ABS	1	0	08VC 16MC	1	0	0.470195055008	None	None	-293	52	0
2.7	2015_Jun_04_1106	s	s	18	4	Capacity	24	ABS	2	0	16VC 08MC	1	0	0.690791845322	None	None	-311	-280	0
2.7	2015_Jun_04_1106	s	s	18	4	Capacity	25	ABS	2	0	16VC 08MC	1	0	0.670292854309	None	None	5	-144	0
2.7	2015_Jun_04_1106	s	s	18	4	Capacity	26	ABS	1	0	08VC 16MC	1	0	0.632509946823	None	None	-320	-164	0
2.7	2015_Jun_04_1106	s	s	18	4	Capacity	27	RC	2	0	15VC 08MC	1	0	2.27830910683	-441.0	-1.0	16	76	0
2.7	2015_Jun_04_1106	s	s	18	4	Capacity	28	RC	1	0	08VC 15MC	1	0	0.808804988861	-54.0	-145.0	-52	-144	1
2.7	2015_Jun_04_1106	s	s	18	4	Capacity	29	ABS	1	0	08VC 16MC	1	0	0.785375118256	None	None	-148	-157	0
2.7	2015_Jun_04_1106	s	s	18	4	Capacity	30	RC	2	0	15VC 08MC	1	0	1.16469621658	-100.0	-94.0	-124	59	0
2.7	2015_Jun_04_1106	s	s	18	4	Capacity	31	ABS	2	0	16VC 08MC	1	0	0.976338863373	None	None	-122	104	0
2.7	2015_Jun_04_1106	s	s	18	4	Capacity	32	RC	1	0	08VC 15MC	1	0	0.52534198761	252.0	155.0	-308	-13	0
2.7	2015_Jun_04_1106	s	s	18	4	Capacity	33	RC	2	0	15VC 08MC	1	0	0.618470191956	101.0	313.0	-95	131	0
2.7	2015_Jun_04_1106	s	s	18	4	Capacity	34	RC	1	0	08VC 15MC	1	0	0.976338863373	-57.0	-210.0	104	-37	0
2.7	2015_Jun_04_1106	s	s	18	4	Capacity	35	ABS	1	0	08VC 16MC	1	0	0.443016052246	None	None	-108	7	0
2.7	2015_Jun_04_1106	s	s	18	4	Capacity	36	ABS	2	0	16VC 08MC	1	0	0.78521490097	None	None	-41	134	0
2.7	2015_Jun_04_1106	s	s	18	4	Capacity	37	ABS	1	0	08VC 16MC	1	0	0.665181875229	None	None	-204	111	0
2.7	2015_Jun_04_1106	s	s	18	4	Capacity	38	RC	2	0	15VC 08MC	1	0	0.806005954742	472.0	-20.0	-139	-148	0
2.7	2015_Jun_04_1106	s	s	18	4	Capacity	39	RC	1	0	08VC 15MC	1	0	0.37589097023	71.0	-160.0	-63	-78	0
2.7	2015_Jun_04_1106	s	s	18	4	Capacity	40	ABS	2	0	16VC 08MC	1	0	0.53510594368	None	None	-128	94	0
2.7	2015_Jun_04_1106	s	s	18	4	Capacity	41	ABS	1	0	08VC 16MC	1	0	0.396079063416	None	None	-163	21	0
2.7	2015_Jun_04_1106	s	s	18	4	Capacity	42	ABS	2	0	16VC 08MC	1	0	0.867130994797	None	None	-198	126	0
2.7	2015_Jun_04_1106	s	s	18	4	Capacity	43	RC	2	0	15VC 08MC	1	0	0.443941831589	-478.0	-15.0	-110	205	0
2.7	2015_Jun_04_1106	s	s	18	4	Capacity	44	RC	1	0	08VC 15MC	1	0	0.54806804657	398.0	218.0	-310	142	0
2.7	2015_Jun_04_1106	s	s	18	4	Capacity	45	RC	2	0	15VC 08MC	1	0	0.61752986908	-18.0	394.0	-12	118	0
2.7	2015_Jun_04_1106	s	s	18	4	Capacity	46	RC	1	0	08VC 15MC	1	0	0.441359996796	485.0	-279.0	-2	1	0
2.7	2015_Jun_04_1106	s	s	18	4	Capacity	47	ABS	1	0	08VC 16MC	1	0	0.656103849411	None	None	-188	-5	0
2.7	2015_Jun_04_1106	s	s	18	4	Capacity	48	ABS	2	0	16VC 08MC	1	0	0.535709857941	None	None	-243	-43	0
2.7	2015_Jun_04_1106	s	s	18	4	Capacity	49	ABS	1	0	08VC 16MC	1	0	0.550145149231	None	None	-112	-1	0
2.7	2015_Jun_04_1106	s	s	18	4	Capacity	50	RC	2	0	15VC 08MC	1	0	0.665289878845	-162.0	210.0	-198	87	0
2.7	2015_Jun_04_1106	s	s	18	4	Capacity	51	RC	1	0	08VC 15MC	1	0	0.587941884995	-195.0	-185.0	-309	210	0
2.7	2015_Jun_04_1106	s	s	18	4	Capacity	52	ABS	2	0	16VC 08MC	1	0	0.582579135895	None	None	-403	-59	0
2.7	2015_Jun_04_1106	s	s	18	4	Capacity	53	ABS	1	0	08VC 16MC	1	0	0.500722885132	None	None	96	-152	0
2.7	2015_Jun_04_1106	s	s	18	4	Capacity	54	ABS	2	0	16VC 08MC	1	0	0.620716094971	None	None	-68	72	0
2.7	2015_Jun_04_1106	s	s	18	4	Capacity	55	RC	1	0	08VC 15MC	1	0	0.502129793167	-62.0	193.0	-67	195	1
2.7	2015_Jun_04_1106	s	s	18	4	Capacity	56	RC	2	0	15VC 08MC	1	0	0.570212841034	-288.0	-246.0	44	152	0
2.7	2015_Jun_04_1106	s	s	18	4	Capacity	57	ABS	1	0	08VC 16MC	1	0	0.476924180984	None	None	-25	-133	0
2.7	2015_Jun_04_1106	s	s	18	4	Capacity	58	RC	2	0	15VC 08MC	1	0	0.420649051666	47.0	-359.0	-102	126	0
2.7	2015_Jun_04_1106	s	s	18	4	Capacity	59	ABS	2	0	16VC 08MC	1	0	0.638673067093	None	None	-49	203	0
2.7	2015_Jun_04_1106	s	s	18	4	Capacity	60	RC	1	0	08VC 15MC	1	0	0.843528985977	488.0	59.0	-127	138	0
2.7	2015_Jun_04_1106	s	s	18	4	Capacity	61	ABS	2	0	16VC 08MC	1	0	0.583033084869	None	None	-306	-56	0
2.7	2015_Jun_04_1106	s	s	18	4	Capacity	62	RC	2	0	15VC 08MC	1	0	0.479588985443	-250.0	-187.0	-117	-25	0
2.7	2015_Jun_04_1106	s	s	18	4	Capacity	63	RC	1	0	08VC 15MC	1	0	0.690402984619	457.0	-241.0	-277	-4	0
2.7	2015_Jun_04_1106	s	s	18	4	Capacity	64	ABS	1	0	08VC 16MC	1	0	0.446558952332	None	None	-245	96	0
2.7	2015_Jun_04_1106	s	s	18	4	SIC	1	RC	2	2	09VD 02VO 02VC 02MD 02MO 02MC 02RD 02RO	1	0	0.643752098083	301.0	172.0	-270	321	0
2.7	2015_Jun_04_1106	s	s	18	4	SIC	2	RC	1	1	02VD 02VO 02VC 02MD 09MO 02MC 02RD 02RO	1	0	1.07045602798	-459.0	-277.0	-178	-227	0
2.7	2015_Jun_04_1106	s	s	18	4	SIC	3	RC	0	1	02VD 02VO 02VC 02MD 02MO 02MC 02RD 09RO	1	0	0.670257806778	171.0	-115.0	41	-393	0
2.7	2015_Jun_04_1106	s	s	18	4	SIC	4	RC	1	0	02VD 02VO 02VC 02MD 02MO 09MC 02RD 02RO	1	0	0.830131053925	-174.0	-209.0	-13	-246	0
2.7	2015_Jun_04_1106	s	s	18	4	SIC	5	RC	1	2	02VD 02VO 02VC 09MD 02MO 02MC 02RD 02RO	1	0	0.435292959213	66.0	-55.0	61	-61	1
2.7	2015_Jun_04_1106	s	s	18	4	SIC	6	ABS	1	0	02VD 02VO 02VC 02MD 02MO 10MC 02RD 02RO	1	0	0.429781913757	None	None	-11	-86	0
2.7	2015_Jun_04_1106	s	s	18	4	SIC	7	RC	0	2	02VD 02VO 02VC 02MD 02MO 02MC 09RD 02RO	1	0	0.524238109589	-446.0	-66.0	84	193	0
2.7	2015_Jun_04_1106	s	s	18	4	SIC	8	ABS	2	2	10VD 02VO 02VC 02MD 02MO 02MC 02RD 02RO	1	0	0.634912967682	None	None	12	12	0
2.7	2015_Jun_04_1106	s	s	18	4	SIC	9	ABS	1	1	02VD 02VO 02VC 02MD 10MO 02MC 02RD 02RO	1	0	4.35448813438	None	None	-501	-23	0
2.7	2015_Jun_04_1106	s	s	18	4	SIC	10	ABS	0	2	02VD 02VO 02VC 02MD 02MO 02MC 10RD 02RO	1	0	1.01774406433	None	None	-468	219	0
2.7	2015_Jun_04_1106	s	s	18	4	SIC	11	ABS	1	2	02VD 02VO 02VC 10MD 02MO 02MC 02RD 02RO	1	0	0.771289825439	None	None	-325	61	0
2.7	2015_Jun_04_1106	s	s	18	4	SIC	12	ABS	2	0	02VD 02VO 10VC 02MD 02MO 02MC 02RD 02RO	1	0	2.69895792007	None	None	245	-409	0
2.7	2015_Jun_04_1106	s	s	18	4	SIC	13	RC	2	1	02VD 09VO 02VC 02MD 02MO 02MC 02RD 02RO	1	0	0.93536400795	186.0	201.0	193	206	1
2.7	2015_Jun_04_1106	s	s	18	4	SIC	14	ABS	0	1	02VD 02VO 02VC 02MD 02MO 02MC 02RD 10RO	1	0	1.40010309219	None	None	-147	255	0
2.7	2015_Jun_04_1106	s	s	18	4	SIC	15	ABS	2	1	02VD 10VO 02VC 02MD 02MO 02MC 02RD 02RO	1	0	0.890813112259	None	None	-133	-78	0
2.7	2015_Jun_04_1106	s	s	18	4	SIC	16	RC	2	0	02VD 02VO 09VC 02MD 02MO 02MC 02RD 02RO	1	0	1.05617284775	150.0	12.0	-97	-285	0
2.7	2015_Jun_04_1106	s	s	18	4	SIC	17	ABS	0	2	02VD 02VO 02VC 02MD 02MO 02MC 10RD 02RO	1	0	0.723424196243	None	None	143	141	0
2.7	2015_Jun_04_1106	s	s	18	4	SIC	18	ABS	2	0	02VD 02VO 10VC 02MD 02MO 02MC 02RD 02RO	1	0	0.55942606926	None	None	-191	111	0
2.7	2015_Jun_04_1106	s	s	18	4	SIC	19	ABS	2	1	02VD 10VO 02VC 02MD 02MO 02MC 02RD 02RO	1	0	1.10568785667	None	None	-4	-332	0
2.7	2015_Jun_04_1106	s	s	18	4	SIC	20	RC	1	1	02VD 02VO 02VC 02MD 09MO 02MC 02RD 02RO	1	0	1.10065197945	57.0	-253.0	-71	185	0
2.7	2015_Jun_04_1106	s	s	18	4	SIC	21	RC	2	2	09VD 02VO 02VC 02MD 02MO 02MC 02RD 02RO	1	0	0.700996875763	227.0	-304.0	283	58	0
2.7	2015_Jun_04_1106	s	s	18	4	SIC	22	ABS	0	1	02VD 02VO 02VC 02MD 02MO 02MC 02RD 10RO	1	0	3.39650201797	None	None	217	315	0
2.7	2015_Jun_04_1106	s	s	18	4	SIC	23	RC	0	1	02VD 02VO 02VC 02MD 02MO 02MC 02RD 09RO	1	0	1.46551799774	-28.0	386.0	-29	380	1
2.7	2015_Jun_04_1106	s	s	18	4	SIC	24	ABS	1	2	02VD 02VO 02VC 10MD 02MO 02MC 02RD 02RO	1	0	1.44148302078	None	None	511	138	0
2.7	2015_Jun_04_1106	s	s	18	4	SIC	25	RC	0	2	02VD 02VO 02VC 02MD 02MO 02MC 09RD 02RO	1	0	2.34178090096	464.0	101.0	466	108	1
2.7	2015_Jun_04_1106	s	s	18	4	SIC	26	ABS	1	0	02VD 02VO 02VC 02MD 02MO 10MC 02RD 02RO	1	0	0.576068878174	None	None	-80	178	0
2.7	2015_Jun_04_1106	s	s	18	4	SIC	27	RC	2	1	02VD 09VO 02VC 02MD 02MO 02MC 02RD 02RO	1	0	0.988163948059	-536.0	-362.0	-234	14	0
2.7	2015_Jun_04_1106	s	s	18	4	SIC	28	ABS	1	1	02VD 02VO 02VC 02MD 10MO 02MC 02RD 02RO	1	0	1.53855204582	None	None	202	351	0
2.7	2015_Jun_04_1106	s	s	18	4	SIC	29	RC	1	0	02VD 02VO 02VC 02MD 02MO 09MC 02RD 02RO	1	0	1.27866482735	177.0	136.0	-103	-151	0
2.7	2015_Jun_04_1106	s	s	18	4	SIC	30	RC	2	0	02VD 02VO 09VC 02MD 02MO 02MC 02RD 02RO	1	0	1.17122507095	3.0	-357.0	-424	95	0
2.7	2015_Jun_04_1106	s	s	18	4	SIC	31	RC	1	2	02VD 02VO 02VC 09MD 02MO 02MC 02RD 02RO	1	0	2.00034594536	-444.0	-382.0	386	-69	0
2.7	2015_Jun_04_1106	s	s	18	4	SIC	32	ABS	2	2	10VD 02VO 02VC 02MD 02MO 02MC 02RD 02RO	1	0	1.00623202324	None	None	-353	292	0
2.7	2015_Jun_04_1106	s	s	18	4	SIC	33	RC	0	1	02VD 02VO 02VC 02MD 02MO 02MC 02RD 09RO	1	0	1.807336092	-408.0	-139.0	108	284	0
2.7	2015_Jun_04_1106	s	s	18	4	SIC	34	ABS	1	0	02VD 02VO 02VC 02MD 02MO 10MC 02RD 02RO	1	0	0.737748861313	None	None	-41	74	0
2.7	2015_Jun_04_1106	s	s	18	4	SIC	35	RC	2	2	09VD 02VO 02VC 02MD 02MO 02MC 02RD 02RO	1	0	0.867006063461	-390.0	-239.0	193	333	0
2.7	2015_Jun_04_1106	s	s	18	4	SIC	36	ABS	0	2	02VD 02VO 02VC 02MD 02MO 02MC 10RD 02RO	1	0	0.888051986694	None	None	442	280	0
2.7	2015_Jun_04_1106	s	s	18	4	SIC	37	RC	0	2	02VD 02VO 02VC 02MD 02MO 02MC 09RD 02RO	1	0	0.988159894943	-298.0	408.0	-18	-171	0
2.7	2015_Jun_04_1106	s	s	18	4	SIC	38	ABS	2	2	10VD 02VO 02VC 02MD 02MO 02MC 02RD 02RO	1	0	1.08212614059	None	None	32	-270	0
2.7	2015_Jun_04_1106	s	s	18	4	SIC	39	RC	2	1	02VD 09VO 02VC 02MD 02MO 02MC 02RD 02RO	1	0	0.876940965652	-210.0	-169.0	-205	-176	1
2.7	2015_Jun_04_1106	s	s	18	4	SIC	40	ABS	1	1	02VD 02VO 02VC 02MD 10MO 02MC 02RD 02RO	1	0	0.632229804993	None	None	-173	-90	0
2.7	2015_Jun_04_1106	s	s	18	4	SIC	41	ABS	0	1	02VD 02VO 02VC 02MD 02MO 02MC 02RD 10RO	1	0	0.829521894455	None	None	508	341	0
2.7	2015_Jun_04_1106	s	s	18	4	SIC	42	ABS	2	0	02VD 02VO 10VC 02MD 02MO 02MC 02RD 02RO	1	0	0.92637014389	None	None	-71	-170	0
2.7	2015_Jun_04_1106	s	s	18	4	SIC	43	RC	1	1	02VD 02VO 02VC 02MD 09MO 02MC 02RD 02RO	1	0	1.50026798248	-531.0	-196.0	243	418	0
2.7	2015_Jun_04_1106	s	s	18	4	SIC	44	RC	1	2	02VD 02VO 02VC 09MD 02MO 02MC 02RD 02RO	1	0	1.48597002029	209.0	-15.0	210	-23	1
2.7	2015_Jun_04_1106	s	s	18	4	SIC	45	RC	2	0	02VD 02VO 09VC 02MD 02MO 02MC 02RD 02RO	1	0	1.09404611588	-213.0	382.0	-198	16	0
2.7	2015_Jun_04_1106	s	s	18	4	SIC	46	RC	1	0	02VD 02VO 02VC 02MD 02MO 09MC 02RD 02RO	1	0	0.864521026611	351.0	250.0	-148	-108	0
2.7	2015_Jun_04_1106	s	s	18	4	SIC	47	ABS	2	1	02VD 10VO 02VC 02MD 02MO 02MC 02RD 02RO	1	0	0.64393901825	None	None	-57	83	0
2.7	2015_Jun_04_1106	s	s	18	4	SIC	48	ABS	1	2	02VD 02VO 02VC 10MD 02MO 02MC 02RD 02RO	1	0	1.07867002487	None	None	-83	304	0
2.7	2015_Jun_04_1106	s	s	18	4	SIC	49	ABS	0	1	02VD 02VO 02VC 02MD 02MO 02MC 02RD 10RO	1	0	0.658470869064	None	None	-312	114	0
2.7	2015_Jun_04_1106	s	s	18	4	SIC	50	RC	1	1	02VD 02VO 02VC 02MD 09MO 02MC 02RD 02RO	1	0	0.651981830597	-90.0	184.0	-421	-27	0
2.7	2015_Jun_04_1106	s	s	18	4	SIC	51	RC	0	2	02VD 02VO 02VC 02MD 02MO 02MC 09RD 02RO	1	0	0.585119009018	-251.0	87.0	-257	91	1
2.7	2015_Jun_04_1106	s	s	18	4	SIC	52	ABS	1	0	02VD 02VO 02VC 02MD 02MO 10MC 02RD 02RO	1	0	0.835088968277	None	None	-22	18	0
2.7	2015_Jun_04_1106	s	s	18	4	SIC	53	ABS	2	0	02VD 02VO 10VC 02MD 02MO 02MC 02RD 02RO	1	0	0.811492919922	None	None	-5	363	0
2.7	2015_Jun_04_1106	s	s	18	4	SIC	54	ABS	2	2	10VD 02VO 02VC 02MD 02MO 02MC 02RD 02RO	1	0	1.37079191208	None	None	-491	-182	0
2.7	2015_Jun_04_1106	s	s	18	4	SIC	55	RC	1	0	02VD 02VO 02VC 02MD 02MO 09MC 02RD 02RO	1	0	0.618649959564	-169.0	-148.0	-159	-150	1
2.7	2015_Jun_04_1106	s	s	18	4	SIC	56	ABS	0	2	02VD 02VO 02VC 02MD 02MO 02MC 10RD 02RO	1	0	0.729182958603	None	None	-382	147	0
2.7	2015_Jun_04_1106	s	s	18	4	SIC	57	RC	1	2	02VD 02VO 02VC 09MD 02MO 02MC 02RD 02RO	1	0	0.62010884285	-56.0	35.0	-60	30	1
2.7	2015_Jun_04_1106	s	s	18	4	SIC	58	ABS	2	1	02VD 10VO 02VC 02MD 02MO 02MC 02RD 02RO	1	0	0.797075033188	None	None	-375	224	0
2.7	2015_Jun_04_1106	s	s	18	4	SIC	59	RC	0	1	02VD 02VO 02VC 02MD 02MO 02MC 02RD 09RO	1	0	2.04749512672	351.0	12.0	-259	-229	0
2.7	2015_Jun_04_1106	s	s	18	4	SIC	60	ABS	1	1	02VD 02VO 02VC 02MD 10MO 02MC 02RD 02RO	1	0	0.729132890701	None	None	-150	122	0
2.7	2015_Jun_04_1106	s	s	18	4	SIC	61	RC	2	0	02VD 02VO 09VC 02MD 02MO 02MC 02RD 02RO	1	0	1.02342700958	-46.0	-145.0	-38	-142	1
2.7	2015_Jun_04_1106	s	s	18	4	SIC	62	RC	2	2	09VD 02VO 02VC 02MD 02MO 02MC 02RD 02RO	1	0	0.46523308754	168.0	-24.0	169	-27	1
2.7	2015_Jun_04_1106	s	s	18	4	SIC	63	ABS	1	2	02VD 02VO 02VC 10MD 02MO 02MC 02RD 02RO	1	0	1.29411411285	None	None	302	-4	0
2.7	2015_Jun_04_1106	s	s	18	4	SIC	64	RC	2	1	02VD 09VO 02VC 02MD 02MO 02MC 02RD 02RO	1	0	0.629409790039	-310.0	-199.0	-188	363	0
2.7	2015_Jun_04_1106	s	s	18	4	SIC	65	ABS	1	1	02VD 02VO 02VC 02MD 10MO 02MC 02RD 02RO	1	0	0.470477819443	None	None	-111	262	0
2.7	2015_Jun_04_1106	s	s	18	4	SIC	66	RC	1	1	02VD 02VO 02VC 02MD 09MO 02MC 02RD 02RO	1	0	1.32945919037	364.0	-275.0	-388	109	0
2.7	2015_Jun_04_1106	s	s	18	4	SIC	67	ABS	1	2	02VD 02VO 02VC 10MD 02MO 02MC 02RD 02RO	1	0	2.93913984299	None	None	141	-120	0
2.7	2015_Jun_04_1106	s	s	18	4	SIC	68	RC	0	2	02VD 02VO 02VC 02MD 02MO 02MC 09RD 02RO	1	0	1.22357392311	136.0	-372.0	-259	15	0
2.7	2015_Jun_04_1106	s	s	18	4	SIC	69	ABS	2	1	02VD 10VO 02VC 02MD 02MO 02MC 02RD 02RO	1	0	0.593110084534	None	None	-115	175	0
2.7	2015_Jun_04_1106	s	s	18	4	SIC	70	RC	1	2	02VD 02VO 02VC 09MD 02MO 02MC 02RD 02RO	1	0	0.587772846222	125.0	133.0	-133	88	0
2.7	2015_Jun_04_1106	s	s	18	4	SIC	71	RC	2	2	09VD 02VO 02VC 02MD 02MO 02MC 02RD 02RO	1	0	1.03525209427	-329.0	-391.0	-321	-388	1
2.7	2015_Jun_04_1106	s	s	18	4	SIC	72	ABS	2	2	10VD 02VO 02VC 02MD 02MO 02MC 02RD 02RO	1	0	1.57654094696	None	None	-483	198	0
2.7	2015_Jun_04_1106	s	s	18	4	SIC	73	ABS	1	0	02VD 02VO 02VC 02MD 02MO 10MC 02RD 02RO	1	0	0.517293214798	None	None	270	420	0
2.7	2015_Jun_04_1106	s	s	18	4	SIC	74	RC	2	0	02VD 02VO 09VC 02MD 02MO 02MC 02RD 02RO	1	0	0.847247838974	326.0	-244.0	-48	398	0
2.7	2015_Jun_04_1106	s	s	18	4	SIC	75	ABS	0	2	02VD 02VO 02VC 02MD 02MO 02MC 10RD 02RO	1	0	1.4302740097	None	None	-83	-137	0
2.7	2015_Jun_04_1106	s	s	18	4	SIC	76	RC	2	1	02VD 09VO 02VC 02MD 02MO 02MC 02RD 02RO	1	0	1.45898509026	336.0	-167.0	243	227	0
2.7	2015_Jun_04_1106	s	s	18	4	SIC	77	ABS	2	0	02VD 02VO 10VC 02MD 02MO 02MC 02RD 02RO	1	0	0.749925136566	None	None	-466	-107	0
2.7	2015_Jun_04_1106	s	s	18	4	SIC	78	ABS	0	1	02VD 02VO 02VC 02MD 02MO 02MC 02RD 10RO	1	0	0.746651172638	None	None	-502	97	0
2.7	2015_Jun_04_1106	s	s	18	4	SIC	79	RC	1	0	02VD 02VO 02VC 02MD 02MO 09MC 02RD 02RO	1	0	0.630070209503	-174.0	-367.0	155	173	0
2.7	2015_Jun_04_1106	s	s	18	4	SIC	80	RC	0	1	02VD 02VO 02VC 02MD 02MO 02MC 02RD 09RO	1	0	0.611466884613	197.0	-29.0	193	-19	1
2.7	2015_Jun_04_1106	s	s	18	4	SIC	81	RC	0	2	02VD 02VO 02VC 02MD 02MO 02MC 09RD 02RO	1	0	0.536259889603	-474.0	36.0	-482	30	1
2.7	2015_Jun_04_1106	s	s	18	4	SIC	82	ABS	1	2	02VD 02VO 02VC 10MD 02MO 02MC 02RD 02RO	1	0	0.533872842789	None	None	-22	-393	0
2.7	2015_Jun_04_1106	s	s	18	4	SIC	83	RC	2	2	09VD 02VO 02VC 02MD 02MO 02MC 02RD 02RO	1	0	0.537474155426	38.0	59.0	38	59	1
2.7	2015_Jun_04_1106	s	s	18	4	SIC	84	ABS	2	1	02VD 10VO 02VC 02MD 02MO 02MC 02RD 02RO	1	0	1.02068400383	None	None	-510	147	0
2.7	2015_Jun_04_1106	s	s	18	4	SIC	85	RC	0	1	02VD 02VO 02VC 02MD 02MO 02MC 02RD 09RO	1	0	1.40004205704	-255.0	-19.0	-256	-16	1
2.7	2015_Jun_04_1106	s	s	18	4	SIC	86	RC	2	1	02VD 09VO 02VC 02MD 02MO 02MC 02RD 02RO	1	0	1.84382200241	118.0	382.0	70	-350	0
2.7	2015_Jun_04_1106	s	s	18	4	SIC	87	RC	1	0	02VD 02VO 02VC 02MD 02MO 09MC 02RD 02RO	1	0	0.604797124863	-35.0	-167.0	-29	13	0
2.7	2015_Jun_04_1106	s	s	18	4	SIC	88	ABS	0	1	02VD 02VO 02VC 02MD 02MO 02MC 02RD 10RO	1	0	1.99784588814	None	None	140	-108	0
2.7	2015_Jun_04_1106	s	s	18	4	SIC	89	ABS	1	1	02VD 02VO 02VC 02MD 10MO 02MC 02RD 02RO	1	0	1.25581789017	None	None	512	-4	0
2.7	2015_Jun_04_1106	s	s	18	4	SIC	90	ABS	2	0	02VD 02VO 10VC 02MD 02MO 02MC 02RD 02RO	1	0	1.25360202789	None	None	-298	401	0
2.7	2015_Jun_04_1106	s	s	18	4	SIC	91	RC	1	1	02VD 02VO 02VC 02MD 09MO 02MC 02RD 02RO	1	0	1.66682600975	309.0	359.0	-276	-121	0
2.7	2015_Jun_04_1106	s	s	18	4	SIC	92	ABS	1	0	02VD 02VO 02VC 02MD 02MO 10MC 02RD 02RO	1	0	1.25876307487	None	None	-381	-12	0
2.7	2015_Jun_04_1106	s	s	18	4	SIC	93	RC	2	0	02VD 02VO 09VC 02MD 02MO 02MC 02RD 02RO	1	0	0.997388839722	296.0	-21.0	-419	-105	0
2.7	2015_Jun_04_1106	s	s	18	4	SIC	94	ABS	0	2	02VD 02VO 02VC 02MD 02MO 02MC 10RD 02RO	1	0	0.941034078598	None	None	-444	325	0
2.7	2015_Jun_04_1106	s	s	18	4	SIC	95	RC	1	2	02VD 02VO 02VC 09MD 02MO 02MC 02RD 02RO	1	0	1.07691311836	329.0	133.0	113	-120	0
2.7	2015_Jun_04_1106	s	s	18	4	SIC	96	ABS	2	2	10VD 02VO 02VC 02MD 02MO 02MC 02RD 02RO	1	0	1.20870709419	None	None	381	392	0
2.7	2015_Jun_04_1106	s	s	18	4	SIC	97	RC	1	0	02VD 02VO 02VC 02MD 02MO 09MC 02RD 02RO	1	0	0.634886980057	226.0	-408.0	-58	-50	0
2.7	2015_Jun_04_1106	s	s	18	4	SIC	98	RC	1	1	02VD 02VO 02VC 02MD 09MO 02MC 02RD 02RO	1	0	2.36067199707	471.0	-397.0	475	264	0
2.7	2015_Jun_04_1106	s	s	18	4	SIC	99	RC	2	0	02VD 02VO 09VC 02MD 02MO 02MC 02RD 02RO	1	0	0.854624986649	-191.0	-151.0	-197	-143	1
2.7	2015_Jun_04_1106	s	s	18	4	SIC	100	RC	1	2	02VD 02VO 02VC 09MD 02MO 02MC 02RD 02RO	1	0	0.71750998497	530.0	-356.0	123	381	0
2.7	2015_Jun_04_1106	s	s	18	4	SIC	101	ABS	0	1	02VD 02VO 02VC 02MD 02MO 02MC 02RD 10RO	1	0	1.50234794617	None	None	-382	0	0
2.7	2015_Jun_04_1106	s	s	18	4	SIC	102	ABS	0	2	02VD 02VO 02VC 02MD 02MO 02MC 10RD 02RO	1	0	0.9174721241	None	None	26	211	0
2.7	2015_Jun_04_1106	s	s	18	4	SIC	103	ABS	1	0	02VD 02VO 02VC 02MD 02MO 10MC 02RD 02RO	1	0	0.606568098068	None	None	-49	52	0
2.7	2015_Jun_04_1106	s	s	18	4	SIC	104	RC	0	1	02VD 02VO 02VC 02MD 02MO 02MC 02RD 09RO	1	0	0.517586946487	-271.0	152.0	-262	153	1
2.7	2015_Jun_04_1106	s	s	18	4	SIC	105	ABS	1	1	02VD 02VO 02VC 02MD 10MO 02MC 02RD 02RO	1	0	0.573446989059	None	None	-487	5	0
2.7	2015_Jun_04_1106	s	s	18	4	SIC	106	ABS	2	0	02VD 02VO 10VC 02MD 02MO 02MC 02RD 02RO	1	0	1.42359900475	None	None	-131	-196	0
2.7	2015_Jun_04_1106	s	s	18	4	SIC	107	RC	0	2	02VD 02VO 02VC 02MD 02MO 02MC 09RD 02RO	1	0	1.06541013718	124.0	353.0	128	351	1
2.7	2015_Jun_04_1106	s	s	18	4	SIC	108	RC	2	1	02VD 09VO 02VC 02MD 02MO 02MC 02RD 02RO	1	0	1.09084010124	-150.0	-221.0	-367	324	0
2.7	2015_Jun_04_1106	s	s	18	4	SIC	109	ABS	2	2	10VD 02VO 02VC 02MD 02MO 02MC 02RD 02RO	1	0	1.2187230587	None	None	432	29	0
2.7	2015_Jun_04_1106	s	s	18	4	SIC	110	ABS	1	2	02VD 02VO 02VC 10MD 02MO 02MC 02RD 02RO	1	0	0.729026079178	None	None	178	222	0
2.7	2015_Jun_04_1106	s	s	18	4	SIC	111	RC	2	2	09VD 02VO 02VC 02MD 02MO 02MC 02RD 02RO	1	0	1.05593585968	-235.0	-292.0	-236	-91	0
2.7	2015_Jun_04_1106	s	s	18	4	SIC	112	ABS	2	1	02VD 10VO 02VC 02MD 02MO 02MC 02RD 02RO	1	0	1.03505992889	None	None	-363	-349	0
2.7	2015_Jun_04_1106	s	s	18	4	SIC	113	ABS	1	0	02VD 02VO 02VC 02MD 02MO 10MC 02RD 02RO	1	0	0.642512083054	None	None	-355	-46	0
2.7	2015_Jun_04_1106	s	s	18	4	SIC	114	RC	0	2	02VD 02VO 02VC 02MD 02MO 02MC 09RD 02RO	1	0	0.89381980896	-23.0	-153.0	-20	-159	1
2.7	2015_Jun_04_1106	s	s	18	4	SIC	115	RC	0	1	02VD 02VO 02VC 02MD 02MO 02MC 02RD 09RO	1	0	1.36069202423	-395.0	84.0	117	301	0
2.7	2015_Jun_04_1106	s	s	18	4	SIC	116	ABS	2	0	02VD 02VO 10VC 02MD 02MO 02MC 02RD 02RO	1	0	0.941023826599	None	None	-76	349	0
2.7	2015_Jun_04_1106	s	s	18	4	SIC	117	RC	1	1	02VD 02VO 02VC 02MD 09MO 02MC 02RD 02RO	1	0	1.22074079514	153.0	-245.0	18	372	0
2.7	2015_Jun_04_1106	s	s	18	4	SIC	118	RC	1	0	02VD 02VO 02VC 02MD 02MO 09MC 02RD 02RO	1	0	0.549865007401	-124.0	335.0	-155	-31	0
2.7	2015_Jun_04_1106	s	s	18	4	SIC	119	RC	2	0	02VD 02VO 09VC 02MD 02MO 02MC 02RD 02RO	1	0	0.960821866989	-294.0	-362.0	-272	-222	0
2.7	2015_Jun_04_1106	s	s	18	4	SIC	120	RC	1	2	02VD 02VO 02VC 09MD 02MO 02MC 02RD 02RO	1	0	1.79474806786	-342.0	147.0	-345	146	1
2.7	2015_Jun_04_1106	s	s	18	4	SIC	121	ABS	0	1	02VD 02VO 02VC 02MD 02MO 02MC 02RD 10RO	1	0	0.914692878723	None	None	-194	386	0
2.7	2015_Jun_04_1106	s	s	18	4	SIC	122	ABS	1	2	02VD 02VO 02VC 10MD 02MO 02MC 02RD 02RO	1	0	1.60598993301	None	None	524	-299	0
2.7	2015_Jun_04_1106	s	s	18	4	SIC	123	ABS	2	2	10VD 02VO 02VC 02MD 02MO 02MC 02RD 02RO	1	0	1.1240041256	None	None	56	-303	0
2.7	2015_Jun_04_1106	s	s	18	4	SIC	124	ABS	2	1	02VD 10VO 02VC 02MD 02MO 02MC 02RD 02RO	1	0	0.568358898163	None	None	-76	-5	0
2.7	2015_Jun_04_1106	s	s	18	4	SIC	125	RC	2	1	02VD 09VO 02VC 02MD 02MO 02MC 02RD 02RO	1	0	0.576556921005	-255.0	-2.0	-251	5	1
2.7	2015_Jun_04_1106	s	s	18	4	SIC	126	RC	2	2	09VD 02VO 02VC 02MD 02MO 02MC 02RD 02RO	1	0	0.99703502655	44.0	203.0	46	208	1
2.7	2015_Jun_04_1106	s	s	18	4	SIC	127	ABS	0	2	02VD 02VO 02VC 02MD 02MO 02MC 10RD 02RO	1	0	0.832201004028	None	None	-372	-12	0
2.7	2015_Jun_04_1106	s	s	18	4	SIC	128	ABS	1	1	02VD 02VO 02VC 02MD 10MO 02MC 02RD 02RO	1	0	1.62375807762	None	None	-211	388	0
2.7	2015_Jun_04_1106	s	s	18	4	SIC	129	RC	0	2	02VD 02VO 02VC 02MD 02MO 02MC 09RD 02RO	1	0	1.0404779911	-394.0	194.0	-397	190	1
2.7	2015_Jun_04_1106	s	s	18	4	SIC	130	ABS	2	0	02VD 02VO 10VC 02MD 02MO 02MC 02RD 02RO	1	0	0.772017002106	None	None	-321	66	0
2.7	2015_Jun_04_1106	s	s	18	4	SIC	131	ABS	1	0	02VD 02VO 02VC 02MD 02MO 10MC 02RD 02RO	1	0	0.976693868637	None	None	56	160	0
2.7	2015_Jun_04_1106	s	s	18	4	SIC	132	RC	1	2	02VD 02VO 02VC 09MD 02MO 02MC 02RD 02RO	1	0	1.35785317421	-451.0	61.0	-449	57	1
2.7	2015_Jun_04_1106	s	s	18	4	SIC	133	ABS	2	1	02VD 10VO 02VC 02MD 02MO 02MC 02RD 02RO	1	0	2.58356189728	None	None	240	92	0
2.7	2015_Jun_04_1106	s	s	18	4	SIC	134	RC	2	1	02VD 09VO 02VC 02MD 02MO 02MC 02RD 02RO	1	0	1.21165513992	161.0	246.0	158	242	1
2.7	2015_Jun_04_1106	s	s	18	4	SIC	135	ABS	2	2	10VD 02VO 02VC 02MD 02MO 02MC 02RD 02RO	1	0	1.33626413345	None	None	-275	265	0
2.7	2015_Jun_04_1106	s	s	18	4	SIC	136	ABS	1	1	02VD 02VO 02VC 02MD 10MO 02MC 02RD 02RO	1	0	0.764436006546	None	None	-353	196	0
2.7	2015_Jun_04_1106	s	s	18	4	SIC	137	RC	2	2	09VD 02VO 02VC 02MD 02MO 02MC 02RD 02RO	1	0	1.00883817673	-311.0	-387.0	-395	-16	0
2.7	2015_Jun_04_1106	s	s	18	4	SIC	138	ABS	1	2	02VD 02VO 02VC 10MD 02MO 02MC 02RD 02RO	1	0	1.07044100761	None	None	-222	374	0
2.7	2015_Jun_04_1106	s	s	18	4	SIC	139	ABS	0	1	02VD 02VO 02VC 02MD 02MO 02MC 02RD 10RO	1	0	1.15289711952	None	None	-398	37	0
2.7	2015_Jun_04_1106	s	s	18	4	SIC	140	RC	0	1	02VD 02VO 02VC 02MD 02MO 02MC 02RD 09RO	1	0	0.952791929245	-97.0	-317.0	147	31	0
2.7	2015_Jun_04_1106	s	s	18	4	SIC	141	ABS	0	2	02VD 02VO 02VC 02MD 02MO 02MC 10RD 02RO	1	0	0.846814870834	None	None	65	201	0
2.7	2015_Jun_04_1106	s	s	18	4	SIC	142	RC	1	0	02VD 02VO 02VC 02MD 02MO 09MC 02RD 02RO	1	0	0.467795133591	109.0	238.0	41	-43	0
2.7	2015_Jun_04_1106	s	s	18	4	SIC	143	RC	2	0	02VD 02VO 09VC 02MD 02MO 02MC 02RD 02RO	1	0	1.03520107269	-114.0	-202.0	-123	-200	1
2.7	2015_Jun_04_1106	s	s	18	4	SIC	144	RC	1	1	02VD 02VO 02VC 02MD 09MO 02MC 02RD 02RO	1	0	0.442817926407	137.0	96.0	134	99	1
2.7	2015_Jun_04_1106	s	s	18	4	SIC	145	RC	1	2	02VD 02VO 02VC 09MD 02MO 02MC 02RD 02RO	1	0	0.858780145645	308.0	404.0	178	321	0
2.7	2015_Jun_04_1106	s	s	18	4	SIC	146	ABS	1	0	02VD 02VO 02VC 02MD 02MO 10MC 02RD 02RO	1	0	0.326216936111	None	None	-200	97	0
2.7	2015_Jun_04_1106	s	s	18	4	SIC	147	ABS	0	1	02VD 02VO 02VC 02MD 02MO 02MC 02RD 10RO	1	0	0.588390827179	None	None	-245	154	0
2.7	2015_Jun_04_1106	s	s	18	4	SIC	148	ABS	1	2	02VD 02VO 02VC 10MD 02MO 02MC 02RD 02RO	1	0	0.823288917542	None	None	-180	-132	0
2.7	2015_Jun_04_1106	s	s	18	4	SIC	149	ABS	2	2	10VD 02VO 02VC 02MD 02MO 02MC 02RD 02RO	1	0	1.47064113617	None	None	349	141	0
2.7	2015_Jun_04_1106	s	s	18	4	SIC	150	RC	2	0	02VD 02VO 09VC 02MD 02MO 02MC 02RD 02RO	1	0	1.14119911194	360.0	-332.0	299	74	0
2.7	2015_Jun_04_1106	s	s	18	4	SIC	151	ABS	1	1	02VD 02VO 02VC 02MD 10MO 02MC 02RD 02RO	1	0	0.738368988037	None	None	-21	-148	0
2.7	2015_Jun_04_1106	s	s	18	4	SIC	152	RC	2	2	09VD 02VO 02VC 02MD 02MO 02MC 02RD 02RO	1	0	1.04693412781	-120.0	-401.0	-129	-405	1
2.7	2015_Jun_04_1106	s	s	18	4	SIC	153	RC	0	1	02VD 02VO 02VC 02MD 02MO 02MC 02RD 09RO	1	0	0.700417995453	-411.0	-46.0	134	46	0
2.7	2015_Jun_04_1106	s	s	18	4	SIC	154	RC	1	1	02VD 02VO 02VC 02MD 09MO 02MC 02RD 02RO	1	0	0.929219961166	375.0	-160.0	373	-155	1
2.7	2015_Jun_04_1106	s	s	18	4	SIC	155	ABS	0	2	02VD 02VO 02VC 02MD 02MO 02MC 10RD 02RO	1	0	1.83555603027	None	None	129	50	0
2.7	2015_Jun_04_1106	s	s	18	4	SIC	156	RC	0	2	02VD 02VO 02VC 02MD 02MO 02MC 09RD 02RO	1	0	0.664498090744	-488.0	96.0	-171	-108	0
2.7	2015_Jun_04_1106	s	s	18	4	SIC	157	ABS	2	0	02VD 02VO 10VC 02MD 02MO 02MC 02RD 02RO	1	0	0.807471036911	None	None	-178	-138	0
2.7	2015_Jun_04_1106	s	s	18	4	SIC	158	RC	1	0	02VD 02VO 02VC 02MD 02MO 09MC 02RD 02RO	1	0	0.99179315567	491.0	341.0	7	124	0
2.7	2015_Jun_04_1106	s	s	18	4	SIC	159	ABS	2	1	02VD 10VO 02VC 02MD 02MO 02MC 02RD 02RO	1	0	1.02342009544	None	None	169	381	0
2.7	2015_Jun_04_1106	s	s	18	4	SIC	160	RC	2	1	02VD 09VO 02VC 02MD 02MO 02MC 02RD 02RO	1	0	0.505443096161	193.0	322.0	-260	294	0
2.7	2015_Jun_04_1106	s	s	18	4	SIC	161	ABS	0	2	02VD 02VO 02VC 02MD 02MO 02MC 10RD 02RO	1	0	0.635123968124	None	None	9	177	0
2.7	2015_Jun_04_1106	s	s	18	4	SIC	162	ABS	1	1	02VD 02VO 02VC 02MD 10MO 02MC 02RD 02RO	1	0	2.2004430294	None	None	-402	201	0
2.7	2015_Jun_04_1106	s	s	18	4	SIC	163	RC	1	0	02VD 02VO 02VC 02MD 02MO 09MC 02RD 02RO	1	0	0.740755081177	-504.0	80.0	-210	-73	0
2.7	2015_Jun_04_1106	s	s	18	4	SIC	164	RC	2	1	02VD 09VO 02VC 02MD 02MO 02MC 02RD 02RO	1	0	0.898006916046	-115.0	-169.0	-108	-163	1
2.7	2015_Jun_04_1106	s	s	18	4	SIC	165	RC	1	2	02VD 02VO 02VC 09MD 02MO 02MC 02RD 02RO	1	0	0.587877035141	-57.0	162.0	-59	165	1
2.7	2015_Jun_04_1106	s	s	18	4	SIC	166	RC	1	1	02VD 02VO 02VC 02MD 09MO 02MC 02RD 02RO	1	0	0.976722002029	422.0	-47.0	-231	-148	0
2.7	2015_Jun_04_1106	s	s	18	4	SIC	167	ABS	2	0	02VD 02VO 10VC 02MD 02MO 02MC 02RD 02RO	1	0	0.893950939178	None	None	-108	-157	0
2.7	2015_Jun_04_1106	s	s	18	4	SIC	168	RC	2	2	09VD 02VO 02VC 02MD 02MO 02MC 02RD 02RO	1	0	0.641494035721	400.0	382.0	-183	-134	0
2.7	2015_Jun_04_1106	s	s	18	4	SIC	169	RC	2	0	02VD 02VO 09VC 02MD 02MO 02MC 02RD 02RO	1	0	1.10578799248	-472.0	-19.0	-468	-22	1
2.7	2015_Jun_04_1106	s	s	18	4	SIC	170	ABS	1	0	02VD 02VO 02VC 02MD 02MO 10MC 02RD 02RO	1	0	0.619551897049	None	None	-31	113	0
2.7	2015_Jun_04_1106	s	s	18	4	SIC	171	RC	0	2	02VD 02VO 02VC 02MD 02MO 02MC 09RD 02RO	1	0	0.618087053299	-430.0	309.0	59	212	0
2.7	2015_Jun_04_1106	s	s	18	4	SIC	172	ABS	2	1	02VD 10VO 02VC 02MD 02MO 02MC 02RD 02RO	1	0	0.797002792358	None	None	196	241	0
2.7	2015_Jun_04_1106	s	s	18	4	SIC	173	ABS	1	2	02VD 02VO 02VC 10MD 02MO 02MC 02RD 02RO	1	0	1.17648100853	None	None	-75	-89	0
2.7	2015_Jun_04_1106	s	s	18	4	SIC	174	RC	0	1	02VD 02VO 02VC 02MD 02MO 02MC 02RD 09RO	1	0	1.67761397362	-203.0	214.0	-207	219	1
2.7	2015_Jun_04_1106	s	s	18	4	SIC	175	ABS	2	2	10VD 02VO 02VC 02MD 02MO 02MC 02RD 02RO	1	0	0.737297058105	None	None	-478	-95	0
2.7	2015_Jun_04_1106	s	s	18	4	SIC	176	ABS	0	1	02VD 02VO 02VC 02MD 02MO 02MC 02RD 10RO	1	0	0.655264854431	None	None	-230	83	0
2.7	2015_Jun_04_1106	s	s	18	4	SIC	177	ABS	0	1	02VD 02VO 02VC 02MD 02MO 02MC 02RD 10RO	1	0	0.526287078857	None	None	-67	55	0
2.7	2015_Jun_04_1106	s	s	18	4	SIC	178	ABS	2	1	02VD 10VO 02VC 02MD 02MO 02MC 02RD 02RO	1	0	1.97401714325	None	None	-225	-217	0
2.7	2015_Jun_04_1106	s	s	18	4	SIC	179	ABS	1	2	02VD 02VO 02VC 10MD 02MO 02MC 02RD 02RO	1	0	0.882112026215	None	None	34	362	0
2.7	2015_Jun_04_1106	s	s	18	4	SIC	180	ABS	1	1	02VD 02VO 02VC 02MD 10MO 02MC 02RD 02RO	1	0	1.18819904327	None	None	-244	132	0
2.7	2015_Jun_04_1106	s	s	18	4	SIC	181	RC	0	1	02VD 02VO 02VC 02MD 02MO 02MC 02RD 09RO	1	0	1.12548017502	-32.0	-158.0	-212	87	0
2.7	2015_Jun_04_1106	s	s	18	4	SIC	182	ABS	0	2	02VD 02VO 02VC 02MD 02MO 02MC 10RD 02RO	1	0	1.12405204773	None	None	23	-242	0
2.7	2015_Jun_04_1106	s	s	18	4	SIC	183	RC	2	2	09VD 02VO 02VC 02MD 02MO 02MC 02RD 02RO	1	0	0.917420864105	-539.0	89.0	-267	-38	0
2.7	2015_Jun_04_1106	s	s	18	4	SIC	184	RC	2	1	02VD 09VO 02VC 02MD 02MO 02MC 02RD 02RO	1	0	0.587808132172	-427.0	-114.0	-377	-10	0
2.7	2015_Jun_04_1106	s	s	18	4	SIC	185	ABS	2	0	02VD 02VO 10VC 02MD 02MO 02MC 02RD 02RO	1	0	2.52672100067	None	None	331	370	0
2.7	2015_Jun_04_1106	s	s	18	4	SIC	186	RC	1	1	02VD 02VO 02VC 02MD 09MO 02MC 02RD 02RO	1	0	0.794760942459	-246.0	394.0	-202	14	0
2.7	2015_Jun_04_1106	s	s	18	4	SIC	187	ABS	2	2	10VD 02VO 02VC 02MD 02MO 02MC 02RD 02RO	1	0	0.823364973068	None	None	141	130	0
2.7	2015_Jun_04_1106	s	s	18	4	SIC	188	RC	1	2	02VD 02VO 02VC 09MD 02MO 02MC 02RD 02RO	1	0	0.670711040497	-157.0	348.0	71	357	0
2.7	2015_Jun_04_1106	s	s	18	4	SIC	189	RC	2	0	02VD 02VO 09VC 02MD 02MO 02MC 02RD 02RO	1	0	0.870301008224	-79.0	-68.0	-86	-75	1
2.7	2015_Jun_04_1106	s	s	18	4	SIC	190	ABS	1	0	02VD 02VO 02VC 02MD 02MO 10MC 02RD 02RO	1	0	0.717415094376	None	None	140	-53	0
2.7	2015_Jun_04_1106	s	s	18	4	SIC	191	RC	0	2	02VD 02VO 02VC 02MD 02MO 02MC 09RD 02RO	1	0	1.12660813332	-399.0	-116.0	-175	196	0
2.7	2015_Jun_04_1106	s	s	18	4	SIC	192	RC	1	0	02VD 02VO 02VC 02MD 02MO 09MC 02RD 02RO	1	0	0.655575037003	-82.0	308.0	37	71	0
2.7	2015_Jun_04_1106	s	s	18	4	SIC	193	RC	1	1	02VD 02VO 02VC 02MD 09MO 02MC 02RD 02RO	1	0	0.665205001831	-480.0	261.0	64	10	0
2.7	2015_Jun_04_1106	s	s	18	4	SIC	194	RC	2	2	09VD 02VO 02VC 02MD 02MO 02MC 02RD 02RO	1	0	0.502349853516	-67.0	124.0	-67	111	1
2.7	2015_Jun_04_1106	s	s	18	4	SIC	195	RC	1	0	02VD 02VO 02VC 02MD 02MO 09MC 02RD 02RO	1	0	0.502051830292	456.0	295.0	-22	221	0
2.7	2015_Jun_04_1106	s	s	18	4	SIC	196	ABS	2	1	02VD 10VO 02VC 02MD 02MO 02MC 02RD 02RO	1	0	1.54734611511	None	None	-97	-4	0
2.7	2015_Jun_04_1106	s	s	18	4	SIC	197	ABS	1	2	02VD 02VO 02VC 10MD 02MO 02MC 02RD 02RO	1	0	0.818322896957	None	None	-178	-205	0
2.7	2015_Jun_04_1106	s	s	18	4	SIC	198	ABS	0	2	02VD 02VO 02VC 02MD 02MO 02MC 10RD 02RO	1	0	0.776155948639	None	None	-182	-195	0
2.7	2015_Jun_04_1106	s	s	18	4	SIC	199	RC	2	0	02VD 02VO 09VC 02MD 02MO 02MC 02RD 02RO	1	0	1.0585770607	-218.0	397.0	2	124	0
2.7	2015_Jun_04_1106	s	s	18	4	SIC	200	ABS	0	1	02VD 02VO 02VC 02MD 02MO 02MC 02RD 10RO	1	0	1.81203317642	None	None	-95	-147	0
2.7	2015_Jun_04_1106	s	s	18	4	SIC	201	RC	1	2	02VD 02VO 02VC 09MD 02MO 02MC 02RD 02RO	1	0	0.936092853546	219.0	-40.0	217	-37	1
2.7	2015_Jun_04_1106	s	s	18	4	SIC	202	ABS	1	0	02VD 02VO 02VC 02MD 02MO 10MC 02RD 02RO	1	0	0.453362941742	None	None	-87	27	0
2.7	2015_Jun_04_1106	s	s	18	4	SIC	203	ABS	1	1	02VD 02VO 02VC 02MD 10MO 02MC 02RD 02RO	1	0	1.49434709549	None	None	-404	221	0
2.7	2015_Jun_04_1106	s	s	18	4	SIC	204	RC	0	1	02VD 02VO 02VC 02MD 02MO 02MC 02RD 09RO	1	0	0.831779003143	-411.0	168.0	-411	174	1
2.7	2015_Jun_04_1106	s	s	18	4	SIC	205	ABS	2	2	10VD 02VO 02VC 02MD 02MO 02MC 02RD 02RO	1	0	0.823489904404	None	None	-437	332	0
2.7	2015_Jun_04_1106	s	s	18	4	SIC	206	RC	2	1	02VD 09VO 02VC 02MD 02MO 02MC 02RD 02RO	1	0	0.673907995224	-483.0	361.0	-494	361	1
2.7	2015_Jun_04_1106	s	s	18	4	SIC	207	RC	0	2	02VD 02VO 02VC 02MD 02MO 02MC 09RD 02RO	1	0	0.795274972916	-266.0	366.0	-355	128	0
2.7	2015_Jun_04_1106	s	s	18	4	SIC	208	ABS	2	0	02VD 02VO 10VC 02MD 02MO 02MC 02RD 02RO	1	0	1.03528904915	None	None	99	302	0
2.7	2015_Jun_04_1106	s	s	18	4	SIC	209	ABS	2	2	10VD 02VO 02VC 02MD 02MO 02MC 02RD 02RO	1	0	0.941061019897	None	None	125	-269	0
2.7	2015_Jun_04_1106	s	s	18	4	SIC	210	RC	1	0	02VD 02VO 02VC 02MD 02MO 09MC 02RD 02RO	1	0	0.525865793228	-196.0	121.0	-191	125	1
2.7	2015_Jun_04_1106	s	s	18	4	SIC	211	RC	1	2	02VD 02VO 02VC 09MD 02MO 02MC 02RD 02RO	1	0	1.19656920433	470.0	-363.0	-354	385	0
2.7	2015_Jun_04_1106	s	s	18	4	SIC	212	RC	2	0	02VD 02VO 09VC 02MD 02MO 02MC 02RD 02RO	1	0	1.1483938694	128.0	-119.0	122	-128	1
2.7	2015_Jun_04_1106	s	s	18	4	SIC	213	ABS	1	1	02VD 02VO 02VC 02MD 10MO 02MC 02RD 02RO	1	0	1.81196522713	None	None	-274	-269	0
2.7	2015_Jun_04_1106	s	s	18	4	SIC	214	ABS	2	1	02VD 10VO 02VC 02MD 02MO 02MC 02RD 02RO	1	0	1.38824987411	None	None	-388	69	0
2.7	2015_Jun_04_1106	s	s	18	4	SIC	215	ABS	2	0	02VD 02VO 10VC 02MD 02MO 02MC 02RD 02RO	1	0	1.22355413437	None	None	255	388	0
2.7	2015_Jun_04_1106	s	s	18	4	SIC	216	RC	2	1	02VD 09VO 02VC 02MD 02MO 02MC 02RD 02RO	1	0	0.658514976501	192.0	-22.0	190	-26	1
2.7	2015_Jun_04_1106	s	s	18	4	SIC	217	RC	0	2	02VD 02VO 02VC 02MD 02MO 02MC 09RD 02RO	1	0	1.70396995544	316.0	-370.0	319	-369	1
2.7	2015_Jun_04_1106	s	s	18	4	SIC	218	RC	2	2	09VD 02VO 02VC 02MD 02MO 02MC 02RD 02RO	1	0	0.570695161819	-154.0	-303.0	279	-13	0
2.7	2015_Jun_04_1106	s	s	18	4	SIC	219	ABS	1	0	02VD 02VO 02VC 02MD 02MO 10MC 02RD 02RO	1	0	1.03293013573	None	None	-278	45	0
2.7	2015_Jun_04_1106	s	s	18	4	SIC	220	ABS	0	1	02VD 02VO 02VC 02MD 02MO 02MC 02RD 10RO	1	0	1.73769307137	None	None	399	141	0
2.7	2015_Jun_04_1106	s	s	18	4	SIC	221	RC	0	1	02VD 02VO 02VC 02MD 02MO 02MC 02RD 09RO	1	0	0.952769994736	304.0	247.0	305	244	1
2.7	2015_Jun_04_1106	s	s	18	4	SIC	222	ABS	1	2	02VD 02VO 02VC 10MD 02MO 02MC 02RD 02RO	1	0	0.870376110077	None	None	79	182	0
2.7	2015_Jun_04_1106	s	s	18	4	SIC	223	RC	1	1	02VD 02VO 02VC 02MD 09MO 02MC 02RD 02RO	1	0	0.50556397438	-167.0	44.0	-165	43	1
2.7	2015_Jun_04_1106	s	s	18	4	SIC	224	ABS	0	2	02VD 02VO 02VC 02MD 02MO 02MC 10RD 02RO	1	0	0.771399974823	None	None	119	186	0
2.7	2015_Jun_04_1106	s	s	18	4	SIC	225	ABS	1	1	02VD 02VO 02VC 02MD 10MO 02MC 02RD 02RO	1	0	1.98509502411	None	None	-378	27	0
2.7	2015_Jun_04_1106	s	s	18	4	SIC	226	ABS	2	2	10VD 02VO 02VC 02MD 02MO 02MC 02RD 02RO	1	0	1.63172483444	None	None	-194	405	0
2.7	2015_Jun_04_1106	s	s	18	4	SIC	227	RC	0	2	02VD 02VO 02VC 02MD 02MO 02MC 09RD 02RO	1	0	0.71243596077	457.0	217.0	-72	140	0
2.7	2015_Jun_04_1106	s	s	18	4	SIC	228	ABS	2	1	02VD 10VO 02VC 02MD 02MO 02MC 02RD 02RO	1	0	1.51764798164	None	None	-14	-335	0
2.7	2015_Jun_04_1106	s	s	18	4	SIC	229	RC	2	2	09VD 02VO 02VC 02MD 02MO 02MC 02RD 02RO	1	0	0.599575996399	-383.0	-85.0	-75	-31	0
2.7	2015_Jun_04_1106	s	s	18	4	SIC	230	ABS	1	2	02VD 02VO 02VC 10MD 02MO 02MC 02RD 02RO	1	0	1.58515286446	None	None	-351	351	0
2.7	2015_Jun_04_1106	s	s	18	4	SIC	231	ABS	2	0	02VD 02VO 10VC 02MD 02MO 02MC 02RD 02RO	1	0	0.761589050293	None	None	55	234	0
2.7	2015_Jun_04_1106	s	s	18	4	SIC	232	RC	1	0	02VD 02VO 02VC 02MD 02MO 09MC 02RD 02RO	1	0	0.617780923843	-277.0	19.0	-276	25	1
2.7	2015_Jun_04_1106	s	s	18	4	SIC	233	RC	1	2	02VD 02VO 02VC 09MD 02MO 02MC 02RD 02RO	1	0	0.6524310112	55.0	-102.0	-462	58	0
2.7	2015_Jun_04_1106	s	s	18	4	SIC	234	ABS	1	0	02VD 02VO 02VC 02MD 02MO 10MC 02RD 02RO	1	0	0.549291133881	None	None	-197	-34	0
2.7	2015_Jun_04_1106	s	s	18	4	SIC	235	RC	2	0	02VD 02VO 09VC 02MD 02MO 02MC 02RD 02RO	1	0	0.917454957962	253.0	-327.0	-488	40	0
2.7	2015_Jun_04_1106	s	s	18	4	SIC	236	RC	0	1	02VD 02VO 02VC 02MD 02MO 02MC 02RD 09RO	1	0	0.688665866852	447.0	-371.0	23	59	0
2.7	2015_Jun_04_1106	s	s	18	4	SIC	237	RC	2	1	02VD 09VO 02VC 02MD 02MO 02MC 02RD 02RO	1	0	0.770864963531	-43.0	-70.0	-45	-71	1
2.7	2015_Jun_04_1106	s	s	18	4	SIC	238	RC	1	1	02VD 02VO 02VC 02MD 09MO 02MC 02RD 02RO	1	0	1.80029892921	488.0	-351.0	-393	143	0
2.7	2015_Jun_04_1106	s	s	18	4	SIC	239	ABS	0	2	02VD 02VO 02VC 02MD 02MO 02MC 10RD 02RO	1	0	1.68236112595	None	None	-400	-204	0
2.7	2015_Jun_04_1106	s	s	18	4	SIC	240	ABS	0	1	02VD 02VO 02VC 02MD 02MO 02MC 02RD 10RO	1	0	1.73707079887	None	None	-452	-385	0
2.7	2015_Jun_04_1106	s	s	18	4	SIC	241	ABS	2	1	02VD 10VO 02VC 02MD 02MO 02MC 02RD 02RO	1	0	1.70611000061	None	None	74	268	0
2.7	2015_Jun_04_1106	s	s	18	4	SIC	242	ABS	2	2	10VD 02VO 02VC 02MD 02MO 02MC 02RD 02RO	1	0	1.32948899269	None	None	312	-420	0
2.7	2015_Jun_04_1106	s	s	18	4	SIC	243	ABS	2	0	02VD 02VO 10VC 02MD 02MO 02MC 02RD 02RO	1	0	1.58321905136	None	None	238	174	0
2.7	2015_Jun_04_1106	s	s	18	4	SIC	244	RC	0	1	02VD 02VO 02VC 02MD 02MO 02MC 02RD 09RO	1	0	1.44715189934	-259.0	-246.0	-256	-249	1
2.7	2015_Jun_04_1106	s	s	18	4	SIC	245	ABS	0	2	02VD 02VO 02VC 02MD 02MO 02MC 10RD 02RO	1	0	2.12983703613	None	None	410	-177	0
2.7	2015_Jun_04_1106	s	s	18	4	SIC	246	RC	2	2	09VD 02VO 02VC 02MD 02MO 02MC 02RD 02RO	1	0	0.973148107529	61.0	-82.0	-265	415	0
2.7	2015_Jun_04_1106	s	s	18	4	SIC	247	RC	1	0	02VD 02VO 02VC 02MD 02MO 09MC 02RD 02RO	1	0	0.564461946487	-173.0	-57.0	-153	258	0
2.7	2015_Jun_04_1106	s	s	18	4	SIC	248	RC	2	0	02VD 02VO 09VC 02MD 02MO 02MC 02RD 02RO	1	0	0.705591917038	492.0	318.0	-358	164	0
2.7	2015_Jun_04_1106	s	s	18	4	SIC	249	ABS	0	1	02VD 02VO 02VC 02MD 02MO 02MC 02RD 10RO	1	0	3.27168011665	None	None	472	-70	0
2.7	2015_Jun_04_1106	s	s	18	4	SIC	250	RC	2	1	02VD 09VO 02VC 02MD 02MO 02MC 02RD 02RO	1	0	1.17069196701	9.0	-267.0	-263	-48	0
2.7	2015_Jun_04_1106	s	s	18	4	SIC	251	ABS	1	1	02VD 02VO 02VC 02MD 10MO 02MC 02RD 02RO	1	0	0.736177921295	None	None	-154	402	0
2.7	2015_Jun_04_1106	s	s	18	4	SIC	252	ABS	1	0	02VD 02VO 02VC 02MD 02MO 10MC 02RD 02RO	1	0	0.996240139008	None	None	-327	321	0
2.7	2015_Jun_04_1106	s	s	18	4	SIC	253	ABS	1	2	02VD 02VO 02VC 10MD 02MO 02MC 02RD 02RO	1	0	0.976320028305	None	None	-266	-72	0
2.7	2015_Jun_04_1106	s	s	18	4	SIC	254	RC	0	2	02VD 02VO 02VC 02MD 02MO 02MC 09RD 02RO	1	0	0.791729211807	283.0	380.0	-474	-322	0
2.7	2015_Jun_04_1106	s	s	18	4	SIC	255	RC	1	1	02VD 02VO 02VC 02MD 09MO 02MC 02RD 02RO	1	0	1.17216205597	232.0	-91.0	241	-94	1
2.7	2015_Jun_04_1106	s	s	18	4	SIC	256	RC	1	2	02VD 02VO 02VC 09MD 02MO 02MC 02RD 02RO	1	0	1.02114200592	-437.0	-217.0	-139	116	0
2.7	2015_Jun_04_1106	s	s	18	4	SIC	257	ABS	2	0	02VD 02VO 10VC 02MD 02MO 02MC 02RD 02RO	1	0	0.646760940552	None	None	32	117	0
2.7	2015_Jun_04_1106	s	s	18	4	SIC	258	RC	0	1	02VD 02VO 02VC 02MD 02MO 02MC 02RD 09RO	1	0	0.832160949707	-302.0	-301.0	-42	161	0
2.7	2015_Jun_04_1106	s	s	18	4	SIC	259	RC	2	0	02VD 02VO 09VC 02MD 02MO 02MC 02RD 02RO	1	0	1.52954983711	-74.0	-218.0	-80	-223	1
2.7	2015_Jun_04_1106	s	s	18	4	SIC	260	ABS	0	2	02VD 02VO 02VC 02MD 02MO 02MC 10RD 02RO	1	0	1.51762604713	None	None	373	44	0
2.7	2015_Jun_04_1106	s	s	18	4	SIC	261	RC	1	1	02VD 02VO 02VC 02MD 09MO 02MC 02RD 02RO	1	0	0.511085033417	-383.0	-71.0	-1	-154	0
2.7	2015_Jun_04_1106	s	s	18	4	SIC	262	ABS	0	1	02VD 02VO 02VC 02MD 02MO 02MC 02RD 10RO	1	0	1.39987182617	None	None	-497	-40	0
2.7	2015_Jun_04_1106	s	s	18	4	SIC	263	ABS	1	2	02VD 02VO 02VC 10MD 02MO 02MC 02RD 02RO	1	0	0.973615884781	None	None	322	44	0
2.7	2015_Jun_04_1106	s	s	18	4	SIC	264	RC	2	1	02VD 09VO 02VC 02MD 02MO 02MC 02RD 02RO	1	0	0.870349884033	-229.0	-72.0	-221	-70	1
2.7	2015_Jun_04_1106	s	s	18	4	SIC	265	RC	1	0	02VD 02VO 02VC 02MD 02MO 09MC 02RD 02RO	1	0	0.670351028442	306.0	354.0	-267	-191	0
2.7	2015_Jun_04_1106	s	s	18	4	SIC	266	RC	1	2	02VD 02VO 02VC 09MD 02MO 02MC 02RD 02RO	1	0	0.846882820129	8.0	261.0	14	264	1
2.7	2015_Jun_04_1106	s	s	18	4	SIC	267	ABS	2	1	02VD 10VO 02VC 02MD 02MO 02MC 02RD 02RO	1	0	1.3647441864	None	None	-501	-119	0
2.7	2015_Jun_04_1106	s	s	18	4	SIC	268	ABS	2	2	10VD 02VO 02VC 02MD 02MO 02MC 02RD 02RO	1	0	0.729132890701	None	None	-525	-94	0
2.7	2015_Jun_04_1106	s	s	18	4	SIC	269	RC	2	2	09VD 02VO 02VC 02MD 02MO 02MC 02RD 02RO	1	0	0.988074064255	175.0	-319.0	65	51	0
2.7	2015_Jun_04_1106	s	s	18	4	SIC	270	ABS	1	0	02VD 02VO 02VC 02MD 02MO 10MC 02RD 02RO	1	0	0.702121973038	None	None	88	14	0
2.7	2015_Jun_04_1106	s	s	18	4	SIC	271	ABS	1	1	02VD 02VO 02VC 02MD 10MO 02MC 02RD 02RO	1	0	2.24470806122	None	None	-66	-349	0
2.7	2015_Jun_04_1106	s	s	18	4	SIC	272	RC	0	2	02VD 02VO 02VC 02MD 02MO 02MC 09RD 02RO	1	0	0.712183952332	433.0	107.0	13	301	0
2.7	2015_Jun_04_1106	s	s	18	4	SIC	273	ABS	2	2	10VD 02VO 02VC 02MD 02MO 02MC 02RD 02RO	1	0	1.41184210777	None	None	46	-398	0
2.7	2015_Jun_04_1106	s	s	18	4	SIC	274	RC	0	1	02VD 02VO 02VC 02MD 02MO 02MC 02RD 09RO	1	0	0.913150072098	-447.0	-187.0	-447	-189	1
2.7	2015_Jun_04_1106	s	s	18	4	SIC	275	ABS	0	1	02VD 02VO 02VC 02MD 02MO 02MC 02RD 10RO	1	0	1.95331692696	None	None	-305	-235	0
2.7	2015_Jun_04_1106	s	s	18	4	SIC	276	ABS	2	1	02VD 10VO 02VC 02MD 02MO 02MC 02RD 02RO	1	0	0.793691158295	None	None	3	223	0
2.7	2015_Jun_04_1106	s	s	18	4	SIC	277	RC	2	2	09VD 02VO 02VC 02MD 02MO 02MC 02RD 02RO	1	0	1.0587208271	265.0	149.0	-101	-236	0
2.7	2015_Jun_04_1106	s	s	18	4	SIC	278	ABS	1	1	02VD 02VO 02VC 02MD 10MO 02MC 02RD 02RO	1	0	0.705498933792	None	None	-112	-219	0
2.7	2015_Jun_04_1106	s	s	18	4	SIC	279	ABS	2	0	02VD 02VO 10VC 02MD 02MO 02MC 02RD 02RO	1	0	0.93864107132	None	None	34	46	0
2.7	2015_Jun_04_1106	s	s	18	4	SIC	280	ABS	1	2	02VD 02VO 02VC 10MD 02MO 02MC 02RD 02RO	1	0	0.547693014145	None	None	-36	232	0
2.7	2015_Jun_04_1106	s	s	18	4	SIC	281	ABS	0	2	02VD 02VO 02VC 02MD 02MO 02MC 10RD 02RO	1	0	2.05380105972	None	None	-231	-99	0
2.7	2015_Jun_04_1106	s	s	18	4	SIC	282	RC	2	1	02VD 09VO 02VC 02MD 02MO 02MC 02RD 02RO	1	0	0.799659967422	283.0	-331.0	-6	290	0
2.7	2015_Jun_04_1106	s	s	18	4	SIC	283	RC	2	0	02VD 02VO 09VC 02MD 02MO 02MC 02RD 02RO	1	0	1.44264817238	-232.0	387.0	-27	-113	0
2.7	2015_Jun_04_1106	s	s	18	4	SIC	284	ABS	1	0	02VD 02VO 02VC 02MD 02MO 10MC 02RD 02RO	1	0	0.638693809509	None	None	27	172	0
2.7	2015_Jun_04_1106	s	s	18	4	SIC	285	RC	1	2	02VD 02VO 02VC 09MD 02MO 02MC 02RD 02RO	1	0	1.06545305252	-434.0	-324.0	-511	19	0
2.7	2015_Jun_04_1106	s	s	18	4	SIC	286	RC	1	1	02VD 02VO 02VC 02MD 09MO 02MC 02RD 02RO	1	0	1.21921205521	311.0	-92.0	-43	-179	0
2.7	2015_Jun_04_1106	s	s	18	4	SIC	287	RC	1	0	02VD 02VO 02VC 02MD 02MO 09MC 02RD 02RO	1	0	0.500091075897	-198.0	-360.0	-166	-191	0
2.7	2015_Jun_04_1106	s	s	18	4	SIC	288	RC	0	2	02VD 02VO 02VC 02MD 02MO 02MC 09RD 02RO	1	0	0.736674070358	-288.0	-229.0	-18	-201	0
2.7	2015_Jun_04_1106	s	s	18	4	SIC	289	ABS	1	1	02VD 02VO 02VC 02MD 10MO 02MC 02RD 02RO	1	0	1.90617108345	None	None	390	-209	0
2.7	2015_Jun_04_1106	s	s	18	4	SIC	290	RC	0	1	02VD 02VO 02VC 02MD 02MO 02MC 02RD 09RO	1	0	0.571701049805	347.0	232.0	-209	61	0
2.7	2015_Jun_04_1106	s	s	18	4	SIC	291	ABS	2	0	02VD 02VO 10VC 02MD 02MO 02MC 02RD 02RO	1	0	0.694123029709	None	None	-82	272	0
2.7	2015_Jun_04_1106	s	s	18	4	SIC	292	RC	1	0	02VD 02VO 02VC 02MD 02MO 09MC 02RD 02RO	1	0	0.611411094666	-538.0	-219.0	-258	-186	0
2.7	2015_Jun_04_1106	s	s	18	4	SIC	293	ABS	0	1	02VD 02VO 02VC 02MD 02MO 02MC 02RD 10RO	1	0	2.65523886681	None	None	495	375	0
2.7	2015_Jun_04_1106	s	s	18	4	SIC	294	ABS	0	2	02VD 02VO 02VC 02MD 02MO 02MC 10RD 02RO	1	0	0.823422908783	None	None	229	247	0
2.7	2015_Jun_04_1106	s	s	18	4	SIC	295	ABS	1	0	02VD 02VO 02VC 02MD 02MO 10MC 02RD 02RO	1	0	0.537513971329	None	None	-30	5	0
2.7	2015_Jun_04_1106	s	s	18	4	SIC	296	RC	2	2	09VD 02VO 02VC 02MD 02MO 02MC 02RD 02RO	1	0	1.0542049408	165.0	-375.0	-169	-366	0
2.7	2015_Jun_04_1106	s	s	18	4	SIC	297	RC	2	1	02VD 09VO 02VC 02MD 02MO 02MC 02RD 02RO	1	0	1.49932813644	-453.0	315.0	-457	322	1
2.7	2015_Jun_04_1106	s	s	18	4	SIC	298	ABS	2	2	10VD 02VO 02VC 02MD 02MO 02MC 02RD 02RO	1	0	1.18819689751	None	None	-296	388	0
2.7	2015_Jun_04_1106	s	s	18	4	SIC	299	RC	0	2	02VD 02VO 02VC 02MD 02MO 02MC 09RD 02RO	1	0	0.976331949234	332.0	-404.0	390	119	0
2.7	2015_Jun_04_1106	s	s	18	4	SIC	300	RC	1	2	02VD 02VO 02VC 09MD 02MO 02MC 02RD 02RO	1	0	0.561593055725	-113.0	142.0	-118	141	1
2.7	2015_Jun_04_1106	s	s	18	4	SIC	301	ABS	1	2	02VD 02VO 02VC 10MD 02MO 02MC 02RD 02RO	1	0	1.15923690796	None	None	416	61	0
2.7	2015_Jun_04_1106	s	s	18	4	SIC	302	RC	1	1	02VD 02VO 02VC 02MD 09MO 02MC 02RD 02RO	1	0	0.570161819458	-177.0	-49.0	-182	-50	1
2.7	2015_Jun_04_1106	s	s	18	4	SIC	303	ABS	2	1	02VD 10VO 02VC 02MD 02MO 02MC 02RD 02RO	1	0	1.41835093498	None	None	479	52	0
2.7	2015_Jun_04_1106	s	s	18	4	SIC	304	RC	2	0	02VD 02VO 09VC 02MD 02MO 02MC 02RD 02RO	1	0	0.691473960876	260.0	-389.0	-224	176	0
2.7	2015_Jun_04_1106	s	s	18	4	SIC	305	RC	1	0	02VD 02VO 02VC 02MD 02MO 09MC 02RD 02RO	1	0	0.758675098419	248.0	347.0	71	212	0
2.7	2015_Jun_04_1106	s	s	18	4	SIC	306	ABS	2	2	10VD 02VO 02VC 02MD 02MO 02MC 02RD 02RO	1	0	1.21168398857	None	None	464	15	0
2.7	2015_Jun_04_1106	s	s	18	4	SIC	307	RC	0	2	02VD 02VO 02VC 02MD 02MO 02MC 09RD 02RO	1	0	0.723932027817	481.0	47.0	487	48	1
2.7	2015_Jun_04_1106	s	s	18	4	SIC	308	ABS	0	1	02VD 02VO 02VC 02MD 02MO 02MC 02RD 10RO	1	0	0.517321825027	None	None	384	75	0
2.7	2015_Jun_04_1106	s	s	18	4	SIC	309	RC	2	1	02VD 09VO 02VC 02MD 02MO 02MC 02RD 02RO	1	0	0.960093975067	-135.0	-114.0	502	48	0
2.7	2015_Jun_04_1106	s	s	18	4	SIC	310	RC	1	2	02VD 02VO 02VC 09MD 02MO 02MC 02RD 02RO	1	0	0.717525005341	-429.0	24.0	-426	24	1
2.7	2015_Jun_04_1106	s	s	18	4	SIC	311	ABS	2	0	02VD 02VO 10VC 02MD 02MO 02MC 02RD 02RO	1	0	0.846729040146	None	None	-273	-34	0
2.7	2015_Jun_04_1106	s	s	18	4	SIC	312	ABS	1	2	02VD 02VO 02VC 10MD 02MO 02MC 02RD 02RO	1	0	0.446567058563	None	None	-177	126	0
2.7	2015_Jun_04_1106	s	s	18	4	SIC	313	RC	1	1	02VD 02VO 02VC 02MD 09MO 02MC 02RD 02RO	1	0	0.795001029968	68.0	-287.0	147	-18	0
2.7	2015_Jun_04_1106	s	s	18	4	SIC	314	RC	0	1	02VD 02VO 02VC 02MD 02MO 02MC 02RD 09RO	1	0	1.43543410301	385.0	239.0	382	238	1
2.7	2015_Jun_04_1106	s	s	18	4	SIC	315	ABS	1	1	02VD 02VO 02VC 02MD 10MO 02MC 02RD 02RO	1	0	0.811734199524	None	None	181	411	0
2.7	2015_Jun_04_1106	s	s	18	4	SIC	316	RC	2	2	09VD 02VO 02VC 02MD 02MO 02MC 02RD 02RO	1	0	0.794229984283	-144.0	400.0	-228	169	0
2.7	2015_Jun_04_1106	s	s	18	4	SIC	317	ABS	2	1	02VD 10VO 02VC 02MD 02MO 02MC 02RD 02RO	1	0	0.512065887451	None	None	-73	-30	0
2.7	2015_Jun_04_1106	s	s	18	4	SIC	318	ABS	1	0	02VD 02VO 02VC 02MD 02MO 10MC 02RD 02RO	1	0	0.623142004013	None	None	-42	-56	0
2.7	2015_Jun_04_1106	s	s	18	4	SIC	319	RC	2	0	02VD 02VO 09VC 02MD 02MO 02MC 02RD 02RO	1	0	0.740983963013	-334.0	-56.0	39	-10	0
2.7	2015_Jun_04_1106	s	s	18	4	SIC	320	ABS	0	2	02VD 02VO 02VC 02MD 02MO 02MC 10RD 02RO	1	0	0.634960889816	None	None	-7	-132	0
2.7	2015_Jun_04_1106	s	s	18	4	SIC	321	ABS	1	0	02VD 02VO 02VC 02MD 02MO 10MC 02RD 02RO	1	0	0.605425834656	None	None	150	53	0
2.7	2015_Jun_04_1106	s	s	18	4	SIC	322	RC	0	1	02VD 02VO 02VC 02MD 02MO 02MC 02RD 09RO	1	0	0.667653799057	186.0	153.0	176	159	1
2.7	2015_Jun_04_1106	s	s	18	4	SIC	323	RC	1	2	02VD 02VO 02VC 09MD 02MO 02MC 02RD 02RO	1	0	0.75883603096	235.0	-172.0	-122	1	0
2.7	2015_Jun_04_1106	s	s	18	4	SIC	324	RC	2	0	02VD 02VO 09VC 02MD 02MO 02MC 02RD 02RO	1	0	1.09404420853	-372.0	380.0	-248	320	0
2.7	2015_Jun_04_1106	s	s	18	4	SIC	325	RC	1	0	02VD 02VO 02VC 02MD 02MO 09MC 02RD 02RO	1	0	0.902320861816	-435.0	-217.0	319	222	0
2.7	2015_Jun_04_1106	s	s	18	4	SIC	326	ABS	2	2	10VD 02VO 02VC 02MD 02MO 02MC 02RD 02RO	1	0	1.87876605988	None	None	-191	149	0
2.7	2015_Jun_04_1106	s	s	18	4	SIC	327	ABS	2	0	02VD 02VO 10VC 02MD 02MO 02MC 02RD 02RO	1	0	0.982492923737	None	None	-92	-103	0
2.7	2015_Jun_04_1106	s	s	18	4	SIC	328	RC	2	2	09VD 02VO 02VC 02MD 02MO 02MC 02RD 02RO	1	0	1.04101705551	133.0	410.0	-287	375	0
2.7	2015_Jun_04_1106	s	s	18	4	SIC	329	ABS	0	2	02VD 02VO 02VC 02MD 02MO 02MC 10RD 02RO	1	0	0.50546002388	None	None	-17	132	0
2.7	2015_Jun_04_1106	s	s	18	4	SIC	330	RC	0	2	02VD 02VO 02VC 02MD 02MO 02MC 09RD 02RO	1	0	1.00830388069	-479.0	-284.0	-100	353	0
2.7	2015_Jun_04_1106	s	s	18	4	SIC	331	ABS	1	2	02VD 02VO 02VC 10MD 02MO 02MC 02RD 02RO	1	0	0.611499071121	None	None	-159	148	0
2.7	2015_Jun_04_1106	s	s	18	4	SIC	332	ABS	2	1	02VD 10VO 02VC 02MD 02MO 02MC 02RD 02RO	1	0	1.27063107491	None	None	81	-236	0
2.7	2015_Jun_04_1106	s	s	18	4	SIC	333	ABS	1	1	02VD 02VO 02VC 02MD 10MO 02MC 02RD 02RO	1	0	1.19515299797	None	None	41	337	0
2.7	2015_Jun_04_1106	s	s	18	4	SIC	334	ABS	0	1	02VD 02VO 02VC 02MD 02MO 02MC 02RD 10RO	1	0	1.20692586899	None	None	-175	397	0
2.7	2015_Jun_04_1106	s	s	18	4	SIC	335	RC	1	1	02VD 02VO 02VC 02MD 09MO 02MC 02RD 02RO	1	0	0.796530008316	-83.0	-379.0	77	270	0
2.7	2015_Jun_04_1106	s	s	18	4	SIC	336	RC	2	1	02VD 09VO 02VC 02MD 02MO 02MC 02RD 02RO	1	0	1.47062397003	321.0	-25.0	-440	406	0
2.7	2015_Jun_04_1106	s	s	18	4	SIC	337	RC	0	2	02VD 02VO 02VC 02MD 02MO 02MC 09RD 02RO	1	0	0.805314064026	-421.0	368.0	-419	374	1
2.7	2015_Jun_04_1106	s	s	18	4	SIC	338	ABS	2	0	02VD 02VO 10VC 02MD 02MO 02MC 02RD 02RO	1	0	0.458292007446	None	None	-397	-152	0
2.7	2015_Jun_04_1106	s	s	18	4	SIC	339	ABS	1	1	02VD 02VO 02VC 02MD 10MO 02MC 02RD 02RO	1	0	0.705599069595	None	None	-346	-160	0
2.7	2015_Jun_04_1106	s	s	18	4	SIC	340	ABS	2	2	10VD 02VO 02VC 02MD 02MO 02MC 02RD 02RO	1	0	0.505347013474	None	None	24	221	0
2.7	2015_Jun_04_1106	s	s	18	4	SIC	341	ABS	2	1	02VD 10VO 02VC 02MD 02MO 02MC 02RD 02RO	1	0	0.770576000214	None	None	-540	179	0
2.7	2015_Jun_04_1106	s	s	18	4	SIC	342	RC	1	2	02VD 02VO 02VC 09MD 02MO 02MC 02RD 02RO	1	0	0.517272949219	-160.0	-274.0	-79	62	0
2.7	2015_Jun_04_1106	s	s	18	4	SIC	343	RC	1	1	02VD 02VO 02VC 02MD 09MO 02MC 02RD 02RO	1	0	1.0585770607	-371.0	128.0	-369	138	1
2.7	2015_Jun_04_1106	s	s	18	4	SIC	344	RC	0	1	02VD 02VO 02VC 02MD 02MO 02MC 02RD 09RO	1	0	0.479631900787	-345.0	160.0	-347	167	1
2.7	2015_Jun_04_1106	s	s	18	4	SIC	345	ABS	0	1	02VD 02VO 02VC 02MD 02MO 02MC 02RD 10RO	1	0	0.623211145401	None	None	-17	12	0
2.7	2015_Jun_04_1106	s	s	18	4	SIC	346	ABS	0	2	02VD 02VO 02VC 02MD 02MO 02MC 10RD 02RO	1	0	0.552597999573	None	None	-361	5	0
2.7	2015_Jun_04_1106	s	s	18	4	SIC	347	ABS	1	2	02VD 02VO 02VC 10MD 02MO 02MC 02RD 02RO	1	0	0.929148197174	None	None	-294	-184	0
2.7	2015_Jun_04_1106	s	s	18	4	SIC	348	RC	2	2	09VD 02VO 02VC 02MD 02MO 02MC 02RD 02RO	1	0	0.999892950058	39.0	-296.0	167	7	0
2.7	2015_Jun_04_1106	s	s	18	4	SIC	349	RC	1	0	02VD 02VO 02VC 02MD 02MO 09MC 02RD 02RO	1	0	0.830616950989	89.0	322.0	-21	102	0
2.7	2015_Jun_04_1106	s	s	18	4	SIC	350	RC	2	0	02VD 02VO 09VC 02MD 02MO 02MC 02RD 02RO	1	0	1.09399199486	-236.0	-246.0	-228	-246	1
2.7	2015_Jun_04_1106	s	s	18	4	SIC	351	RC	2	1	02VD 09VO 02VC 02MD 02MO 02MC 02RD 02RO	1	0	0.641720056534	101.0	179.0	-548	356	0
2.7	2015_Jun_04_1106	s	s	18	4	SIC	352	ABS	1	0	02VD 02VO 02VC 02MD 02MO 10MC 02RD 02RO	1	0	0.643000841141	None	None	-279	174	0
2.7	2015_Jun_04_1106	s	s	18	4	SIC	353	ABS	2	0	02VD 02VO 10VC 02MD 02MO 02MC 02RD 02RO	1	0	0.59442782402	None	None	161	258	0
2.7	2015_Jun_04_1106	s	s	18	4	SIC	354	RC	2	0	02VD 02VO 09VC 02MD 02MO 02MC 02RD 02RO	1	0	0.561157941818	-219.0	169.0	-225	170	1
2.7	2015_Jun_04_1106	s	s	18	4	SIC	355	RC	0	2	02VD 02VO 02VC 02MD 02MO 02MC 09RD 02RO	1	0	0.458389043808	78.0	119.0	-218	229	0
2.7	2015_Jun_04_1106	s	s	18	4	SIC	356	ABS	2	1	02VD 10VO 02VC 02MD 02MO 02MC 02RD 02RO	1	0	0.893951177597	None	None	-258	-104	0
2.7	2015_Jun_04_1106	s	s	18	4	SIC	357	RC	0	1	02VD 02VO 02VC 02MD 02MO 02MC 02RD 09RO	1	0	2.08003306389	506.0	-98.0	-85	-341	0
2.7	2015_Jun_04_1106	s	s	18	4	SIC	358	RC	1	2	02VD 02VO 02VC 09MD 02MO 02MC 02RD 02RO	1	0	0.464296102524	-510.0	399.0	-188	46	0
2.7	2015_Jun_04_1106	s	s	18	4	SIC	359	RC	1	0	02VD 02VO 02VC 02MD 02MO 09MC 02RD 02RO	1	0	0.547232866287	-528.0	-35.0	-107	153	0
2.7	2015_Jun_04_1106	s	s	18	4	SIC	360	ABS	1	2	02VD 02VO 02VC 10MD 02MO 02MC 02RD 02RO	1	0	0.663480043411	None	None	-169	109	0
2.7	2015_Jun_04_1106	s	s	18	4	SIC	361	RC	1	1	02VD 02VO 02VC 02MD 09MO 02MC 02RD 02RO	1	0	0.514534950256	254.0	-76.0	-84	155	0
2.7	2015_Jun_04_1106	s	s	18	4	SIC	362	ABS	0	2	02VD 02VO 02VC 02MD 02MO 02MC 10RD 02RO	1	0	0.485481023788	None	None	49	69	0
2.7	2015_Jun_04_1106	s	s	18	4	SIC	363	ABS	1	1	02VD 02VO 02VC 02MD 10MO 02MC 02RD 02RO	1	0	1.3950111866	None	None	-341	-302	0
2.7	2015_Jun_04_1106	s	s	18	4	SIC	364	RC	2	2	09VD 02VO 02VC 02MD 02MO 02MC 02RD 02RO	1	0	0.952781915665	190.0	-191.0	227	-34	0
2.7	2015_Jun_04_1106	s	s	18	4	SIC	365	ABS	0	1	02VD 02VO 02VC 02MD 02MO 02MC 02RD 10RO	1	0	0.752664089203	None	None	-267	-20	0
2.7	2015_Jun_04_1106	s	s	18	4	SIC	366	ABS	1	0	02VD 02VO 02VC 02MD 02MO 10MC 02RD 02RO	1	0	1.5535531044	None	None	62	-53	0
2.7	2015_Jun_04_1106	s	s	18	4	SIC	367	ABS	2	2	10VD 02VO 02VC 02MD 02MO 02MC 02RD 02RO	1	0	0.922900915146	None	None	246	78	0
2.7	2015_Jun_04_1106	s	s	18	4	SIC	368	RC	2	1	02VD 09VO 02VC 02MD 02MO 02MC 02RD 02RO	1	0	1.02867794037	414.0	-111.0	-186	-329	0
2.7	2015_Jun_04_1106	s	s	18	4	SIC	369	RC	2	0	02VD 02VO 09VC 02MD 02MO 02MC 02RD 02RO	1	0	0.735562086105	-332.0	-377.0	-316	380	0
2.7	2015_Jun_04_1106	s	s	18	4	SIC	370	ABS	2	1	02VD 10VO 02VC 02MD 02MO 02MC 02RD 02RO	1	0	1.21924495697	None	None	450	108	0
2.7	2015_Jun_04_1106	s	s	18	4	SIC	371	ABS	2	2	10VD 02VO 02VC 02MD 02MO 02MC 02RD 02RO	1	0	0.811586856842	None	None	-19	331	0
2.7	2015_Jun_04_1106	s	s	18	4	SIC	372	ABS	0	1	02VD 02VO 02VC 02MD 02MO 02MC 02RD 10RO	1	0	1.40003705025	None	None	220	-188	0
2.7	2015_Jun_04_1106	s	s	18	4	SIC	373	RC	1	0	02VD 02VO 02VC 02MD 02MO 09MC 02RD 02RO	1	0	0.454001188278	319.0	65.0	-246	13	0
2.7	2015_Jun_04_1106	s	s	18	4	SIC	374	RC	0	2	02VD 02VO 02VC 02MD 02MO 02MC 09RD 02RO	1	0	0.835054159164	85.0	169.0	80	160	1
2.7	2015_Jun_04_1106	s	s	18	4	SIC	375	ABS	1	2	02VD 02VO 02VC 10MD 02MO 02MC 02RD 02RO	1	0	1.00888800621	None	None	-354	-183	0
2.7	2015_Jun_04_1106	s	s	18	4	SIC	376	ABS	1	0	02VD 02VO 02VC 02MD 02MO 10MC 02RD 02RO	1	0	0.513972997665	None	None	-203	90	0
2.7	2015_Jun_04_1106	s	s	18	4	SIC	377	RC	1	2	02VD 02VO 02VC 09MD 02MO 02MC 02RD 02RO	1	0	1.51780891418	176.0	-355.0	339	379	0
2.7	2015_Jun_04_1106	s	s	18	4	SIC	378	ABS	1	1	02VD 02VO 02VC 02MD 10MO 02MC 02RD 02RO	1	0	1.9976439476	None	None	529	-5	0
2.7	2015_Jun_04_1106	s	s	18	4	SIC	379	RC	2	1	02VD 09VO 02VC 02MD 02MO 02MC 02RD 02RO	1	0	0.644015789032	-362.0	-295.0	173	87	0
2.7	2015_Jun_04_1106	s	s	18	4	SIC	380	RC	2	2	09VD 02VO 02VC 02MD 02MO 02MC 02RD 02RO	1	0	0.805917978287	-224.0	236.0	310	-41	0
2.7	2015_Jun_04_1106	s	s	18	4	SIC	381	ABS	2	0	02VD 02VO 10VC 02MD 02MO 02MC 02RD 02RO	1	0	1.87084889412	None	None	-479	-365	0
2.7	2015_Jun_04_1106	s	s	18	4	SIC	382	RC	1	1	02VD 02VO 02VC 02MD 09MO 02MC 02RD 02RO	1	0	0.902585029602	403.0	-50.0	-156	-326	0
2.7	2015_Jun_04_1106	s	s	18	4	SIC	383	RC	0	1	02VD 02VO 02VC 02MD 02MO 02MC 02RD 09RO	1	0	0.73583316803	-227.0	-94.0	-231	-92	1
2.7	2015_Jun_04_1106	s	s	18	4	SIC	384	ABS	0	2	02VD 02VO 02VC 02MD 02MO 02MC 10RD 02RO	1	0	0.705598115921	None	None	-47	25	0
2.7	2015_Jun_04_1106	s	s	18	4	SIC	385	ABS	1	1	02VD 02VO 02VC 02MD 10MO 02MC 02RD 02RO	1	0	0.458405971527	None	None	110	329	0
2.7	2015_Jun_04_1106	s	s	18	4	SIC	386	RC	0	2	02VD 02VO 02VC 02MD 02MO 02MC 09RD 02RO	1	0	1.01866984367	41.0	-295.0	43	-293	1
2.7	2015_Jun_04_1106	s	s	18	4	SIC	387	ABS	1	0	02VD 02VO 02VC 02MD 02MO 10MC 02RD 02RO	1	0	0.570201873779	None	None	-363	10	0
2.7	2015_Jun_04_1106	s	s	18	4	SIC	388	ABS	2	0	02VD 02VO 10VC 02MD 02MO 02MC 02RD 02RO	1	0	1.13795399666	None	None	215	-381	0
2.7	2015_Jun_04_1106	s	s	18	4	SIC	389	RC	1	0	02VD 02VO 02VC 02MD 02MO 09MC 02RD 02RO	1	0	0.430800914764	445.0	-336.0	-24	190	0
2.7	2015_Jun_04_1106	s	s	18	4	SIC	390	RC	2	1	02VD 09VO 02VC 02MD 02MO 02MC 02RD 02RO	1	0	0.641321182251	363.0	36.0	91	67	0
2.7	2015_Jun_04_1106	s	s	18	4	SIC	391	RC	1	2	02VD 02VO 02VC 09MD 02MO 02MC 02RD 02RO	1	0	0.646744012833	-38.0	-221.0	-42	-229	1
2.7	2015_Jun_04_1106	s	s	18	4	SIC	392	RC	1	1	02VD 02VO 02VC 02MD 09MO 02MC 02RD 02RO	1	0	1.85908722878	-512.0	-230.0	-48	-394	0
2.7	2015_Jun_04_1106	s	s	18	4	SIC	393	ABS	2	2	10VD 02VO 02VC 02MD 02MO 02MC 02RD 02RO	1	0	0.909304141998	None	None	380	-71	0
2.7	2015_Jun_04_1106	s	s	18	4	SIC	394	RC	2	2	09VD 02VO 02VC 02MD 02MO 02MC 02RD 02RO	1	0	0.635004043579	-534.0	316.0	-148	-316	0
2.7	2015_Jun_04_1106	s	s	18	4	SIC	395	ABS	0	2	02VD 02VO 02VC 02MD 02MO 02MC 10RD 02RO	1	0	0.748153924942	None	None	-119	-351	0
2.7	2015_Jun_04_1106	s	s	18	4	SIC	396	ABS	0	1	02VD 02VO 02VC 02MD 02MO 02MC 02RD 10RO	1	0	0.976212024689	None	None	50	321	0
2.7	2015_Jun_04_1106	s	s	18	4	SIC	397	ABS	2	1	02VD 10VO 02VC 02MD 02MO 02MC 02RD 02RO	1	0	0.617505073547	None	None	-93	-28	0
2.7	2015_Jun_04_1106	s	s	18	4	SIC	398	ABS	1	2	02VD 02VO 02VC 10MD 02MO 02MC 02RD 02RO	1	0	0.681944131851	None	None	102	-220	0
2.7	2015_Jun_04_1106	s	s	18	4	SIC	399	RC	0	1	02VD 02VO 02VC 02MD 02MO 02MC 02RD 09RO	1	0	0.57607293129	242.0	315.0	34	-319	0
2.7	2015_Jun_04_1106	s	s	18	4	SIC	400	RC	2	0	02VD 02VO 09VC 02MD 02MO 02MC 02RD 02RO	1	0	0.534917116165	-112.0	389.0	108	42	0
2.7	2015_Jun_04_1106	s	s	18	4	SIC	401	ABS	0	2	02VD 02VO 02VC 02MD 02MO 02MC 10RD 02RO	1	0	0.65283203125	None	None	-390	111	0
2.7	2015_Jun_04_1106	s	s	18	4	SIC	402	RC	1	2	02VD 02VO 02VC 09MD 02MO 02MC 02RD 02RO	1	0	0.346852064133	480.0	-274.0	123	-252	0
2.7	2015_Jun_04_1106	s	s	18	4	SIC	403	ABS	1	1	02VD 02VO 02VC 02MD 10MO 02MC 02RD 02RO	1	0	0.396781921387	None	None	-22	70	0
2.7	2015_Jun_04_1106	s	s	18	4	SIC	404	RC	0	2	02VD 02VO 02VC 02MD 02MO 02MC 09RD 02RO	1	0	0.773497104645	41.0	-325.0	41	-322	1
2.7	2015_Jun_04_1106	s	s	18	4	SIC	405	ABS	2	2	10VD 02VO 02VC 02MD 02MO 02MC 02RD 02RO	1	0	0.434917211533	None	None	-189	79	0
2.7	2015_Jun_04_1106	s	s	18	4	SIC	406	ABS	1	2	02VD 02VO 02VC 10MD 02MO 02MC 02RD 02RO	1	0	0.488540887833	None	None	-373	-277	0
2.7	2015_Jun_04_1106	s	s	18	4	SIC	407	RC	0	1	02VD 02VO 02VC 02MD 02MO 02MC 02RD 09RO	1	0	2.31834101677	-243.0	265.0	-80	-16	0
2.7	2015_Jun_04_1106	s	s	18	4	SIC	408	ABS	1	0	02VD 02VO 02VC 02MD 02MO 10MC 02RD 02RO	1	0	0.491149902344	None	None	-104	243	0
2.7	2015_Jun_04_1106	s	s	18	4	SIC	409	ABS	2	0	02VD 02VO 10VC 02MD 02MO 02MC 02RD 02RO	1	0	0.552617073059	None	None	83	-65	0
2.7	2015_Jun_04_1106	s	s	18	4	SIC	410	RC	1	1	02VD 02VO 02VC 02MD 09MO 02MC 02RD 02RO	1	0	1.16454100609	-74.0	-396.0	-182	-197	0
2.7	2015_Jun_04_1106	s	s	18	4	SIC	411	RC	2	2	09VD 02VO 02VC 02MD 02MO 02MC 02RD 02RO	1	0	0.587907075882	-232.0	21.0	-232	18	1
2.7	2015_Jun_04_1106	s	s	18	4	SIC	412	RC	2	0	02VD 02VO 09VC 02MD 02MO 02MC 02RD 02RO	1	0	0.693861961365	-307.0	281.0	-305	280	1
2.7	2015_Jun_04_1106	s	s	18	4	SIC	413	RC	1	0	02VD 02VO 02VC 02MD 02MO 09MC 02RD 02RO	1	0	0.523281097412	80.0	-280.0	-252	185	0
2.7	2015_Jun_04_1106	s	s	18	4	SIC	414	ABS	2	1	02VD 10VO 02VC 02MD 02MO 02MC 02RD 02RO	1	0	0.526376962662	None	None	-302	72	0
2.7	2015_Jun_04_1106	s	s	18	4	SIC	415	RC	2	1	02VD 09VO 02VC 02MD 02MO 02MC 02RD 02RO	1	0	1.51782083511	514.0	-111.0	176	143	0
2.7	2015_Jun_04_1106	s	s	18	4	SIC	416	ABS	0	1	02VD 02VO 02VC 02MD 02MO 02MC 02RD 10RO	1	0	3.89552903175	None	None	-186	-139	0
2.7	2015_Jun_04_1106	s	s	18	4	SIC	417	ABS	2	1	02VD 10VO 02VC 02MD 02MO 02MC 02RD 02RO	1	0	0.592818021774	None	None	138	-68	0
2.7	2015_Jun_04_1106	s	s	18	4	SIC	418	RC	1	2	02VD 02VO 02VC 09MD 02MO 02MC 02RD 02RO	1	0	0.549743175507	-440.0	-193.0	122	67	0
2.7	2015_Jun_04_1106	s	s	18	4	SIC	419	ABS	1	0	02VD 02VO 02VC 02MD 02MO 10MC 02RD 02RO	1	0	0.570996046066	None	None	46	1	0
2.7	2015_Jun_04_1106	s	s	18	4	SIC	420	ABS	1	1	02VD 02VO 02VC 02MD 10MO 02MC 02RD 02RO	1	0	1.82377791405	None	None	-497	373	0
2.7	2015_Jun_04_1106	s	s	18	4	SIC	421	ABS	1	2	02VD 02VO 02VC 10MD 02MO 02MC 02RD 02RO	1	0	0.593990087509	None	None	-162	145	0
2.7	2015_Jun_04_1106	s	s	18	4	SIC	422	RC	2	2	09VD 02VO 02VC 02MD 02MO 02MC 02RD 02RO	1	0	0.53807091713	-64.0	334.0	-68	322	1
2.7	2015_Jun_04_1106	s	s	18	4	SIC	423	ABS	2	2	10VD 02VO 02VC 02MD 02MO 02MC 02RD 02RO	1	0	0.502691030502	None	None	-117	121	0
2.7	2015_Jun_04_1106	s	s	18	4	SIC	424	RC	1	0	02VD 02VO 02VC 02MD 02MO 09MC 02RD 02RO	1	0	0.705693006516	297.0	175.0	-122	393	0
2.7	2015_Jun_04_1106	s	s	18	4	SIC	425	ABS	0	1	02VD 02VO 02VC 02MD 02MO 02MC 02RD 10RO	1	0	0.770594120026	None	None	-86	181	0
2.7	2015_Jun_04_1106	s	s	18	4	SIC	426	RC	2	1	02VD 09VO 02VC 02MD 02MO 02MC 02RD 02RO	1	0	0.776293992996	-29.0	-109.0	-36	-109	1
2.7	2015_Jun_04_1106	s	s	18	4	SIC	427	RC	2	0	02VD 02VO 09VC 02MD 02MO 02MC 02RD 02RO	1	0	0.560102939606	-256.0	-105.0	-264	-102	1
2.7	2015_Jun_04_1106	s	s	18	4	SIC	428	RC	0	2	02VD 02VO 02VC 02MD 02MO 02MC 09RD 02RO	1	0	1.20590305328	-481.0	375.0	316	-92	0
2.7	2015_Jun_04_1106	s	s	18	4	SIC	429	ABS	0	2	02VD 02VO 02VC 02MD 02MO 02MC 10RD 02RO	1	0	1.11775398254	None	None	281	-212	0
2.7	2015_Jun_04_1106	s	s	18	4	SIC	430	RC	0	1	02VD 02VO 02VC 02MD 02MO 02MC 02RD 09RO	1	0	1.07885408401	0.0	-283.0	-292	-109	0
2.7	2015_Jun_04_1106	s	s	18	4	SIC	431	ABS	2	0	02VD 02VO 10VC 02MD 02MO 02MC 02RD 02RO	1	0	0.595247030258	None	None	26	-103	0
2.7	2015_Jun_04_1106	s	s	18	4	SIC	432	RC	1	1	02VD 02VO 02VC 02MD 09MO 02MC 02RD 02RO	1	0	1.60782194138	304.0	-62.0	307	-62	1
2.7	2015_Jun_04_1106	s	s	18	4	SIC	433	ABS	0	1	02VD 02VO 02VC 02MD 02MO 02MC 02RD 10RO	1	0	0.667483091354	None	None	46	-175	0
2.7	2015_Jun_04_1106	s	s	18	4	SIC	434	ABS	1	0	02VD 02VO 02VC 02MD 02MO 10MC 02RD 02RO	1	0	0.599664926529	None	None	-128	-172	0
2.7	2015_Jun_04_1106	s	s	18	4	SIC	435	RC	2	0	02VD 02VO 09VC 02MD 02MO 02MC 02RD 02RO	1	0	0.711988925934	484.0	248.0	-68	-169	0
2.7	2015_Jun_04_1106	s	s	18	4	SIC	436	RC	1	2	02VD 02VO 02VC 09MD 02MO 02MC 02RD 02RO	1	0	0.894128084183	434.0	219.0	-76	-325	0
2.7	2015_Jun_04_1106	s	s	18	4	SIC	437	ABS	2	0	02VD 02VO 10VC 02MD 02MO 02MC 02RD 02RO	1	0	0.446614980698	None	None	33	-37	0
2.7	2015_Jun_04_1106	s	s	18	4	SIC	438	RC	2	2	09VD 02VO 02VC 02MD 02MO 02MC 02RD 02RO	1	0	0.905613899231	146.0	260.0	-59	304	0
2.7	2015_Jun_04_1106	s	s	18	4	SIC	439	ABS	2	1	02VD 10VO 02VC 02MD 02MO 02MC 02RD 02RO	1	0	0.576148033142	None	None	141	255	0
2.7	2015_Jun_04_1106	s	s	18	4	SIC	440	RC	0	2	02VD 02VO 02VC 02MD 02MO 02MC 09RD 02RO	1	0	0.478106975555	198.0	-307.0	385	142	0
2.7	2015_Jun_04_1106	s	s	18	4	SIC	441	RC	1	1	02VD 02VO 02VC 02MD 09MO 02MC 02RD 02RO	1	0	1.42083907127	-298.0	409.0	-301	416	1
2.7	2015_Jun_04_1106	s	s	18	4	SIC	442	ABS	1	2	02VD 02VO 02VC 10MD 02MO 02MC 02RD 02RO	1	0	0.552597999573	None	None	-438	80	0
2.7	2015_Jun_04_1106	s	s	18	4	SIC	443	RC	0	1	02VD 02VO 02VC 02MD 02MO 02MC 02RD 09RO	1	0	3.04800200462	490.0	-137.0	485	-147	1
2.7	2015_Jun_04_1106	s	s	18	4	SIC	444	ABS	0	2	02VD 02VO 02VC 02MD 02MO 02MC 10RD 02RO	1	0	1.12924790382	None	None	309	244	0
2.7	2015_Jun_04_1106	s	s	18	4	SIC	445	ABS	1	1	02VD 02VO 02VC 02MD 10MO 02MC 02RD 02RO	1	0	1.93656492233	None	None	399	310	0
2.7	2015_Jun_04_1106	s	s	18	4	SIC	446	RC	2	1	02VD 09VO 02VC 02MD 02MO 02MC 02RD 02RO	1	0	1.11415505409	-86.0	-408.0	-86	-416	1
2.7	2015_Jun_04_1106	s	s	18	4	SIC	447	RC	1	0	02VD 02VO 02VC 02MD 02MO 09MC 02RD 02RO	1	0	0.748176813126	-432.0	295.0	-166	-77	0
2.7	2015_Jun_04_1106	s	s	18	4	SIC	448	ABS	2	2	10VD 02VO 02VC 02MD 02MO 02MC 02RD 02RO	1	0	0.926834106445	None	None	-94	-213	0
2.7	2015_Jun_04_1106	s	s	18	4	SIC	449	ABS	2	2	10VD 02VO 02VC 02MD 02MO 02MC 02RD 02RO	1	0	0.561396837234	None	None	-149	-74	0
2.7	2015_Jun_04_1106	s	s	18	4	SIC	450	RC	1	2	02VD 02VO 02VC 09MD 02MO 02MC 02RD 02RO	1	0	0.411259889603	-491.0	-319.0	64	14	0
2.7	2015_Jun_04_1106	s	s	18	4	SIC	451	RC	1	0	02VD 02VO 02VC 02MD 02MO 09MC 02RD 02RO	1	0	0.535744905472	311.0	-270.0	-28	-52	0
2.7	2015_Jun_04_1106	s	s	18	4	SIC	452	RC	2	1	02VD 09VO 02VC 02MD 02MO 02MC 02RD 02RO	1	0	1.21167898178	-461.0	186.0	-67	-227	0
2.7	2015_Jun_04_1106	s	s	18	4	SIC	453	RC	1	1	02VD 02VO 02VC 02MD 09MO 02MC 02RD 02RO	1	0	2.04748606682	471.0	-207.0	467	-210	1
2.7	2015_Jun_04_1106	s	s	18	4	SIC	454	ABS	1	2	02VD 02VO 02VC 10MD 02MO 02MC 02RD 02RO	1	0	0.599577188492	None	None	23	-97	0
2.7	2015_Jun_04_1106	s	s	18	4	SIC	455	ABS	1	0	02VD 02VO 02VC 02MD 02MO 10MC 02RD 02RO	1	0	0.455732107162	None	None	9	-36	0
2.7	2015_Jun_04_1106	s	s	18	4	SIC	456	ABS	1	1	02VD 02VO 02VC 02MD 10MO 02MC 02RD 02RO	1	0	0.796499967575	None	None	-140	110	0
2.7	2015_Jun_04_1106	s	s	18	4	SIC	457	RC	2	0	02VD 02VO 09VC 02MD 02MO 02MC 02RD 02RO	1	0	1.21179485321	-250.0	368.0	-250	366	1
2.7	2015_Jun_04_1106	s	s	18	4	SIC	458	ABS	0	2	02VD 02VO 02VC 02MD 02MO 02MC 10RD 02RO	1	0	0.587968111038	None	None	-163	109	0
2.7	2015_Jun_04_1106	s	s	18	4	SIC	459	ABS	2	0	02VD 02VO 10VC 02MD 02MO 02MC 02RD 02RO	1	0	1.70612215996	None	None	-194	-122	0
2.7	2015_Jun_04_1106	s	s	18	4	SIC	460	ABS	2	1	02VD 10VO 02VC 02MD 02MO 02MC 02RD 02RO	1	0	1.01849293709	None	None	-377	73	0
2.7	2015_Jun_04_1106	s	s	18	4	SIC	461	RC	0	2	02VD 02VO 02VC 02MD 02MO 02MC 09RD 02RO	1	0	0.521059036255	-90.0	19.0	-89	18	1
2.7	2015_Jun_04_1106	s	s	18	4	SIC	462	RC	0	1	02VD 02VO 02VC 02MD 02MO 02MC 02RD 09RO	1	0	1.04185795784	457.0	-192.0	-38	-72	0
2.7	2015_Jun_04_1106	s	s	18	4	SIC	463	ABS	0	1	02VD 02VO 02VC 02MD 02MO 02MC 02RD 10RO	1	0	1.70606899261	None	None	378	-183	0
2.7	2015_Jun_04_1106	s	s	18	4	SIC	464	RC	2	2	09VD 02VO 02VC 02MD 02MO 02MC 02RD 02RO	1	0	0.514209985733	-51.0	92.0	-43	87	1
2.7	2015_Jun_04_1106	s	s	18	4	SIC	465	RC	2	1	02VD 09VO 02VC 02MD 02MO 02MC 02RD 02RO	1	0	0.618401050568	194.0	365.0	-87	101	0
2.7	2015_Jun_04_1106	s	s	18	4	SIC	466	ABS	2	2	10VD 02VO 02VC 02MD 02MO 02MC 02RD 02RO	1	0	0.665949106216	None	None	20	128	0
2.7	2015_Jun_04_1106	s	s	18	4	SIC	467	ABS	0	1	02VD 02VO 02VC 02MD 02MO 02MC 02RD 10RO	1	0	2.47121191025	None	None	-103	252	0
2.7	2015_Jun_04_1106	s	s	18	4	SIC	468	ABS	2	0	02VD 02VO 10VC 02MD 02MO 02MC 02RD 02RO	1	0	0.499738931656	None	None	-143	169	0
2.7	2015_Jun_04_1106	s	s	18	4	SIC	469	ABS	1	0	02VD 02VO 02VC 02MD 02MO 10MC 02RD 02RO	1	0	0.536926031113	None	None	-315	172	0
2.7	2015_Jun_04_1106	s	s	18	4	SIC	470	RC	0	2	02VD 02VO 02VC 02MD 02MO 02MC 09RD 02RO	1	0	0.620656967163	-191.0	296.0	-71	261	0
2.7	2015_Jun_04_1106	s	s	18	4	SIC	471	RC	1	2	02VD 02VO 02VC 09MD 02MO 02MC 02RD 02RO	1	0	0.640213012695	391.0	227.0	-104	-65	0
2.7	2015_Jun_04_1106	s	s	18	4	SIC	472	ABS	1	1	02VD 02VO 02VC 02MD 10MO 02MC 02RD 02RO	1	0	0.631742954254	None	None	-154	44	0
2.7	2015_Jun_04_1106	s	s	18	4	SIC	473	RC	2	2	09VD 02VO 02VC 02MD 02MO 02MC 02RD 02RO	1	0	0.785177946091	325.0	48.0	-31	9	0
2.7	2015_Jun_04_1106	s	s	18	4	SIC	474	ABS	1	2	02VD 02VO 02VC 10MD 02MO 02MC 02RD 02RO	1	0	2.44761109352	None	None	136	215	0
2.7	2015_Jun_04_1106	s	s	18	4	SIC	475	ABS	2	1	02VD 10VO 02VC 02MD 02MO 02MC 02RD 02RO	1	0	1.07056117058	None	None	443	281	0
2.7	2015_Jun_04_1106	s	s	18	4	SIC	476	RC	2	0	02VD 02VO 09VC 02MD 02MO 02MC 02RD 02RO	1	0	0.581690073013	-135.0	-384.0	-277	-131	0
2.7	2015_Jun_04_1106	s	s	18	4	SIC	477	RC	1	1	02VD 02VO 02VC 02MD 09MO 02MC 02RD 02RO	1	0	0.629861831665	-30.0	-126.0	-38	-127	1
2.7	2015_Jun_04_1106	s	s	18	4	SIC	478	RC	1	0	02VD 02VO 02VC 02MD 02MO 09MC 02RD 02RO	1	0	0.505472898483	377.0	-200.0	87	-30	0
2.7	2015_Jun_04_1106	s	s	18	4	SIC	479	ABS	0	2	02VD 02VO 02VC 02MD 02MO 02MC 10RD 02RO	1	0	0.952670812607	None	None	-263	32	0
2.7	2015_Jun_04_1106	s	s	18	4	SIC	480	RC	0	1	02VD 02VO 02VC 02MD 02MO 02MC 02RD 09RO	1	0	0.635056018829	-249.0	89.0	-253	91	1
