Version	Date	Stimuli	Method	Subject	Session	Condition	Trial	Target	Channel1	Channel2	Distractors	LMouseButton	RMouseButton	RT	TargetX	TargetY	ResponseX	ResponseY	Correct
2.7	2015_Jun_01_1116	s	s	18	1	Capacity	1	ABS	2	0	16VC 08MC	0	0	-1	None	None	None	None	-1
2.7	2015_Jun_01_1116	s	s	18	1	Capacity	2	RC	2	0	15VC 08MC	1	0	3.66011190414	470.0	-250.0	466	-251	1
2.7	2015_Jun_01_1116	s	s	18	1	Capacity	3	ABS	1	0	08VC 16MC	1	0	7.16753196716	None	None	487	-308	0
2.7	2015_Jun_01_1116	s	s	18	1	Capacity	4	RC	1	0	08VC 15MC	1	0	3.11591315269	527.0	-324.0	529	-330	1
2.7	2015_Jun_01_1116	s	s	18	1	Capacity	5	ABS	1	0	08VC 16MC	1	0	3.28020095825	None	None	506	-235	0
2.7	2015_Jun_01_1116	s	s	18	1	Capacity	6	ABS	2	0	16VC 08MC	1	0	3.86678695679	None	None	526	-200	0
2.7	2015_Jun_01_1116	s	s	18	1	Capacity	7	RC	2	0	15VC 08MC	1	0	3.15395212173	-510.0	-174.0	403	129	0
2.7	2015_Jun_01_1116	s	s	18	1	Capacity	8	RC	1	0	08VC 15MC	1	0	4.2572119236	362.0	-308.0	489	-178	0
2.7	2015_Jun_01_1116	s	s	18	1	Capacity	9	RC	1	0	08VC 15MC	1	0	3.59848690033	460.0	145.0	532	-409	0
2.7	2015_Jun_01_1116	s	s	18	1	Capacity	10	ABS	1	0	08VC 16MC	1	0	4.89272689819	None	None	-489	361	0
2.7	2015_Jun_01_1116	s	s	18	1	Capacity	11	ABS	2	0	16VC 08MC	1	0	5.1278591156	None	None	512	-71	0
2.7	2015_Jun_01_1116	s	s	18	1	Capacity	12	RC	2	0	15VC 08MC	0	1	1.10579800606	-293.0	-356.0	None	None	0
2.7	2015_Jun_01_1116	s	s	18	1	Capacity	13	RC	1	0	08VC 15MC	1	0	10.5104141235	78.0	-195.0	294	-58	0
2.7	2015_Jun_01_1116	s	s	18	1	Capacity	14	ABS	1	0	08VC 16MC	1	0	7.36420583725	None	None	518	-327	0
2.7	2015_Jun_01_1116	s	s	18	1	Capacity	15	RC	2	0	15VC 08MC	1	0	0.952628135681	432.0	-335.0	433	-347	1
2.7	2015_Jun_01_1116	s	s	18	1	Capacity	16	ABS	2	0	16VC 08MC	1	0	1.37642192841	None	None	33	-12	0
2.7	2015_Jun_01_1116	s	s	18	1	Capacity	17	ABS	2	0	16VC 08MC	1	0	2.78482484818	None	None	-456	389	0
2.7	2015_Jun_01_1116	s	s	18	1	Capacity	18	RC	1	0	08VC 15MC	1	0	4.40978312492	134.0	-347.0	134	-364	1
2.7	2015_Jun_01_1116	s	s	18	1	Capacity	19	RC	2	0	15VC 08MC	1	0	0.888344049454	-506.0	411.0	-507	414	1
2.7	2015_Jun_01_1116	s	s	18	1	Capacity	20	ABS	1	0	08VC 16MC	1	0	4.27230501175	None	None	207	318	0
2.7	2015_Jun_01_1116	s	s	18	1	Capacity	21	RC	2	0	15VC 08MC	1	0	1.26803207397	518.0	273.0	-506	376	0
2.7	2015_Jun_01_1116	s	s	18	1	Capacity	22	ABS	2	0	16VC 08MC	1	0	6.74164104462	None	None	-464	173	0
2.7	2015_Jun_01_1116	s	s	18	1	Capacity	23	ABS	1	0	08VC 16MC	1	0	1.92622709274	None	None	-118	406	0
2.7	2015_Jun_01_1116	s	s	18	1	Capacity	24	RC	1	0	08VC 15MC	1	0	0.994946956635	-394.0	230.0	-529	221	0
2.7	2015_Jun_01_1116	s	s	18	1	Capacity	25	RC	1	0	08VC 15MC	1	0	1.33437395096	402.0	-214.0	-505	327	0
2.7	2015_Jun_01_1116	s	s	18	1	Capacity	26	ABS	1	0	08VC 16MC	1	0	1.07050514221	None	None	-510	289	0
2.7	2015_Jun_01_1116	s	s	18	1	Capacity	27	RC	2	0	15VC 08MC	1	0	1.52939486504	518.0	209.0	-452	-25	0
2.7	2015_Jun_01_1116	s	s	18	1	Capacity	28	ABS	2	0	16VC 08MC	1	0	0.270161151886	None	None	-11	-99	0
2.7	2015_Jun_01_1116	s	s	18	1	Capacity	29	ABS	1	0	08VC 16MC	1	0	1.15276002884	None	None	391	273	0
2.7	2015_Jun_01_1116	s	s	18	1	Capacity	30	RC	1	0	08VC 15MC	1	0	1.63258004189	-292.0	-91.0	506	27	0
2.7	2015_Jun_01_1116	s	s	18	1	Capacity	31	ABS	2	0	16VC 08MC	1	0	1.30080509186	None	None	393	352	0
2.7	2015_Jun_01_1116	s	s	18	1	Capacity	32	RC	2	0	15VC 08MC	1	0	0.744615077972	522.0	-22.0	535	-17	1
2.7	2015_Jun_01_1116	s	s	18	1	Capacity	33	ABS	1	0	08VC 16MC	1	0	0.258374929428	None	None	461	-286	0
2.7	2015_Jun_01_1116	s	s	18	1	Capacity	34	RC	2	0	15VC 08MC	1	0	1.935942173	-526.0	304.0	440	116	0
2.7	2015_Jun_01_1116	s	s	18	1	Capacity	35	RC	1	0	08VC 15MC	1	0	1.28909707069	445.0	-340.0	-541	345	0
2.7	2015_Jun_01_1116	s	s	18	1	Capacity	36	ABS	2	0	16VC 08MC	0	1	1.46669697762	None	None	None	None	1
2.7	2015_Jun_01_1116	s	s	18	1	Capacity	37	RC	1	0	08VC 15MC	1	0	1.30622887611	59.0	-395.0	-482	-334	0
2.7	2015_Jun_01_1116	s	s	18	1	Capacity	38	RC	2	0	15VC 08MC	1	0	1.41858100891	-189.0	5.0	-453	-77	0
2.7	2015_Jun_01_1116	s	s	18	1	Capacity	39	ABS	2	0	16VC 08MC	1	0	1.2352309227	None	None	-58	18	0
2.7	2015_Jun_01_1116	s	s	18	1	Capacity	40	ABS	1	0	08VC 16MC	1	0	0.434891939163	None	None	27	144	0
2.7	2015_Jun_01_1116	s	s	18	1	Capacity	41	RC	2	0	15VC 08MC	1	0	0.458328008652	-528.0	-93.0	234	81	0
2.7	2015_Jun_01_1116	s	s	18	1	Capacity	42	RC	1	0	08VC 15MC	1	0	0.220340013504	-85.0	-42.0	306	114	0
2.7	2015_Jun_01_1116	s	s	18	1	Capacity	43	ABS	1	0	08VC 16MC	1	0	0.270279169083	None	None	428	157	0
2.7	2015_Jun_01_1116	s	s	18	1	Capacity	44	ABS	2	0	16VC 08MC	1	0	1.75317907333	None	None	273	192	0
2.7	2015_Jun_01_1116	s	s	18	1	Capacity	45	ABS	1	0	08VC 16MC	1	0	0.534992218018	None	None	416	142	0
2.7	2015_Jun_01_1116	s	s	18	1	Capacity	46	RC	1	0	08VC 15MC	1	0	0.505566120148	420.0	-407.0	-131	-1	0
2.7	2015_Jun_01_1116	s	s	18	1	Capacity	47	RC	2	0	15VC 08MC	1	0	0.994272947311	-106.0	244.0	-108	235	1
2.7	2015_Jun_01_1116	s	s	18	1	Capacity	48	ABS	2	0	16VC 08MC	1	0	0.96456193924	None	None	-433	-76	0
2.7	2015_Jun_01_1116	s	s	18	1	Capacity	49	RC	1	0	08VC 15MC	1	0	0.664854764938	231.0	-63.0	-501	-159	0
2.7	2015_Jun_01_1116	s	s	18	1	Capacity	50	ABS	2	0	16VC 08MC	1	0	0.279121160507	None	None	442	-15	0
2.7	2015_Jun_01_1116	s	s	18	1	Capacity	51	ABS	1	0	08VC 16MC	1	0	0.285377025604	None	None	427	55	0
2.7	2015_Jun_01_1116	s	s	18	1	Capacity	52	RC	2	0	15VC 08MC	1	0	0.559810876846	163.0	-228.0	163	-233	1
2.7	2015_Jun_01_1116	s	s	18	1	Capacity	53	ABS	1	0	08VC 16MC	1	0	0.346920013428	None	None	203	-170	0
2.7	2015_Jun_01_1116	s	s	18	1	Capacity	54	ABS	2	0	16VC 08MC	1	0	1.17644786835	None	None	193	324	0
2.7	2015_Jun_01_1116	s	s	18	1	Capacity	55	RC	1	0	08VC 15MC	1	0	4.59000301361	-431.0	-149.0	454	237	0
2.7	2015_Jun_01_1116	s	s	18	1	Capacity	56	RC	2	0	15VC 08MC	1	0	0.773519992828	-53.0	-214.0	-147	-78	0
2.7	2015_Jun_01_1116	s	s	18	1	Capacity	57	ABS	1	0	08VC 16MC	1	0	0.615055799484	None	None	-213	180	0
2.7	2015_Jun_01_1116	s	s	18	1	Capacity	58	RC	1	0	08VC 15MC	1	0	0.266537904739	524.0	355.0	-198	170	0
2.7	2015_Jun_01_1116	s	s	18	1	Capacity	59	RC	2	0	15VC 08MC	1	0	0.301717996597	62.0	-302.0	-242	175	0
2.7	2015_Jun_01_1116	s	s	18	1	Capacity	60	ABS	2	0	16VC 08MC	1	0	0.2701151371	None	None	-70	120	0
2.7	2015_Jun_01_1116	s	s	18	1	Capacity	61	ABS	2	0	16VC 08MC	1	0	0.28778886795	None	None	1	94	0
2.7	2015_Jun_01_1116	s	s	18	1	Capacity	62	ABS	1	0	08VC 16MC	1	0	0.323423147202	None	None	-35	223	0
2.7	2015_Jun_01_1116	s	s	18	1	Capacity	63	RC	2	0	15VC 08MC	1	0	0.243000030518	111.0	-68.0	90	111	0
2.7	2015_Jun_01_1116	s	s	18	1	Capacity	64	RC	1	0	08VC 15MC	1	0	0.360697031021	393.0	-226.0	44	-32	0
2.7	2015_Jun_01_1116	s	s	18	1	Capacity	1	RC	0	1	08RD 15RO	0	1	3.76109099388	-220.0	-15.0	None	None	0
2.7	2015_Jun_01_1116	s	s	18	1	Capacity	2	ABS	0	1	08RD 16RO	1	0	4.09099888802	None	None	18	-47	0
2.7	2015_Jun_01_1116	s	s	18	1	Capacity	3	ABS	0	2	16RD 08RO	0	1	7.04719090462	None	None	None	None	1
2.7	2015_Jun_01_1116	s	s	18	1	Capacity	4	RC	0	2	15RD 08RO	1	0	4.18434882164	-445.0	-317.0	-443	-316	1
2.7	2015_Jun_01_1116	s	s	18	1	Capacity	5	ABS	0	1	08RD 16RO	0	1	5.22070097923	None	None	None	None	1
2.7	2015_Jun_01_1116	s	s	18	1	Capacity	6	RC	0	2	15RD 08RO	1	0	3.09130883217	-89.0	-69.0	-86	-76	1
2.7	2015_Jun_01_1116	s	s	18	1	Capacity	7	ABS	0	2	16RD 08RO	0	1	4.78670406342	None	None	None	None	1
2.7	2015_Jun_01_1116	s	s	18	1	Capacity	8	RC	0	1	08RD 15RO	0	1	4.84656691551	129.0	144.0	None	None	0
2.7	2015_Jun_01_1116	s	s	18	1	Capacity	9	RC	0	1	08RD 15RO	1	0	2.68978095055	-492.0	-247.0	-492	-255	1
2.7	2015_Jun_01_1116	s	s	18	1	Capacity	10	RC	0	2	15RD 08RO	1	0	3.96609807014	319.0	379.0	319	373	1
2.7	2015_Jun_01_1116	s	s	18	1	Capacity	11	ABS	0	1	08RD 16RO	0	1	9.18942403793	None	None	None	None	1
2.7	2015_Jun_01_1116	s	s	18	1	Capacity	12	ABS	0	2	16RD 08RO	0	1	3.91926383972	None	None	None	None	1
2.7	2015_Jun_01_1116	s	s	18	1	Capacity	13	ABS	0	1	08RD 16RO	0	1	4.81352710724	None	None	None	None	1
2.7	2015_Jun_01_1116	s	s	18	1	Capacity	14	ABS	0	2	16RD 08RO	0	1	3.23116898537	None	None	None	None	1
2.7	2015_Jun_01_1116	s	s	18	1	Capacity	15	RC	0	1	08RD 15RO	0	1	3.34825181961	-194.0	383.0	None	None	0
2.7	2015_Jun_01_1116	s	s	18	1	Capacity	16	RC	0	2	15RD 08RO	1	0	2.61239385605	149.0	325.0	-82	115	0
2.7	2015_Jun_01_1116	s	s	18	1	Capacity	17	ABS	0	1	08RD 16RO	0	1	6.48088288307	None	None	None	None	1
2.7	2015_Jun_01_1116	s	s	18	1	Capacity	18	RC	0	2	15RD 08RO	0	1	2.47123193741	-19.0	-150.0	None	None	0
2.7	2015_Jun_01_1116	s	s	18	1	Capacity	19	RC	0	1	08RD 15RO	0	1	5.76685905457	-412.0	36.0	None	None	0
2.7	2015_Jun_01_1116	s	s	18	1	Capacity	20	ABS	0	2	16RD 08RO	0	1	2.50325608253	None	None	None	None	1
2.7	2015_Jun_01_1116	s	s	18	1	Capacity	21	RC	0	1	08RD 15RO	0	1	2.02396416664	279.0	65.0	None	None	0
2.7	2015_Jun_01_1116	s	s	18	1	Capacity	22	ABS	0	2	16RD 08RO	0	1	1.77318286896	None	None	None	None	1
2.7	2015_Jun_01_1116	s	s	18	1	Capacity	23	RC	0	2	15RD 08RO	1	0	2.11850595474	410.0	-17.0	412	-15	1
2.7	2015_Jun_01_1116	s	s	18	1	Capacity	24	ABS	0	1	08RD 16RO	0	1	4.12584590912	None	None	None	None	1
2.7	2015_Jun_01_1116	s	s	18	1	Capacity	25	ABS	0	1	08RD 16RO	0	1	4.14917993546	None	None	None	None	1
2.7	2015_Jun_01_1116	s	s	18	1	Capacity	26	RC	0	1	08RD 15RO	0	1	4.08095884323	-177.0	-352.0	None	None	0
2.7	2015_Jun_01_1116	s	s	18	1	Capacity	27	ABS	0	2	16RD 08RO	0	1	4.45225214958	None	None	None	None	1
2.7	2015_Jun_01_1116	s	s	18	1	Capacity	28	RC	0	2	15RD 08RO	0	1	2.82433390617	338.0	277.0	None	None	0
2.7	2015_Jun_01_1116	s	s	18	1	Capacity	29	RC	0	2	15RD 08RO	1	0	8.39862704277	375.0	-10.0	375	-16	1
2.7	2015_Jun_01_1116	s	s	18	1	Capacity	30	ABS	0	1	08RD 16RO	0	1	4.66998410225	None	None	None	None	1
2.7	2015_Jun_01_1116	s	s	18	1	Capacity	31	RC	0	1	08RD 15RO	1	0	3.46018815041	491.0	186.0	491	182	1
2.7	2015_Jun_01_1116	s	s	18	1	Capacity	32	ABS	0	2	16RD 08RO	0	1	2.99643802643	None	None	None	None	1
2.7	2015_Jun_01_1116	s	s	18	1	Capacity	33	RC	0	1	08RD 15RO	0	1	3.44820380211	-122.0	407.0	None	None	0
2.7	2015_Jun_01_1116	s	s	18	1	Capacity	34	ABS	0	2	16RD 08RO	0	1	4.21995592117	None	None	None	None	1
2.7	2015_Jun_01_1116	s	s	18	1	Capacity	35	RC	0	2	15RD 08RO	0	1	2.66753101349	453.0	-265.0	None	None	0
2.7	2015_Jun_01_1116	s	s	18	1	Capacity	36	ABS	0	1	08RD 16RO	0	1	5.5259001255	None	None	None	None	1
2.7	2015_Jun_01_1116	s	s	18	1	Capacity	37	RC	0	1	08RD 15RO	1	0	3.88366007805	372.0	342.0	363	342	1
2.7	2015_Jun_01_1116	s	s	18	1	Capacity	38	ABS	0	1	08RD 16RO	0	1	2.75366687775	None	None	None	None	1
2.7	2015_Jun_01_1116	s	s	18	1	Capacity	39	ABS	0	2	16RD 08RO	1	0	2.60070204735	None	None	84	-8	0
2.7	2015_Jun_01_1116	s	s	18	1	Capacity	40	RC	0	2	15RD 08RO	1	0	2.68060898781	-183.0	-263.0	-183	-279	1
2.7	2015_Jun_01_1116	s	s	18	1	Capacity	41	RC	0	2	15RD 08RO	1	0	1.93838500977	-487.0	143.0	-478	146	1
2.7	2015_Jun_01_1116	s	s	18	1	Capacity	42	RC	0	1	08RD 15RO	1	0	1.3007171154	-174.0	198.0	-171	196	1
2.7	2015_Jun_01_1116	s	s	18	1	Capacity	43	ABS	0	2	16RD 08RO	0	1	4.06691288948	None	None	None	None	1
2.7	2015_Jun_01_1116	s	s	18	1	Capacity	44	ABS	0	1	08RD 16RO	0	1	5.15855717659	None	None	None	None	1
2.7	2015_Jun_01_1116	s	s	18	1	Capacity	45	RC	0	2	15RD 08RO	1	0	2.91852498055	-212.0	-347.0	-208	-349	1
2.7	2015_Jun_01_1116	s	s	18	1	Capacity	46	RC	0	1	08RD 15RO	1	0	1.61845517159	159.0	-265.0	163	-260	1
2.7	2015_Jun_01_1116	s	s	18	1	Capacity	47	ABS	0	1	08RD 16RO	0	1	4.58611416817	None	None	None	None	1
2.7	2015_Jun_01_1116	s	s	18	1	Capacity	48	ABS	0	2	16RD 08RO	0	1	3.72704219818	None	None	None	None	1
2.7	2015_Jun_01_1116	s	s	18	1	Capacity	49	ABS	0	2	16RD 08RO	0	1	5.65576291084	None	None	None	None	1
2.7	2015_Jun_01_1116	s	s	18	1	Capacity	50	RC	0	1	08RD 15RO	0	1	7.29766702652	40.0	117.0	None	None	0
2.7	2015_Jun_01_1116	s	s	18	1	Capacity	51	ABS	0	1	08RD 16RO	0	1	3.73676991463	None	None	None	None	1
2.7	2015_Jun_01_1116	s	s	18	1	Capacity	52	RC	0	2	15RD 08RO	1	0	3.59320402145	255.0	100.0	251	89	1
2.7	2015_Jun_01_1116	s	s	18	1	Capacity	53	ABS	0	2	16RD 08RO	0	1	2.68040108681	None	None	None	None	1
2.7	2015_Jun_01_1116	s	s	18	1	Capacity	54	RC	0	2	15RD 08RO	1	0	4.31404304504	253.0	58.0	259	52	1
2.7	2015_Jun_01_1116	s	s	18	1	Capacity	55	RC	0	1	08RD 15RO	1	0	0.952801942825	281.0	9.0	286	7	1
2.7	2015_Jun_01_1116	s	s	18	1	Capacity	56	ABS	0	1	08RD 16RO	0	1	4.70423698425	None	None	None	None	1
2.7	2015_Jun_01_1116	s	s	18	1	Capacity	57	RC	0	2	15RD 08RO	1	0	1.87789392471	-206.0	-204.0	-214	-205	1
2.7	2015_Jun_01_1116	s	s	18	1	Capacity	58	RC	0	1	08RD 15RO	1	0	1.66519594193	147.0	95.0	144	85	1
2.7	2015_Jun_01_1116	s	s	18	1	Capacity	59	ABS	0	2	16RD 08RO	0	1	3.98963499069	None	None	None	None	1
2.7	2015_Jun_01_1116	s	s	18	1	Capacity	60	ABS	0	1	08RD 16RO	0	1	2.11825084686	None	None	None	None	1
2.7	2015_Jun_01_1116	s	s	18	1	Capacity	61	ABS	0	1	08RD 16RO	0	1	4.3279747963	None	None	None	None	1
2.7	2015_Jun_01_1116	s	s	18	1	Capacity	62	RC	0	1	08RD 15RO	0	1	2.9489030838	-239.0	-389.0	None	None	0
2.7	2015_Jun_01_1116	s	s	18	1	Capacity	63	ABS	0	2	16RD 08RO	0	1	2.77779006958	None	None	None	None	1
2.7	2015_Jun_01_1116	s	s	18	1	Capacity	64	RC	0	2	15RD 08RO	0	1	9.38058900833	537.0	-333.0	None	None	0
2.7	2015_Jun_01_1116	s	s	18	1	SIC	1	ABS	1	2	02VD 02VO 02VC 10MD 02MO 02MC 02RD 02RO	1	0	5.16211915016	None	None	255	385	0
2.7	2015_Jun_01_1116	s	s	18	1	SIC	2	RC	1	2	02VD 02VO 02VC 09MD 02MO 02MC 02RD 02RO	1	0	1.37644195557	-131.0	231.0	-132	231	1
2.7	2015_Jun_01_1116	s	s	18	1	SIC	3	ABS	2	2	10VD 02VO 02VC 02MD 02MO 02MC 02RD 02RO	1	0	0.724072933197	None	None	-293	300	0
2.7	2015_Jun_01_1116	s	s	18	1	SIC	4	RC	1	0	02VD 02VO 02VC 02MD 02MO 09MC 02RD 02RO	1	0	1.15290617943	144.0	267.0	145	267	1
2.7	2015_Jun_01_1116	s	s	18	1	SIC	5	RC	2	2	09VD 02VO 02VC 02MD 02MO 02MC 02RD 02RO	1	0	0.912467002869	-172.0	-37.0	-32	145	0
2.7	2015_Jun_01_1116	s	s	18	1	SIC	6	ABS	0	2	02VD 02VO 02VC 02MD 02MO 02MC 10RD 02RO	1	0	0.853057861328	None	None	-493	372	0
2.7	2015_Jun_01_1116	s	s	18	1	SIC	7	ABS	1	1	02VD 02VO 02VC 02MD 10MO 02MC 02RD 02RO	1	0	1.77395200729	None	None	4	29	0
2.7	2015_Jun_01_1116	s	s	18	1	SIC	8	RC	2	0	02VD 02VO 09VC 02MD 02MO 02MC 02RD 02RO	1	0	0.799812078476	438.0	-276.0	35	191	0
2.7	2015_Jun_01_1116	s	s	18	1	SIC	9	RC	0	2	02VD 02VO 02VC 02MD 02MO 02MC 09RD 02RO	1	0	2.29228591919	-314.0	-132.0	-311	-140	1
2.7	2015_Jun_01_1116	s	s	18	1	SIC	10	ABS	1	0	02VD 02VO 02VC 02MD 02MO 10MC 02RD 02RO	1	0	1.18565201759	None	None	44	-59	0
2.7	2015_Jun_01_1116	s	s	18	1	SIC	11	RC	2	1	02VD 09VO 02VC 02MD 02MO 02MC 02RD 02RO	1	0	0.867662906647	279.0	58.0	225	-44	0
2.7	2015_Jun_01_1116	s	s	18	1	SIC	12	RC	1	1	02VD 02VO 02VC 02MD 09MO 02MC 02RD 02RO	1	0	0.611304044724	-40.0	57.0	-48	61	1
2.7	2015_Jun_01_1116	s	s	18	1	SIC	13	ABS	2	1	02VD 10VO 02VC 02MD 02MO 02MC 02RD 02RO	1	0	1.30037999153	None	None	56	286	0
2.7	2015_Jun_01_1116	s	s	18	1	SIC	14	ABS	0	1	02VD 02VO 02VC 02MD 02MO 02MC 02RD 10RO	1	0	4.8461689949	None	None	-524	-405	0
2.7	2015_Jun_01_1116	s	s	18	1	SIC	15	ABS	2	0	02VD 02VO 10VC 02MD 02MO 02MC 02RD 02RO	1	0	1.70601391792	None	None	400	-399	0
2.7	2015_Jun_01_1116	s	s	18	1	SIC	16	RC	0	1	02VD 02VO 02VC 02MD 02MO 02MC 02RD 09RO	1	0	5.24581003189	-459.0	105.0	-465	110	1
2.7	2015_Jun_01_1116	s	s	18	1	SIC	17	RC	2	1	02VD 09VO 02VC 02MD 02MO 02MC 02RD 02RO	1	0	1.82376408577	433.0	283.0	-158	375	0
2.7	2015_Jun_01_1116	s	s	18	1	SIC	18	ABS	2	2	10VD 02VO 02VC 02MD 02MO 02MC 02RD 02RO	1	0	1.27103590965	None	None	210	-126	0
2.7	2015_Jun_01_1116	s	s	18	1	SIC	19	ABS	1	0	02VD 02VO 02VC 02MD 02MO 10MC 02RD 02RO	1	0	0.909331083298	None	None	212	-27	0
2.7	2015_Jun_01_1116	s	s	18	1	SIC	20	ABS	2	0	02VD 02VO 10VC 02MD 02MO 02MC 02RD 02RO	1	0	4.22481894493	None	None	338	176	0
2.7	2015_Jun_01_1116	s	s	18	1	SIC	21	RC	1	2	02VD 02VO 02VC 09MD 02MO 02MC 02RD 02RO	1	0	1.74742007256	468.0	-197.0	467	-202	1
2.7	2015_Jun_01_1116	s	s	18	1	SIC	22	ABS	2	1	02VD 10VO 02VC 02MD 02MO 02MC 02RD 02RO	1	0	2.5421359539	None	None	-328	-88	0
2.7	2015_Jun_01_1116	s	s	18	1	SIC	23	RC	2	0	02VD 02VO 09VC 02MD 02MO 02MC 02RD 02RO	1	0	1.37643289566	122.0	136.0	117	135	1
2.7	2015_Jun_01_1116	s	s	18	1	SIC	24	ABS	1	2	02VD 02VO 02VC 10MD 02MO 02MC 02RD 02RO	1	0	1.63552093506	None	None	-88	124	0
2.7	2015_Jun_01_1116	s	s	18	1	SIC	25	ABS	1	1	02VD 02VO 02VC 02MD 10MO 02MC 02RD 02RO	1	0	1.72956490517	None	None	156	29	0
2.7	2015_Jun_01_1116	s	s	18	1	SIC	26	ABS	0	2	02VD 02VO 02VC 02MD 02MO 02MC 10RD 02RO	1	0	3.17298102379	None	None	10	278	0
2.7	2015_Jun_01_1116	s	s	18	1	SIC	27	RC	2	2	09VD 02VO 02VC 02MD 02MO 02MC 02RD 02RO	1	0	0.900106906891	-149.0	284.0	-151	290	1
2.7	2015_Jun_01_1116	s	s	18	1	SIC	28	RC	0	2	02VD 02VO 02VC 02MD 02MO 02MC 09RD 02RO	1	0	0.67022395134	-52.0	153.0	-43	157	1
2.7	2015_Jun_01_1116	s	s	18	1	SIC	29	ABS	0	1	02VD 02VO 02VC 02MD 02MO 02MC 02RD 10RO	1	0	2.73929786682	None	None	-60	-369	0
2.7	2015_Jun_01_1116	s	s	18	1	SIC	30	RC	0	1	02VD 02VO 02VC 02MD 02MO 02MC 02RD 09RO	1	0	1.81200098991	217.0	-78.0	214	-75	1
2.7	2015_Jun_01_1116	s	s	18	1	SIC	31	RC	1	0	02VD 02VO 02VC 02MD 02MO 09MC 02RD 02RO	1	0	0.773543119431	131.0	125.0	130	130	1
2.7	2015_Jun_01_1116	s	s	18	1	SIC	32	RC	1	1	02VD 02VO 02VC 02MD 09MO 02MC 02RD 02RO	1	0	1.45887112617	130.0	-190.0	2	354	0
2.7	2015_Jun_01_1116	s	s	18	1	SIC	33	RC	0	1	02VD 02VO 02VC 02MD 02MO 02MC 02RD 09RO	1	0	1.48025488853	-155.0	50.0	481	388	0
2.7	2015_Jun_01_1116	s	s	18	1	SIC	34	ABS	1	0	02VD 02VO 02VC 02MD 02MO 10MC 02RD 02RO	1	0	1.16179490089	None	None	338	294	0
2.7	2015_Jun_01_1116	s	s	18	1	SIC	35	ABS	0	1	02VD 02VO 02VC 02MD 02MO 02MC 02RD 10RO	1	0	3.57751202583	None	None	-269	-358	0
2.7	2015_Jun_01_1116	s	s	18	1	SIC	36	RC	2	2	09VD 02VO 02VC 02MD 02MO 02MC 02RD 02RO	1	0	0.858756065369	226.0	-23.0	-206	-97	0
2.7	2015_Jun_01_1116	s	s	18	1	SIC	37	ABS	2	0	02VD 02VO 10VC 02MD 02MO 02MC 02RD 02RO	1	0	0.788009881973	None	None	83	269	0
2.7	2015_Jun_01_1116	s	s	18	1	SIC	38	RC	2	0	02VD 02VO 09VC 02MD 02MO 02MC 02RD 02RO	1	0	1.417760849	-304.0	168.0	-309	157	1
2.7	2015_Jun_01_1116	s	s	18	1	SIC	39	ABS	1	1	02VD 02VO 02VC 02MD 10MO 02MC 02RD 02RO	1	0	3.13658714294	None	None	398	348	0
2.7	2015_Jun_01_1116	s	s	18	1	SIC	40	ABS	0	2	02VD 02VO 02VC 02MD 02MO 02MC 10RD 02RO	1	0	1.24127483368	None	None	332	-62	0
2.7	2015_Jun_01_1116	s	s	18	1	SIC	41	RC	2	1	02VD 09VO 02VC 02MD 02MO 02MC 02RD 02RO	1	0	0.982643842697	472.0	-293.0	16	-62	0
2.7	2015_Jun_01_1116	s	s	18	1	SIC	42	RC	1	2	02VD 02VO 02VC 09MD 02MO 02MC 02RD 02RO	1	0	2.43113923073	-8.0	223.0	456	-404	0
2.7	2015_Jun_01_1116	s	s	18	1	SIC	43	ABS	2	1	02VD 10VO 02VC 02MD 02MO 02MC 02RD 02RO	1	0	1.10315513611	None	None	497	-190	0
2.7	2015_Jun_01_1116	s	s	18	1	SIC	44	ABS	2	2	10VD 02VO 02VC 02MD 02MO 02MC 02RD 02RO	1	0	1.85346794128	None	None	475	-151	0
2.7	2015_Jun_01_1116	s	s	18	1	SIC	45	ABS	1	2	02VD 02VO 02VC 10MD 02MO 02MC 02RD 02RO	1	0	2.63595700264	None	None	-325	-93	0
2.7	2015_Jun_01_1116	s	s	18	1	SIC	46	RC	1	1	02VD 02VO 02VC 02MD 09MO 02MC 02RD 02RO	1	0	1.12936782837	112.0	262.0	-2	60	0
2.7	2015_Jun_01_1116	s	s	18	1	SIC	47	RC	1	0	02VD 02VO 02VC 02MD 02MO 09MC 02RD 02RO	1	0	1.59747099876	137.0	-64.0	77	102	0
2.7	2015_Jun_01_1116	s	s	18	1	SIC	48	RC	0	2	02VD 02VO 02VC 02MD 02MO 02MC 09RD 02RO	1	0	1.13828992844	286.0	-279.0	180	351	0
2.7	2015_Jun_01_1116	s	s	18	1	SIC	49	RC	1	1	02VD 02VO 02VC 02MD 09MO 02MC 02RD 02RO	1	0	2.17172503471	258.0	-199.0	-469	-284	0
2.7	2015_Jun_01_1116	s	s	18	1	SIC	50	RC	1	2	02VD 02VO 02VC 09MD 02MO 02MC 02RD 02RO	1	0	0.905753850937	-161.0	-118.0	-162	-124	1
2.7	2015_Jun_01_1116	s	s	18	1	SIC	51	ABS	1	1	02VD 02VO 02VC 02MD 10MO 02MC 02RD 02RO	1	0	2.07787394524	None	None	49	169	0
2.7	2015_Jun_01_1116	s	s	18	1	SIC	52	ABS	2	0	02VD 02VO 10VC 02MD 02MO 02MC 02RD 02RO	1	0	3.40109300613	None	None	-274	89	0
2.7	2015_Jun_01_1116	s	s	18	1	SIC	53	ABS	2	1	02VD 10VO 02VC 02MD 02MO 02MC 02RD 02RO	1	0	1.30161595345	None	None	-396	76	0
2.7	2015_Jun_01_1116	s	s	18	1	SIC	54	RC	0	1	02VD 02VO 02VC 02MD 02MO 02MC 02RD 09RO	1	0	1.4444360733	44.0	-335.0	-142	349	0
2.7	2015_Jun_01_1116	s	s	18	1	SIC	55	RC	1	0	02VD 02VO 02VC 02MD 02MO 09MC 02RD 02RO	1	0	1.13837099075	323.0	-289.0	219	394	0
2.7	2015_Jun_01_1116	s	s	18	1	SIC	56	RC	2	2	09VD 02VO 02VC 02MD 02MO 02MC 02RD 02RO	1	0	1.75936603546	-10.0	-173.0	-272	-65	0
2.7	2015_Jun_01_1116	s	s	18	1	SIC	57	ABS	2	2	10VD 02VO 02VC 02MD 02MO 02MC 02RD 02RO	1	0	0.952795982361	None	None	73	280	0
2.7	2015_Jun_01_1116	s	s	18	1	SIC	58	ABS	0	1	02VD 02VO 02VC 02MD 02MO 02MC 02RD 10RO	1	0	4.21037793159	None	None	-287	-320	0
2.7	2015_Jun_01_1116	s	s	18	1	SIC	59	RC	0	2	02VD 02VO 02VC 02MD 02MO 02MC 09RD 02RO	1	0	1.53858995438	-534.0	254.0	-280	16	0
2.7	2015_Jun_01_1116	s	s	18	1	SIC	60	ABS	0	2	02VD 02VO 02VC 02MD 02MO 02MC 10RD 02RO	1	0	1.0914080143	None	None	-543	116	0
2.7	2015_Jun_01_1116	s	s	18	1	SIC	61	RC	2	1	02VD 09VO 02VC 02MD 02MO 02MC 02RD 02RO	1	0	1.01151800156	425.0	-288.0	-100	-164	0
2.7	2015_Jun_01_1116	s	s	18	1	SIC	62	ABS	1	2	02VD 02VO 02VC 10MD 02MO 02MC 02RD 02RO	1	0	1.21804404259	None	None	-87	-45	0
2.7	2015_Jun_01_1116	s	s	18	1	SIC	63	RC	2	0	02VD 02VO 09VC 02MD 02MO 02MC 02RD 02RO	1	0	1.9368929863	-477.0	-345.0	-468	-347	1
2.7	2015_Jun_01_1116	s	s	18	1	SIC	64	ABS	1	0	02VD 02VO 02VC 02MD 02MO 10MC 02RD 02RO	1	0	1.52709698677	None	None	-335	-392	0
2.7	2015_Jun_01_1116	s	s	18	1	SIC	65	ABS	2	1	02VD 10VO 02VC 02MD 02MO 02MC 02RD 02RO	1	0	0.823414087296	None	None	-337	-285	0
2.7	2015_Jun_01_1116	s	s	18	1	SIC	66	RC	1	1	02VD 02VO 02VC 02MD 09MO 02MC 02RD 02RO	1	0	1.92975997925	-392.0	-36.0	-393	-37	1
2.7	2015_Jun_01_1116	s	s	18	1	SIC	67	ABS	1	2	02VD 02VO 02VC 10MD 02MO 02MC 02RD 02RO	1	0	3.69534611702	None	None	-186	261	0
2.7	2015_Jun_01_1116	s	s	18	1	SIC	68	ABS	0	1	02VD 02VO 02VC 02MD 02MO 02MC 02RD 10RO	1	0	0.936204910278	None	None	55	-54	0
2.7	2015_Jun_01_1116	s	s	18	1	SIC	69	ABS	2	2	10VD 02VO 02VC 02MD 02MO 02MC 02RD 02RO	1	0	3.47160720825	None	None	-489	-249	0
2.7	2015_Jun_01_1116	s	s	18	1	SIC	70	ABS	1	1	02VD 02VO 02VC 02MD 10MO 02MC 02RD 02RO	1	0	4.06631803513	None	None	212	-198	0
2.7	2015_Jun_01_1116	s	s	18	1	SIC	71	RC	1	0	02VD 02VO 02VC 02MD 02MO 09MC 02RD 02RO	1	0	0.882077932358	140.0	43.0	133	37	1
2.7	2015_Jun_01_1116	s	s	18	1	SIC	72	ABS	2	0	02VD 02VO 10VC 02MD 02MO 02MC 02RD 02RO	1	0	2.98910307884	None	None	143	-205	0
2.7	2015_Jun_01_1116	s	s	18	1	SIC	73	ABS	1	0	02VD 02VO 02VC 02MD 02MO 10MC 02RD 02RO	1	0	3.71323680878	None	None	-494	232	0
2.7	2015_Jun_01_1116	s	s	18	1	SIC	74	RC	2	1	02VD 09VO 02VC 02MD 02MO 02MC 02RD 02RO	1	0	2.90666794777	-144.0	83.0	-145	75	1
2.7	2015_Jun_01_1116	s	s	18	1	SIC	75	RC	2	2	09VD 02VO 02VC 02MD 02MO 02MC 02RD 02RO	1	0	1.64198207855	-222.0	-300.0	-460	395	0
2.7	2015_Jun_01_1116	s	s	18	1	SIC	76	RC	0	2	02VD 02VO 02VC 02MD 02MO 02MC 09RD 02RO	1	0	1.36466598511	177.0	-69.0	-432	-312	0
2.7	2015_Jun_01_1116	s	s	18	1	SIC	77	RC	0	1	02VD 02VO 02VC 02MD 02MO 02MC 02RD 09RO	1	0	0.573691129684	-203.0	-213.0	-86	78	0
2.7	2015_Jun_01_1116	s	s	18	1	SIC	78	ABS	0	2	02VD 02VO 02VC 02MD 02MO 02MC 10RD 02RO	1	0	2.90678906441	None	None	-496	-76	0
2.7	2015_Jun_01_1116	s	s	18	1	SIC	79	RC	1	2	02VD 02VO 02VC 09MD 02MO 02MC 02RD 02RO	1	0	0.864726066589	39.0	116.0	46	111	1
2.7	2015_Jun_01_1116	s	s	18	1	SIC	80	RC	2	0	02VD 02VO 09VC 02MD 02MO 02MC 02RD 02RO	1	0	1.24402093887	345.0	207.0	348	211	1
2.7	2015_Jun_01_1116	s	s	18	1	SIC	81	RC	0	2	02VD 02VO 02VC 02MD 02MO 02MC 09RD 02RO	1	0	1.25355601311	149.0	-333.0	-365	-91	0
2.7	2015_Jun_01_1116	s	s	18	1	SIC	82	ABS	2	0	02VD 02VO 10VC 02MD 02MO 02MC 02RD 02RO	1	0	2.46850013733	None	None	-261	-215	0
2.7	2015_Jun_01_1116	s	s	18	1	SIC	83	RC	1	1	02VD 02VO 02VC 02MD 09MO 02MC 02RD 02RO	1	0	1.90125608444	-305.0	-410.0	-325	127	0
2.7	2015_Jun_01_1116	s	s	18	1	SIC	84	RC	2	0	02VD 02VO 09VC 02MD 02MO 02MC 02RD 02RO	1	0	1.83298897743	-227.0	39.0	-223	32	1
2.7	2015_Jun_01_1116	s	s	18	1	SIC	85	ABS	0	1	02VD 02VO 02VC 02MD 02MO 02MC 02RD 10RO	1	0	1.58824396133	None	None	-230	131	0
2.7	2015_Jun_01_1116	s	s	18	1	SIC	86	RC	0	1	02VD 02VO 02VC 02MD 02MO 02MC 02RD 09RO	1	0	1.16065096855	-336.0	-94.0	-335	-98	1
2.7	2015_Jun_01_1116	s	s	18	1	SIC	87	RC	2	2	09VD 02VO 02VC 02MD 02MO 02MC 02RD 02RO	1	0	1.60017180443	-522.0	-156.0	-520	-162	1
2.7	2015_Jun_01_1116	s	s	18	1	SIC	88	RC	1	2	02VD 02VO 02VC 09MD 02MO 02MC 02RD 02RO	1	0	1.27989387512	-57.0	-221.0	-57	-225	1
2.7	2015_Jun_01_1116	s	s	18	1	SIC	89	RC	1	0	02VD 02VO 02VC 02MD 02MO 09MC 02RD 02RO	1	0	0.59699010849	-469.0	-175.0	-194	112	0
2.7	2015_Jun_01_1116	s	s	18	1	SIC	90	ABS	1	2	02VD 02VO 02VC 10MD 02MO 02MC 02RD 02RO	1	0	1.032102108	None	None	-151	292	0
2.7	2015_Jun_01_1116	s	s	18	1	SIC	91	ABS	0	2	02VD 02VO 02VC 02MD 02MO 02MC 10RD 02RO	1	0	2.77100419998	None	None	-473	155	0
2.7	2015_Jun_01_1116	s	s	18	1	SIC	92	ABS	1	1	02VD 02VO 02VC 02MD 10MO 02MC 02RD 02RO	1	0	1.15280890465	None	None	7	72	0
2.7	2015_Jun_01_1116	s	s	18	1	SIC	93	RC	2	1	02VD 09VO 02VC 02MD 02MO 02MC 02RD 02RO	1	0	1.71516609192	455.0	330.0	525	-141	0
2.7	2015_Jun_01_1116	s	s	18	1	SIC	94	ABS	2	1	02VD 10VO 02VC 02MD 02MO 02MC 02RD 02RO	1	0	3.24792790413	None	None	-408	371	0
2.7	2015_Jun_01_1116	s	s	18	1	SIC	95	ABS	1	0	02VD 02VO 02VC 02MD 02MO 10MC 02RD 02RO	1	0	1.2425839901	None	None	-353	153	0
2.7	2015_Jun_01_1116	s	s	18	1	SIC	96	ABS	2	2	10VD 02VO 02VC 02MD 02MO 02MC 02RD 02RO	1	0	4.87934207916	None	None	183	-328	0
2.7	2015_Jun_01_1116	s	s	18	1	SIC	97	ABS	2	2	10VD 02VO 02VC 02MD 02MO 02MC 02RD 02RO	1	0	0.878341913223	None	None	-225	-17	0
2.7	2015_Jun_01_1116	s	s	18	1	SIC	98	RC	1	0	02VD 02VO 02VC 02MD 02MO 09MC 02RD 02RO	1	0	0.652656078339	-535.0	-367.0	-156	113	0
2.7	2015_Jun_01_1116	s	s	18	1	SIC	99	ABS	1	2	02VD 02VO 02VC 10MD 02MO 02MC 02RD 02RO	1	0	1.40800690651	None	None	229	-171	0
2.7	2015_Jun_01_1116	s	s	18	1	SIC	100	ABS	2	1	02VD 10VO 02VC 02MD 02MO 02MC 02RD 02RO	1	0	1.38011193275	None	None	-490	90	0
2.7	2015_Jun_01_1116	s	s	18	1	SIC	101	RC	2	0	02VD 02VO 09VC 02MD 02MO 02MC 02RD 02RO	1	0	1.02360987663	-250.0	166.0	-248	166	1
2.7	2015_Jun_01_1116	s	s	18	1	SIC	102	RC	1	2	02VD 02VO 02VC 09MD 02MO 02MC 02RD 02RO	1	0	1.09032320976	458.0	-292.0	-486	-285	0
2.7	2015_Jun_01_1116	s	s	18	1	SIC	103	ABS	0	2	02VD 02VO 02VC 02MD 02MO 02MC 10RD 02RO	1	0	1.14113211632	None	None	-443	-25	0
2.7	2015_Jun_01_1116	s	s	18	1	SIC	104	ABS	0	1	02VD 02VO 02VC 02MD 02MO 02MC 02RD 10RO	1	0	2.61241102219	None	None	52	388	0
2.7	2015_Jun_01_1116	s	s	18	1	SIC	105	RC	0	1	02VD 02VO 02VC 02MD 02MO 02MC 02RD 09RO	1	0	1.6533010006	-207.0	70.0	-518	284	0
2.7	2015_Jun_01_1116	s	s	18	1	SIC	106	ABS	2	0	02VD 02VO 10VC 02MD 02MO 02MC 02RD 02RO	1	0	2.15341591835	None	None	393	-383	0
2.7	2015_Jun_01_1116	s	s	18	1	SIC	107	RC	2	2	09VD 02VO 02VC 02MD 02MO 02MC 02RD 02RO	1	0	1.2351500988	-375.0	-408.0	293	385	0
2.7	2015_Jun_01_1116	s	s	18	1	SIC	108	RC	2	1	02VD 09VO 02VC 02MD 02MO 02MC 02RD 02RO	1	0	2.16519093513	449.0	25.0	-395	151	0
2.7	2015_Jun_01_1116	s	s	18	1	SIC	109	RC	1	1	02VD 02VO 02VC 02MD 09MO 02MC 02RD 02RO	1	0	0.911928892136	-282.0	93.0	-277	93	1
2.7	2015_Jun_01_1116	s	s	18	1	SIC	110	ABS	1	0	02VD 02VO 02VC 02MD 02MO 10MC 02RD 02RO	1	0	1.52618813515	None	None	-457	-139	0
2.7	2015_Jun_01_1116	s	s	18	1	SIC	111	RC	0	2	02VD 02VO 02VC 02MD 02MO 02MC 09RD 02RO	1	0	1.47062802315	-308.0	378.0	476	263	0
2.7	2015_Jun_01_1116	s	s	18	1	SIC	112	ABS	1	1	02VD 02VO 02VC 02MD 10MO 02MC 02RD 02RO	1	0	1.68837809563	None	None	-482	188	0
2.7	2015_Jun_01_1116	s	s	18	1	SIC	113	ABS	2	1	02VD 10VO 02VC 02MD 02MO 02MC 02RD 02RO	1	0	1.62386393547	None	None	494	-318	0
2.7	2015_Jun_01_1116	s	s	18	1	SIC	114	ABS	2	2	10VD 02VO 02VC 02MD 02MO 02MC 02RD 02RO	1	0	0.917428970337	None	None	36	128	0
2.7	2015_Jun_01_1116	s	s	18	1	SIC	115	ABS	1	1	02VD 02VO 02VC 02MD 10MO 02MC 02RD 02RO	1	0	4.79802393913	None	None	-48	-210	0
2.7	2015_Jun_01_1116	s	s	18	1	SIC	116	ABS	2	0	02VD 02VO 10VC 02MD 02MO 02MC 02RD 02RO	1	0	3.36561203003	None	None	523	-9	0
2.7	2015_Jun_01_1116	s	s	18	1	SIC	117	RC	2	0	02VD 02VO 09VC 02MD 02MO 02MC 02RD 02RO	1	0	1.16461515427	-131.0	33.0	-138	32	1
2.7	2015_Jun_01_1116	s	s	18	1	SIC	118	RC	1	0	02VD 02VO 02VC 02MD 02MO 09MC 02RD 02RO	1	0	2.70438814163	-333.0	203.0	-326	201	1
2.7	2015_Jun_01_1116	s	s	18	1	SIC	119	RC	2	1	02VD 09VO 02VC 02MD 02MO 02MC 02RD 02RO	1	0	1.87860298157	-129.0	-225.0	-127	-224	1
2.7	2015_Jun_01_1116	s	s	18	1	SIC	120	RC	1	1	02VD 02VO 02VC 02MD 09MO 02MC 02RD 02RO	1	0	1.37065911293	-26.0	18.0	-20	27	1
2.7	2015_Jun_01_1116	s	s	18	1	SIC	121	ABS	0	1	02VD 02VO 02VC 02MD 02MO 02MC 02RD 10RO	1	0	1.8914000988	None	None	-257	-222	0
2.7	2015_Jun_01_1116	s	s	18	1	SIC	122	RC	1	2	02VD 02VO 02VC 09MD 02MO 02MC 02RD 02RO	1	0	2.5839650631	120.0	-144.0	125	-142	1
2.7	2015_Jun_01_1116	s	s	18	1	SIC	123	ABS	0	2	02VD 02VO 02VC 02MD 02MO 02MC 10RD 02RO	1	0	1.51126503944	None	None	170	-380	0
2.7	2015_Jun_01_1116	s	s	18	1	SIC	124	ABS	1	2	02VD 02VO 02VC 10MD 02MO 02MC 02RD 02RO	1	0	1.04678797722	None	None	-55	-231	0
2.7	2015_Jun_01_1116	s	s	18	1	SIC	125	RC	2	2	09VD 02VO 02VC 02MD 02MO 02MC 02RD 02RO	1	0	1.14106416702	529.0	-153.0	-503	248	0
2.7	2015_Jun_01_1116	s	s	18	1	SIC	126	RC	0	2	02VD 02VO 02VC 02MD 02MO 02MC 09RD 02RO	1	0	0.934853792191	-214.0	-81.0	95	124	0
2.7	2015_Jun_01_1116	s	s	18	1	SIC	127	ABS	1	0	02VD 02VO 02VC 02MD 02MO 10MC 02RD 02RO	1	0	2.28944993019	None	None	-143	-83	0
2.7	2015_Jun_01_1116	s	s	18	1	SIC	128	RC	0	1	02VD 02VO 02VC 02MD 02MO 02MC 02RD 09RO	1	0	0.870416879654	365.0	-113.0	101	-143	0
2.7	2015_Jun_01_1116	s	s	18	1	SIC	129	ABS	1	2	02VD 02VO 02VC 10MD 02MO 02MC 02RD 02RO	1	0	3.01252102852	None	None	497	179	0
2.7	2015_Jun_01_1116	s	s	18	1	SIC	130	ABS	2	1	02VD 10VO 02VC 02MD 02MO 02MC 02RD 02RO	1	0	1.50598216057	None	None	-418	-214	0
2.7	2015_Jun_01_1116	s	s	18	1	SIC	131	RC	2	0	02VD 02VO 09VC 02MD 02MO 02MC 02RD 02RO	1	0	0.950055122375	-388.0	-194.0	-389	-193	1
2.7	2015_Jun_01_1116	s	s	18	1	SIC	132	ABS	0	2	02VD 02VO 02VC 02MD 02MO 02MC 10RD 02RO	1	0	1.34726285934	None	None	431	-18	0
2.7	2015_Jun_01_1116	s	s	18	1	SIC	133	RC	2	2	09VD 02VO 02VC 02MD 02MO 02MC 02RD 02RO	1	0	0.924326896667	-87.0	-183.0	-90	-190	1
2.7	2015_Jun_01_1116	s	s	18	1	SIC	134	RC	2	1	02VD 09VO 02VC 02MD 02MO 02MC 02RD 02RO	1	0	2.07092499733	316.0	-322.0	-264	-78	0
2.7	2015_Jun_01_1116	s	s	18	1	SIC	135	RC	0	1	02VD 02VO 02VC 02MD 02MO 02MC 02RD 09RO	1	0	1.57093000412	-34.0	-342.0	-29	-346	1
2.7	2015_Jun_01_1116	s	s	18	1	SIC	136	RC	0	2	02VD 02VO 02VC 02MD 02MO 02MC 09RD 02RO	1	0	1.27932190895	-515.0	140.0	461	-225	0
2.7	2015_Jun_01_1116	s	s	18	1	SIC	137	RC	1	2	02VD 02VO 02VC 09MD 02MO 02MC 02RD 02RO	1	0	0.90291595459	159.0	-201.0	149	-193	1
2.7	2015_Jun_01_1116	s	s	18	1	SIC	138	RC	1	1	02VD 02VO 02VC 02MD 09MO 02MC 02RD 02RO	1	0	1.71275496483	1.0	157.0	-13	162	1
2.7	2015_Jun_01_1116	s	s	18	1	SIC	139	ABS	1	1	02VD 02VO 02VC 02MD 10MO 02MC 02RD 02RO	1	0	0.830013990402	None	None	103	173	0
2.7	2015_Jun_01_1116	s	s	18	1	SIC	140	ABS	2	2	10VD 02VO 02VC 02MD 02MO 02MC 02RD 02RO	1	0	1.45593094826	None	None	299	180	0
2.7	2015_Jun_01_1116	s	s	18	1	SIC	141	RC	1	0	02VD 02VO 02VC 02MD 02MO 09MC 02RD 02RO	1	0	0.44661283493	391.0	-285.0	158	191	0
2.7	2015_Jun_01_1116	s	s	18	1	SIC	142	ABS	2	0	02VD 02VO 10VC 02MD 02MO 02MC 02RD 02RO	1	0	3.82118606567	None	None	530	175	0
2.7	2015_Jun_01_1116	s	s	18	1	SIC	143	ABS	1	0	02VD 02VO 02VC 02MD 02MO 10MC 02RD 02RO	1	0	0.63876914978	None	None	317	255	0
2.7	2015_Jun_01_1116	s	s	18	1	SIC	144	ABS	0	1	02VD 02VO 02VC 02MD 02MO 02MC 02RD 10RO	1	0	1.1999669075	None	None	107	290	0
2.7	2015_Jun_01_1116	s	s	18	1	SIC	145	ABS	0	2	02VD 02VO 02VC 02MD 02MO 02MC 10RD 02RO	1	0	1.39740610123	None	None	429	-297	0
2.7	2015_Jun_01_1116	s	s	18	1	SIC	146	RC	1	0	02VD 02VO 02VC 02MD 02MO 09MC 02RD 02RO	1	0	0.685610055923	-451.0	1.0	201	-41	0
2.7	2015_Jun_01_1116	s	s	18	1	SIC	147	ABS	1	1	02VD 02VO 02VC 02MD 10MO 02MC 02RD 02RO	1	0	1.95321202278	None	None	-205	-51	0
2.7	2015_Jun_01_1116	s	s	18	1	SIC	148	ABS	2	2	10VD 02VO 02VC 02MD 02MO 02MC 02RD 02RO	1	0	1.33534383774	None	None	107	-208	0
2.7	2015_Jun_01_1116	s	s	18	1	SIC	149	RC	1	1	02VD 02VO 02VC 02MD 09MO 02MC 02RD 02RO	1	0	1.02898597717	459.0	-165.0	465	-173	1
2.7	2015_Jun_01_1116	s	s	18	1	SIC	150	RC	2	1	02VD 09VO 02VC 02MD 02MO 02MC 02RD 02RO	1	0	0.929196119308	444.0	-207.0	2	-254	0
2.7	2015_Jun_01_1116	s	s	18	1	SIC	151	ABS	0	1	02VD 02VO 02VC 02MD 02MO 02MC 02RD 10RO	1	0	0.617156028748	None	None	-87	42	0
2.7	2015_Jun_01_1116	s	s	18	1	SIC	152	RC	0	2	02VD 02VO 02VC 02MD 02MO 02MC 09RD 02RO	1	0	2.16240215302	-175.0	-137.0	522	-56	0
2.7	2015_Jun_01_1116	s	s	18	1	SIC	153	ABS	1	0	02VD 02VO 02VC 02MD 02MO 10MC 02RD 02RO	1	0	0.723416805267	None	None	279	69	0
2.7	2015_Jun_01_1116	s	s	18	1	SIC	154	RC	0	1	02VD 02VO 02VC 02MD 02MO 02MC 02RD 09RO	1	0	1.40014696121	403.0	219.0	394	223	1
2.7	2015_Jun_01_1116	s	s	18	1	SIC	155	RC	2	2	09VD 02VO 02VC 02MD 02MO 02MC 02RD 02RO	1	0	1.67769789696	-479.0	83.0	401	-18	0
2.7	2015_Jun_01_1116	s	s	18	1	SIC	156	ABS	2	0	02VD 02VO 10VC 02MD 02MO 02MC 02RD 02RO	1	0	1.51814889908	None	None	-427	69	0
2.7	2015_Jun_01_1116	s	s	18	1	SIC	157	ABS	2	1	02VD 10VO 02VC 02MD 02MO 02MC 02RD 02RO	1	0	0.882183074951	None	None	-340	120	0
2.7	2015_Jun_01_1116	s	s	18	1	SIC	158	ABS	1	2	02VD 02VO 02VC 10MD 02MO 02MC 02RD 02RO	1	0	3.730686903	None	None	274	-411	0
2.7	2015_Jun_01_1116	s	s	18	1	SIC	159	RC	1	2	02VD 02VO 02VC 09MD 02MO 02MC 02RD 02RO	1	0	0.964421987534	-260.0	266.0	98	-46	0
2.7	2015_Jun_01_1116	s	s	18	1	SIC	160	RC	2	0	02VD 02VO 09VC 02MD 02MO 02MC 02RD 02RO	1	0	0.938314199448	-381.0	-113.0	113	219	0
2.7	2015_Jun_01_1116	s	s	18	1	SIC	161	RC	1	2	02VD 02VO 02VC 09MD 02MO 02MC 02RD 02RO	1	0	0.665328025818	-399.0	-252.0	0	212	0
2.7	2015_Jun_01_1116	s	s	18	1	SIC	162	RC	0	2	02VD 02VO 02VC 02MD 02MO 02MC 09RD 02RO	1	0	1.06606292725	-13.0	-332.0	-295	-69	0
2.7	2015_Jun_01_1116	s	s	18	1	SIC	163	RC	2	0	02VD 02VO 09VC 02MD 02MO 02MC 02RD 02RO	1	0	1.24420404434	-276.0	-95.0	-268	-95	1
2.7	2015_Jun_01_1116	s	s	18	1	SIC	164	ABS	2	1	02VD 10VO 02VC 02MD 02MO 02MC 02RD 02RO	1	0	2.26614999771	None	None	-219	180	0
2.7	2015_Jun_01_1116	s	s	18	1	SIC	165	ABS	2	2	10VD 02VO 02VC 02MD 02MO 02MC 02RD 02RO	1	0	1.60871887207	None	None	363	349	0
2.7	2015_Jun_01_1116	s	s	18	1	SIC	166	RC	1	1	02VD 02VO 02VC 02MD 09MO 02MC 02RD 02RO	1	0	1.14463281631	295.0	-78.0	-496	182	0
2.7	2015_Jun_01_1116	s	s	18	1	SIC	167	RC	1	0	02VD 02VO 02VC 02MD 02MO 09MC 02RD 02RO	1	0	1.0206990242	-307.0	205.0	-149	177	0
2.7	2015_Jun_01_1116	s	s	18	1	SIC	168	ABS	1	1	02VD 02VO 02VC 02MD 10MO 02MC 02RD 02RO	1	0	2.91362285614	None	None	282	127	0
2.7	2015_Jun_01_1116	s	s	18	1	SIC	169	RC	2	1	02VD 09VO 02VC 02MD 02MO 02MC 02RD 02RO	1	0	1.01798796654	431.0	0.0	435	0	1
2.7	2015_Jun_01_1116	s	s	18	1	SIC	170	ABS	2	0	02VD 02VO 10VC 02MD 02MO 02MC 02RD 02RO	1	0	0.832281112671	None	None	100	91	0
2.7	2015_Jun_01_1116	s	s	18	1	SIC	171	ABS	1	0	02VD 02VO 02VC 02MD 02MO 10MC 02RD 02RO	1	0	0.889870166779	None	None	199	95	0
2.7	2015_Jun_01_1116	s	s	18	1	SIC	172	ABS	0	1	02VD 02VO 02VC 02MD 02MO 02MC 02RD 10RO	1	0	2.89522719383	None	None	-373	89	0
2.7	2015_Jun_01_1116	s	s	18	1	SIC	173	ABS	1	2	02VD 02VO 02VC 10MD 02MO 02MC 02RD 02RO	1	0	0.952837944031	None	None	440	153	0
2.7	2015_Jun_01_1116	s	s	18	1	SIC	174	RC	0	1	02VD 02VO 02VC 02MD 02MO 02MC 02RD 09RO	1	0	1.3882598877	419.0	-100.0	419	-105	1
2.7	2015_Jun_01_1116	s	s	18	1	SIC	175	RC	2	2	09VD 02VO 02VC 02MD 02MO 02MC 02RD 02RO	1	0	3.424669981	159.0	315.0	144	-347	0
2.7	2015_Jun_01_1116	s	s	18	1	SIC	176	ABS	0	2	02VD 02VO 02VC 02MD 02MO 02MC 10RD 02RO	1	0	2.14832782745	None	None	326	-157	0
2.7	2015_Jun_01_1116	s	s	18	1	SIC	177	ABS	0	2	02VD 02VO 02VC 02MD 02MO 02MC 10RD 02RO	1	0	2.16007494926	None	None	254	241	0
2.7	2015_Jun_01_1116	s	s	18	1	SIC	178	RC	0	2	02VD 02VO 02VC 02MD 02MO 02MC 09RD 02RO	1	0	0.634963989258	287.0	365.0	278	362	1
2.7	2015_Jun_01_1116	s	s	18	1	SIC	179	RC	1	1	02VD 02VO 02VC 02MD 09MO 02MC 02RD 02RO	1	0	1.94149494171	393.0	-350.0	115	-169	0
2.7	2015_Jun_01_1116	s	s	18	1	SIC	180	RC	2	1	02VD 09VO 02VC 02MD 02MO 02MC 02RD 02RO	1	0	0.890497207642	-304.0	23.0	166	139	0
2.7	2015_Jun_01_1116	s	s	18	1	SIC	181	ABS	1	2	02VD 02VO 02VC 10MD 02MO 02MC 02RD 02RO	1	0	1.88286089897	None	None	-330	-166	0
2.7	2015_Jun_01_1116	s	s	18	1	SIC	182	RC	1	2	02VD 02VO 02VC 09MD 02MO 02MC 02RD 02RO	1	0	0.596210956573	-40.0	52.0	-30	50	1
2.7	2015_Jun_01_1116	s	s	18	1	SIC	183	ABS	1	0	02VD 02VO 02VC 02MD 02MO 10MC 02RD 02RO	1	0	0.638783931732	None	None	-22	-78	0
2.7	2015_Jun_01_1116	s	s	18	1	SIC	184	RC	1	0	02VD 02VO 02VC 02MD 02MO 09MC 02RD 02RO	1	0	0.893847942352	254.0	-374.0	112	-247	0
2.7	2015_Jun_01_1116	s	s	18	1	SIC	185	ABS	1	1	02VD 02VO 02VC 02MD 10MO 02MC 02RD 02RO	1	0	2.52451205254	None	None	-436	281	0
2.7	2015_Jun_01_1116	s	s	18	1	SIC	186	RC	0	1	02VD 02VO 02VC 02MD 02MO 02MC 02RD 09RO	1	0	2.02389907837	405.0	185.0	-432	-9	0
2.7	2015_Jun_01_1116	s	s	18	1	SIC	187	ABS	0	1	02VD 02VO 02VC 02MD 02MO 02MC 02RD 10RO	1	0	0.728985071182	None	None	-120	-83	0
2.7	2015_Jun_01_1116	s	s	18	1	SIC	188	RC	2	0	02VD 02VO 09VC 02MD 02MO 02MC 02RD 02RO	1	0	1.27686285973	332.0	-222.0	-61	-120	0
2.7	2015_Jun_01_1116	s	s	18	1	SIC	189	ABS	2	0	02VD 02VO 10VC 02MD 02MO 02MC 02RD 02RO	1	0	0.752669095993	None	None	111	92	0
2.7	2015_Jun_01_1116	s	s	18	1	SIC	190	RC	2	2	09VD 02VO 02VC 02MD 02MO 02MC 02RD 02RO	1	0	0.841711044312	-376.0	237.0	331	113	0
2.7	2015_Jun_01_1116	s	s	18	1	SIC	191	ABS	2	1	02VD 10VO 02VC 02MD 02MO 02MC 02RD 02RO	1	0	1.07951283455	None	None	227	-66	0
2.7	2015_Jun_01_1116	s	s	18	1	SIC	192	ABS	2	2	10VD 02VO 02VC 02MD 02MO 02MC 02RD 02RO	1	0	3.43619799614	None	None	-350	134	0
2.7	2015_Jun_01_1116	s	s	18	1	SIC	193	RC	2	2	09VD 02VO 02VC 02MD 02MO 02MC 02RD 02RO	1	0	2.61595392227	338.0	-188.0	335	-192	1
2.7	2015_Jun_01_1116	s	s	18	1	SIC	194	ABS	2	1	02VD 10VO 02VC 02MD 02MO 02MC 02RD 02RO	1	0	1.12933897972	None	None	-510	29	0
2.7	2015_Jun_01_1116	s	s	18	1	SIC	195	RC	0	2	02VD 02VO 02VC 02MD 02MO 02MC 09RD 02RO	1	0	2.29451417923	381.0	162.0	138	-74	0
2.7	2015_Jun_01_1116	s	s	18	1	SIC	196	RC	0	1	02VD 02VO 02VC 02MD 02MO 02MC 02RD 09RO	1	0	1.96502709389	-478.0	-271.0	-438	110	0
2.7	2015_Jun_01_1116	s	s	18	1	SIC	197	RC	1	1	02VD 02VO 02VC 02MD 09MO 02MC 02RD 02RO	1	0	3.17278599739	482.0	246.0	484	242	1
2.7	2015_Jun_01_1116	s	s	18	1	SIC	198	ABS	1	1	02VD 02VO 02VC 02MD 10MO 02MC 02RD 02RO	1	0	1.81656718254	None	None	-459	296	0
2.7	2015_Jun_01_1116	s	s	18	1	SIC	199	RC	1	0	02VD 02VO 02VC 02MD 02MO 09MC 02RD 02RO	1	0	0.56804394722	-126.0	245.0	-125	238	1
2.7	2015_Jun_01_1116	s	s	18	1	SIC	200	RC	1	2	02VD 02VO 02VC 09MD 02MO 02MC 02RD 02RO	1	0	0.890714168549	200.0	-374.0	-386	256	0
2.7	2015_Jun_01_1116	s	s	18	1	SIC	201	ABS	0	2	02VD 02VO 02VC 02MD 02MO 02MC 10RD 02RO	1	0	0.666009187698	None	None	-154	147	0
2.7	2015_Jun_01_1116	s	s	18	1	SIC	202	ABS	2	2	10VD 02VO 02VC 02MD 02MO 02MC 02RD 02RO	1	0	1.58260989189	None	None	276	-392	0
2.7	2015_Jun_01_1116	s	s	18	1	SIC	203	ABS	0	1	02VD 02VO 02VC 02MD 02MO 02MC 02RD 10RO	1	0	1.46487379074	None	None	96	394	0
2.7	2015_Jun_01_1116	s	s	18	1	SIC	204	RC	2	1	02VD 09VO 02VC 02MD 02MO 02MC 02RD 02RO	1	0	0.587810993195	-312.0	100.0	-72	332	0
2.7	2015_Jun_01_1116	s	s	18	1	SIC	205	ABS	1	2	02VD 02VO 02VC 10MD 02MO 02MC 02RD 02RO	1	0	1.56489300728	None	None	-151	-227	0
2.7	2015_Jun_01_1116	s	s	18	1	SIC	206	RC	2	0	02VD 02VO 09VC 02MD 02MO 02MC 02RD 02RO	1	0	0.99657201767	149.0	220.0	149	217	1
2.7	2015_Jun_01_1116	s	s	18	1	SIC	207	ABS	2	0	02VD 02VO 10VC 02MD 02MO 02MC 02RD 02RO	1	0	0.670274019241	None	None	24	332	0
2.7	2015_Jun_01_1116	s	s	18	1	SIC	208	ABS	1	0	02VD 02VO 02VC 02MD 02MO 10MC 02RD 02RO	1	0	0.611299037933	None	None	87	288	0
2.7	2015_Jun_01_1116	s	s	18	1	SIC	209	RC	0	2	02VD 02VO 02VC 02MD 02MO 02MC 09RD 02RO	1	0	0.576213121414	-17.0	332.0	-14	322	1
2.7	2015_Jun_01_1116	s	s	18	1	SIC	210	ABS	1	1	02VD 02VO 02VC 02MD 10MO 02MC 02RD 02RO	1	0	2.55102396011	None	None	-5	-68	0
2.7	2015_Jun_01_1116	s	s	18	1	SIC	211	RC	1	2	02VD 02VO 02VC 09MD 02MO 02MC 02RD 02RO	1	0	0.693836927414	-34.0	129.0	-36	129	1
2.7	2015_Jun_01_1116	s	s	18	1	SIC	212	ABS	0	1	02VD 02VO 02VC 02MD 02MO 02MC 02RD 10RO	1	0	0.923644065857	None	None	-23	358	0
2.7	2015_Jun_01_1116	s	s	18	1	SIC	213	RC	1	0	02VD 02VO 02VC 02MD 02MO 09MC 02RD 02RO	1	0	0.705445051193	279.0	-299.0	27	291	0
2.7	2015_Jun_01_1116	s	s	18	1	SIC	214	RC	2	1	02VD 09VO 02VC 02MD 02MO 02MC 02RD 02RO	1	0	1.24699902534	-36.0	-385.0	-44	-381	1
2.7	2015_Jun_01_1116	s	s	18	1	SIC	215	RC	2	2	09VD 02VO 02VC 02MD 02MO 02MC 02RD 02RO	1	0	0.561623096466	-201.0	220.0	-195	229	1
2.7	2015_Jun_01_1116	s	s	18	1	SIC	216	ABS	2	0	02VD 02VO 10VC 02MD 02MO 02MC 02RD 02RO	1	0	0.794231891632	None	None	-33	-206	0
2.7	2015_Jun_01_1116	s	s	18	1	SIC	217	ABS	2	1	02VD 10VO 02VC 02MD 02MO 02MC 02RD 02RO	1	0	1.20038700104	None	None	-86	-55	0
2.7	2015_Jun_01_1116	s	s	18	1	SIC	218	ABS	2	2	10VD 02VO 02VC 02MD 02MO 02MC 02RD 02RO	1	0	2.9042801857	None	None	-522	335	0
2.7	2015_Jun_01_1116	s	s	18	1	SIC	219	RC	1	1	02VD 02VO 02VC 02MD 09MO 02MC 02RD 02RO	1	0	1.68265390396	-329.0	-190.0	-322	-194	1
2.7	2015_Jun_01_1116	s	s	18	1	SIC	220	ABS	0	2	02VD 02VO 02VC 02MD 02MO 02MC 10RD 02RO	1	0	2.55359506607	None	None	58	195	0
2.7	2015_Jun_01_1116	s	s	18	1	SIC	221	ABS	1	0	02VD 02VO 02VC 02MD 02MO 10MC 02RD 02RO	1	0	1.22028613091	None	None	184	154	0
2.7	2015_Jun_01_1116	s	s	18	1	SIC	222	RC	2	0	02VD 02VO 09VC 02MD 02MO 02MC 02RD 02RO	1	0	1.81822800636	98.0	79.0	-42	405	0
2.7	2015_Jun_01_1116	s	s	18	1	SIC	223	RC	0	1	02VD 02VO 02VC 02MD 02MO 02MC 02RD 09RO	1	0	0.611372947693	532.0	-401.0	66	302	0
2.7	2015_Jun_01_1116	s	s	18	1	SIC	224	ABS	1	2	02VD 02VO 02VC 10MD 02MO 02MC 02RD 02RO	1	0	0.654882192612	None	None	-100	412	0
2.7	2015_Jun_01_1116	s	s	18	1	SIC	225	ABS	0	2	02VD 02VO 02VC 02MD 02MO 02MC 10RD 02RO	1	0	1.47676205635	None	None	-171	116	0
2.7	2015_Jun_01_1116	s	s	18	1	SIC	226	ABS	1	2	02VD 02VO 02VC 10MD 02MO 02MC 02RD 02RO	1	0	0.902545928955	None	None	-2	-81	0
2.7	2015_Jun_01_1116	s	s	18	1	SIC	227	ABS	2	2	10VD 02VO 02VC 02MD 02MO 02MC 02RD 02RO	1	0	0.929192066193	None	None	-190	-371	0
2.7	2015_Jun_01_1116	s	s	18	1	SIC	228	ABS	2	1	02VD 10VO 02VC 02MD 02MO 02MC 02RD 02RO	1	0	1.15952992439	None	None	-506	-168	0
2.7	2015_Jun_01_1116	s	s	18	1	SIC	229	ABS	1	0	02VD 02VO 02VC 02MD 02MO 10MC 02RD 02RO	1	0	0.944591999054	None	None	66	-305	0
2.7	2015_Jun_01_1116	s	s	18	1	SIC	230	RC	2	1	02VD 09VO 02VC 02MD 02MO 02MC 02RD 02RO	1	0	1.06674098969	-162.0	25.0	-156	23	1
2.7	2015_Jun_01_1116	s	s	18	1	SIC	231	RC	0	1	02VD 02VO 02VC 02MD 02MO 02MC 02RD 09RO	1	0	1.78894996643	78.0	-22.0	-302	412	0
2.7	2015_Jun_01_1116	s	s	18	1	SIC	232	ABS	1	1	02VD 02VO 02VC 02MD 10MO 02MC 02RD 02RO	1	0	2.09202694893	None	None	429	388	0
2.7	2015_Jun_01_1116	s	s	18	1	SIC	233	RC	1	2	02VD 02VO 02VC 09MD 02MO 02MC 02RD 02RO	1	0	0.76429104805	-200.0	183.0	394	375	0
2.7	2015_Jun_01_1116	s	s	18	1	SIC	234	RC	0	2	02VD 02VO 02VC 02MD 02MO 02MC 09RD 02RO	1	0	0.691082954407	53.0	-17.0	155	325	0
2.7	2015_Jun_01_1116	s	s	18	1	SIC	235	ABS	0	1	02VD 02VO 02VC 02MD 02MO 02MC 02RD 10RO	1	0	1.54191207886	None	None	-521	-144	0
2.7	2015_Jun_01_1116	s	s	18	1	SIC	236	RC	2	2	09VD 02VO 02VC 02MD 02MO 02MC 02RD 02RO	1	0	0.540714979172	50.0	-126.0	-129	58	0
2.7	2015_Jun_01_1116	s	s	18	1	SIC	237	RC	2	0	02VD 02VO 09VC 02MD 02MO 02MC 02RD 02RO	1	0	1.10296607018	415.0	119.0	416	116	1
2.7	2015_Jun_01_1116	s	s	18	1	SIC	238	RC	1	1	02VD 02VO 02VC 02MD 09MO 02MC 02RD 02RO	1	0	0.82334280014	-462.0	236.0	-460	237	1
2.7	2015_Jun_01_1116	s	s	18	1	SIC	239	RC	1	0	02VD 02VO 02VC 02MD 02MO 09MC 02RD 02RO	1	0	0.573343992233	460.0	73.0	-296	108	0
2.7	2015_Jun_01_1116	s	s	18	1	SIC	240	ABS	2	0	02VD 02VO 10VC 02MD 02MO 02MC 02RD 02RO	1	0	2.93930387497	None	None	28	354	0
2.7	2015_Jun_01_1116	s	s	18	1	SIC	241	RC	1	1	02VD 02VO 02VC 02MD 09MO 02MC 02RD 02RO	1	0	1.44336700439	-333.0	101.0	-321	107	1
2.7	2015_Jun_01_1116	s	s	18	1	SIC	242	ABS	0	1	02VD 02VO 02VC 02MD 02MO 02MC 02RD 10RO	1	0	4.25533890724	None	None	113	297	0
2.7	2015_Jun_01_1116	s	s	18	1	SIC	243	ABS	1	0	02VD 02VO 02VC 02MD 02MO 10MC 02RD 02RO	1	0	1.02345299721	None	None	-94	222	0
2.7	2015_Jun_01_1116	s	s	18	1	SIC	244	RC	1	0	02VD 02VO 02VC 02MD 02MO 09MC 02RD 02RO	1	0	1.38297820091	378.0	-375.0	-404	60	0
2.7	2015_Jun_01_1116	s	s	18	1	SIC	245	ABS	0	2	02VD 02VO 02VC 02MD 02MO 02MC 10RD 02RO	1	0	0.811535835266	None	None	-320	212	0
2.7	2015_Jun_01_1116	s	s	18	1	SIC	246	RC	2	2	09VD 02VO 02VC 02MD 02MO 02MC 02RD 02RO	1	0	0.717406988144	-333.0	341.0	-335	346	1
2.7	2015_Jun_01_1116	s	s	18	1	SIC	247	ABS	1	1	02VD 02VO 02VC 02MD 10MO 02MC 02RD 02RO	1	0	3.82478404045	None	None	210	197	0
2.7	2015_Jun_01_1116	s	s	18	1	SIC	248	RC	0	1	02VD 02VO 02VC 02MD 02MO 02MC 02RD 09RO	1	0	1.56527614594	-408.0	-246.0	-267	-10	0
2.7	2015_Jun_01_1116	s	s	18	1	SIC	249	ABS	1	2	02VD 02VO 02VC 10MD 02MO 02MC 02RD 02RO	1	0	1.27685594559	None	None	-360	-370	0
2.7	2015_Jun_01_1116	s	s	18	1	SIC	250	RC	2	0	02VD 02VO 09VC 02MD 02MO 02MC 02RD 02RO	1	0	1.2470729351	203.0	-60.0	-314	-23	0
2.7	2015_Jun_01_1116	s	s	18	1	SIC	251	RC	1	2	02VD 02VO 02VC 09MD 02MO 02MC 02RD 02RO	1	0	0.952795982361	-47.0	-227.0	121	155	0
2.7	2015_Jun_01_1116	s	s	18	1	SIC	252	ABS	2	1	02VD 10VO 02VC 02MD 02MO 02MC 02RD 02RO	1	0	0.823809862137	None	None	142	-123	0
2.7	2015_Jun_01_1116	s	s	18	1	SIC	253	ABS	2	2	10VD 02VO 02VC 02MD 02MO 02MC 02RD 02RO	1	0	1.22355794907	None	None	359	-200	0
2.7	2015_Jun_01_1116	s	s	18	1	SIC	254	RC	0	2	02VD 02VO 02VC 02MD 02MO 02MC 09RD 02RO	1	0	2.46527004242	262.0	361.0	259	349	1
2.7	2015_Jun_01_1116	s	s	18	1	SIC	255	RC	2	1	02VD 09VO 02VC 02MD 02MO 02MC 02RD 02RO	1	0	1.05417490005	383.0	-68.0	2	255	0
2.7	2015_Jun_01_1116	s	s	18	1	SIC	256	ABS	2	0	02VD 02VO 10VC 02MD 02MO 02MC 02RD 02RO	1	0	1.71372699738	None	None	-246	-278	0
2.7	2015_Jun_01_1116	s	s	18	1	SIC	257	RC	1	1	02VD 02VO 02VC 02MD 09MO 02MC 02RD 02RO	1	0	1.74984908104	-513.0	192.0	-322	127	0
2.7	2015_Jun_01_1116	s	s	18	1	SIC	258	ABS	1	0	02VD 02VO 02VC 02MD 02MO 10MC 02RD 02RO	1	0	0.808841943741	None	None	-165	127	0
2.7	2015_Jun_01_1116	s	s	18	1	SIC	259	RC	1	0	02VD 02VO 02VC 02MD 02MO 09MC 02RD 02RO	1	0	0.729100942612	-304.0	-104.0	-76	81	0
2.7	2015_Jun_01_1116	s	s	18	1	SIC	260	ABS	1	1	02VD 02VO 02VC 02MD 10MO 02MC 02RD 02RO	1	0	1.94157910347	None	None	82	264	0
2.7	2015_Jun_01_1116	s	s	18	1	SIC	261	RC	0	2	02VD 02VO 02VC 02MD 02MO 02MC 09RD 02RO	1	0	1.05382394791	62.0	172.0	57	168	1
2.7	2015_Jun_01_1116	s	s	18	1	SIC	262	RC	2	0	02VD 02VO 09VC 02MD 02MO 02MC 02RD 02RO	1	0	2.2475438118	-359.0	71.0	145	-229	0
2.7	2015_Jun_01_1116	s	s	18	1	SIC	263	RC	0	1	02VD 02VO 02VC 02MD 02MO 02MC 02RD 09RO	1	0	0.888925075531	491.0	375.0	279	-49	0
2.7	2015_Jun_01_1116	s	s	18	1	SIC	264	ABS	1	2	02VD 02VO 02VC 10MD 02MO 02MC 02RD 02RO	1	0	1.21819019318	None	None	-153	9	0
2.7	2015_Jun_01_1116	s	s	18	1	SIC	265	ABS	2	2	10VD 02VO 02VC 02MD 02MO 02MC 02RD 02RO	1	0	1.27049899101	None	None	-143	-219	0
2.7	2015_Jun_01_1116	s	s	18	1	SIC	266	ABS	2	1	02VD 10VO 02VC 02MD 02MO 02MC 02RD 02RO	1	0	2.71845912933	None	None	-179	359	0
2.7	2015_Jun_01_1116	s	s	18	1	SIC	267	RC	2	1	02VD 09VO 02VC 02MD 02MO 02MC 02RD 02RO	1	0	1.25603604317	463.0	-169.0	259	94	0
2.7	2015_Jun_01_1116	s	s	18	1	SIC	268	RC	2	2	09VD 02VO 02VC 02MD 02MO 02MC 02RD 02RO	1	0	0.642037153244	-457.0	-223.0	129	42	0
2.7	2015_Jun_01_1116	s	s	18	1	SIC	269	ABS	0	2	02VD 02VO 02VC 02MD 02MO 02MC 10RD 02RO	1	0	1.56495189667	None	None	-55	-200	0
2.7	2015_Jun_01_1116	s	s	18	1	SIC	270	ABS	2	0	02VD 02VO 10VC 02MD 02MO 02MC 02RD 02RO	1	0	1.05600690842	None	None	-5	100	0
2.7	2015_Jun_01_1116	s	s	18	1	SIC	271	ABS	0	1	02VD 02VO 02VC 02MD 02MO 02MC 02RD 10RO	1	0	0.893965959549	None	None	163	-74	0
2.7	2015_Jun_01_1116	s	s	18	1	SIC	272	RC	1	2	02VD 02VO 02VC 09MD 02MO 02MC 02RD 02RO	1	0	0.947766065598	-332.0	-263.0	-33	-223	0
2.7	2015_Jun_01_1116	s	s	18	1	SIC	273	ABS	2	1	02VD 10VO 02VC 02MD 02MO 02MC 02RD 02RO	1	0	0.594363927841	None	None	152	-159	0
2.7	2015_Jun_01_1116	s	s	18	1	SIC	274	RC	1	0	02VD 02VO 02VC 02MD 02MO 09MC 02RD 02RO	1	0	0.559705018997	514.0	-206.0	262	-213	0
2.7	2015_Jun_01_1116	s	s	18	1	SIC	275	RC	1	1	02VD 02VO 02VC 02MD 09MO 02MC 02RD 02RO	1	0	0.570816040039	214.0	-256.0	211	-255	1
2.7	2015_Jun_01_1116	s	s	18	1	SIC	276	RC	0	1	02VD 02VO 02VC 02MD 02MO 02MC 02RD 09RO	1	0	3.96213793755	476.0	27.0	474	17	1
2.7	2015_Jun_01_1116	s	s	18	1	SIC	277	RC	1	2	02VD 02VO 02VC 09MD 02MO 02MC 02RD 02RO	1	0	0.647099018097	170.0	66.0	166	66	1
2.7	2015_Jun_01_1116	s	s	18	1	SIC	278	ABS	1	0	02VD 02VO 02VC 02MD 02MO 10MC 02RD 02RO	1	0	0.703032970428	None	None	152	177	0
2.7	2015_Jun_01_1116	s	s	18	1	SIC	279	RC	2	1	02VD 09VO 02VC 02MD 02MO 02MC 02RD 02RO	1	0	0.655903100967	196.0	294.0	205	303	1
2.7	2015_Jun_01_1116	s	s	18	1	SIC	280	ABS	2	0	02VD 02VO 10VC 02MD 02MO 02MC 02RD 02RO	1	0	1.32936501503	None	None	-82	-112	0
2.7	2015_Jun_01_1116	s	s	18	1	SIC	281	ABS	0	1	02VD 02VO 02VC 02MD 02MO 02MC 02RD 10RO	1	0	0.529036045074	None	None	-198	15	0
2.7	2015_Jun_01_1116	s	s	18	1	SIC	282	RC	2	0	02VD 02VO 09VC 02MD 02MO 02MC 02RD 02RO	1	0	0.455672025681	-71.0	190.0	-75	182	1
2.7	2015_Jun_01_1116	s	s	18	1	SIC	283	RC	0	2	02VD 02VO 02VC 02MD 02MO 02MC 09RD 02RO	1	0	0.7997610569	-190.0	30.0	-188	34	1
2.7	2015_Jun_01_1116	s	s	18	1	SIC	284	ABS	1	1	02VD 02VO 02VC 02MD 10MO 02MC 02RD 02RO	1	0	1.25537085533	None	None	61	349	0
2.7	2015_Jun_01_1116	s	s	18	1	SIC	285	RC	2	2	09VD 02VO 02VC 02MD 02MO 02MC 02RD 02RO	1	0	0.517333030701	397.0	-381.0	139	404	0
2.7	2015_Jun_01_1116	s	s	18	1	SIC	286	ABS	1	2	02VD 02VO 02VC 10MD 02MO 02MC 02RD 02RO	1	0	0.952775001526	None	None	-216	111	0
2.7	2015_Jun_01_1116	s	s	18	1	SIC	287	ABS	0	2	02VD 02VO 02VC 02MD 02MO 02MC 10RD 02RO	1	0	1.4354569912	None	None	-485	381	0
2.7	2015_Jun_01_1116	s	s	18	1	SIC	288	ABS	2	2	10VD 02VO 02VC 02MD 02MO 02MC 02RD 02RO	1	0	2.26608991623	None	None	85	-182	0
2.7	2015_Jun_01_1116	s	s	18	1	SIC	289	ABS	2	1	02VD 10VO 02VC 02MD 02MO 02MC 02RD 02RO	1	0	1.26667404175	None	None	247	-101	0
2.7	2015_Jun_01_1116	s	s	18	1	SIC	290	ABS	1	1	02VD 02VO 02VC 02MD 10MO 02MC 02RD 02RO	1	0	1.14124298096	None	None	475	364	0
2.7	2015_Jun_01_1116	s	s	18	1	SIC	291	ABS	0	1	02VD 02VO 02VC 02MD 02MO 02MC 02RD 10RO	1	0	2.65594410896	None	None	537	-48	0
2.7	2015_Jun_01_1116	s	s	18	1	SIC	292	RC	1	2	02VD 02VO 02VC 09MD 02MO 02MC 02RD 02RO	1	0	2.67138504982	-505.0	368.0	-514	366	1
2.7	2015_Jun_01_1116	s	s	18	1	SIC	293	ABS	2	2	10VD 02VO 02VC 02MD 02MO 02MC 02RD 02RO	1	0	1.03517103195	None	None	-265	-64	0
2.7	2015_Jun_01_1116	s	s	18	1	SIC	294	ABS	2	0	02VD 02VO 10VC 02MD 02MO 02MC 02RD 02RO	1	0	0.520963907242	None	None	63	162	0
2.7	2015_Jun_01_1116	s	s	18	1	SIC	295	RC	1	1	02VD 02VO 02VC 02MD 09MO 02MC 02RD 02RO	1	0	0.682014942169	-124.0	308.0	61	311	0
2.7	2015_Jun_01_1116	s	s	18	1	SIC	296	RC	2	2	09VD 02VO 02VC 02MD 02MO 02MC 02RD 02RO	1	0	1.77167010307	-369.0	-405.0	-93	-277	0
2.7	2015_Jun_01_1116	s	s	18	1	SIC	297	RC	1	0	02VD 02VO 02VC 02MD 02MO 09MC 02RD 02RO	1	0	0.817764997482	499.0	98.0	43	-85	0
2.7	2015_Jun_01_1116	s	s	18	1	SIC	298	RC	0	2	02VD 02VO 02VC 02MD 02MO 02MC 09RD 02RO	1	0	0.855211019516	-16.0	199.0	-23	194	1
2.7	2015_Jun_01_1116	s	s	18	1	SIC	299	RC	2	1	02VD 09VO 02VC 02MD 02MO 02MC 02RD 02RO	1	0	1.03217101097	-513.0	347.0	-518	352	1
2.7	2015_Jun_01_1116	s	s	18	1	SIC	300	ABS	0	2	02VD 02VO 02VC 02MD 02MO 02MC 10RD 02RO	1	0	0.714667081833	None	None	-377	62	0
2.7	2015_Jun_01_1116	s	s	18	1	SIC	301	ABS	1	0	02VD 02VO 02VC 02MD 02MO 10MC 02RD 02RO	1	0	0.596940994263	None	None	145	403	0
2.7	2015_Jun_01_1116	s	s	18	1	SIC	302	RC	2	0	02VD 02VO 09VC 02MD 02MO 02MC 02RD 02RO	1	0	0.761871814728	-318.0	202.0	-316	189	1
2.7	2015_Jun_01_1116	s	s	18	1	SIC	303	RC	0	1	02VD 02VO 02VC 02MD 02MO 02MC 02RD 09RO	1	0	0.903052091599	-21.0	325.0	-239	265	0
2.7	2015_Jun_01_1116	s	s	18	1	SIC	304	ABS	1	2	02VD 02VO 02VC 10MD 02MO 02MC 02RD 02RO	1	0	2.05914592743	None	None	152	-116	0
2.7	2015_Jun_01_1116	s	s	18	1	SIC	305	ABS	1	0	02VD 02VO 02VC 02MD 02MO 10MC 02RD 02RO	1	0	0.526231050491	None	None	113	320	0
2.7	2015_Jun_01_1116	s	s	18	1	SIC	306	ABS	0	2	02VD 02VO 02VC 02MD 02MO 02MC 10RD 02RO	1	0	0.84744310379	None	None	-221	271	0
2.7	2015_Jun_01_1116	s	s	18	1	SIC	307	ABS	1	1	02VD 02VO 02VC 02MD 10MO 02MC 02RD 02RO	1	0	0.658438205719	None	None	-185	146	0
2.7	2015_Jun_01_1116	s	s	18	1	SIC	308	RC	2	0	02VD 02VO 09VC 02MD 02MO 02MC 02RD 02RO	1	0	0.411535978317	-65.0	165.0	-62	163	1
2.7	2015_Jun_01_1116	s	s	18	1	SIC	309	RC	1	2	02VD 02VO 02VC 09MD 02MO 02MC 02RD 02RO	1	0	0.512387037277	-341.0	-138.0	15	286	0
2.7	2015_Jun_01_1116	s	s	18	1	SIC	310	ABS	2	2	10VD 02VO 02VC 02MD 02MO 02MC 02RD 02RO	1	0	1.18286514282	None	None	-397	-213	0
2.7	2015_Jun_01_1116	s	s	18	1	SIC	311	RC	1	1	02VD 02VO 02VC 02MD 09MO 02MC 02RD 02RO	1	0	0.52553486824	118.0	394.0	35	-9	0
2.7	2015_Jun_01_1116	s	s	18	1	SIC	312	RC	0	1	02VD 02VO 02VC 02MD 02MO 02MC 02RD 09RO	1	0	1.60582089424	-354.0	281.0	-357	279	1
2.7	2015_Jun_01_1116	s	s	18	1	SIC	313	ABS	0	1	02VD 02VO 02VC 02MD 02MO 02MC 02RD 10RO	1	0	2.96562004089	None	None	37	-384	0
2.7	2015_Jun_01_1116	s	s	18	1	SIC	314	ABS	2	1	02VD 10VO 02VC 02MD 02MO 02MC 02RD 02RO	1	0	1.48017501831	None	None	-497	13	0
2.7	2015_Jun_01_1116	s	s	18	1	SIC	315	ABS	2	0	02VD 02VO 10VC 02MD 02MO 02MC 02RD 02RO	1	0	1.05875587463	None	None	-396	99	0
2.7	2015_Jun_01_1116	s	s	18	1	SIC	316	RC	2	1	02VD 09VO 02VC 02MD 02MO 02MC 02RD 02RO	1	0	0.879091978073	-461.0	151.0	-462	147	1
2.7	2015_Jun_01_1116	s	s	18	1	SIC	317	RC	1	0	02VD 02VO 02VC 02MD 02MO 09MC 02RD 02RO	1	0	0.559352874756	343.0	-262.0	-220	298	0
2.7	2015_Jun_01_1116	s	s	18	1	SIC	318	RC	0	2	02VD 02VO 02VC 02MD 02MO 02MC 09RD 02RO	1	0	0.571208000183	18.0	125.0	-395	286	0
2.7	2015_Jun_01_1116	s	s	18	1	SIC	319	RC	2	2	09VD 02VO 02VC 02MD 02MO 02MC 02RD 02RO	1	0	0.705586910248	-395.0	387.0	-14	-187	0
2.7	2015_Jun_01_1116	s	s	18	1	SIC	320	ABS	1	2	02VD 02VO 02VC 10MD 02MO 02MC 02RD 02RO	1	0	0.670712947845	None	None	8	232	0
2.7	2015_Jun_01_1116	s	s	18	1	SIC	321	RC	1	1	02VD 02VO 02VC 02MD 09MO 02MC 02RD 02RO	1	0	0.505318164825	-315.0	343.0	-318	343	1
2.7	2015_Jun_01_1116	s	s	18	1	SIC	322	RC	2	1	02VD 09VO 02VC 02MD 02MO 02MC 02RD 02RO	1	0	0.387804031372	482.0	-7.0	-90	370	0
2.7	2015_Jun_01_1116	s	s	18	1	SIC	323	ABS	2	2	10VD 02VO 02VC 02MD 02MO 02MC 02RD 02RO	1	0	0.818405866623	None	None	-278	250	0
2.7	2015_Jun_01_1116	s	s	18	1	SIC	324	RC	2	0	02VD 02VO 09VC 02MD 02MO 02MC 02RD 02RO	1	0	0.762411117554	92.0	285.0	-100	-48	0
2.7	2015_Jun_01_1116	s	s	18	1	SIC	325	ABS	0	2	02VD 02VO 02VC 02MD 02MO 02MC 10RD 02RO	1	0	1.02069687843	None	None	204	-207	0
2.7	2015_Jun_01_1116	s	s	18	1	SIC	326	ABS	0	1	02VD 02VO 02VC 02MD 02MO 02MC 02RD 10RO	1	0	2.76206898689	None	None	433	156	0
2.7	2015_Jun_01_1116	s	s	18	1	SIC	327	ABS	1	2	02VD 02VO 02VC 10MD 02MO 02MC 02RD 02RO	1	0	1.08876490593	None	None	261	-174	0
2.7	2015_Jun_01_1116	s	s	18	1	SIC	328	ABS	2	0	02VD 02VO 10VC 02MD 02MO 02MC 02RD 02RO	1	0	2.68304610252	None	None	-196	-391	0
2.7	2015_Jun_01_1116	s	s	18	1	SIC	329	RC	1	2	02VD 02VO 02VC 09MD 02MO 02MC 02RD 02RO	1	0	0.741250991821	387.0	-407.0	-301	-212	0
2.7	2015_Jun_01_1116	s	s	18	1	SIC	330	RC	0	2	02VD 02VO 02VC 02MD 02MO 02MC 09RD 02RO	1	0	1.26691198349	-392.0	-375.0	-389	-376	1
2.7	2015_Jun_01_1116	s	s	18	1	SIC	331	ABS	1	1	02VD 02VO 02VC 02MD 10MO 02MC 02RD 02RO	1	0	0.913784980774	None	None	-248	-128	0
2.7	2015_Jun_01_1116	s	s	18	1	SIC	332	ABS	1	0	02VD 02VO 02VC 02MD 02MO 10MC 02RD 02RO	1	0	0.976273059845	None	None	-338	-178	0
2.7	2015_Jun_01_1116	s	s	18	1	SIC	333	RC	2	2	09VD 02VO 02VC 02MD 02MO 02MC 02RD 02RO	1	0	0.911754131317	-410.0	-385.0	-196	-411	0
2.7	2015_Jun_01_1116	s	s	18	1	SIC	334	ABS	2	1	02VD 10VO 02VC 02MD 02MO 02MC 02RD 02RO	1	0	0.952705860138	None	None	-328	112	0
2.7	2015_Jun_01_1116	s	s	18	1	SIC	335	RC	0	1	02VD 02VO 02VC 02MD 02MO 02MC 02RD 09RO	1	0	1.9061319828	232.0	-173.0	-321	343	0
2.7	2015_Jun_01_1116	s	s	18	1	SIC	336	RC	1	0	02VD 02VO 02VC 02MD 02MO 09MC 02RD 02RO	1	0	0.709059000015	-426.0	-193.0	-4	298	0
2.7	2015_Jun_01_1116	s	s	18	1	SIC	337	RC	0	2	02VD 02VO 02VC 02MD 02MO 02MC 09RD 02RO	1	0	0.713971138	145.0	129.0	147	114	1
2.7	2015_Jun_01_1116	s	s	18	1	SIC	338	RC	2	0	02VD 02VO 09VC 02MD 02MO 02MC 02RD 02RO	1	0	1.1446750164	-38.0	-223.0	-36	-224	1
2.7	2015_Jun_01_1116	s	s	18	1	SIC	339	RC	2	2	09VD 02VO 02VC 02MD 02MO 02MC 02RD 02RO	1	0	1.35302305222	216.0	252.0	-536	-346	0
2.7	2015_Jun_01_1116	s	s	18	1	SIC	340	ABS	0	1	02VD 02VO 02VC 02MD 02MO 02MC 02RD 10RO	1	0	4.16618490219	None	None	-493	-281	0
2.7	2015_Jun_01_1116	s	s	18	1	SIC	341	ABS	1	1	02VD 02VO 02VC 02MD 10MO 02MC 02RD 02RO	1	0	0.619254827499	None	None	37	-81	0
2.7	2015_Jun_01_1116	s	s	18	1	SIC	342	ABS	2	1	02VD 10VO 02VC 02MD 02MO 02MC 02RD 02RO	1	0	0.752642154694	None	None	-119	-110	0
2.7	2015_Jun_01_1116	s	s	18	1	SIC	343	RC	1	0	02VD 02VO 02VC 02MD 02MO 09MC 02RD 02RO	1	0	0.741483926773	182.0	186.0	12	-60	0
2.7	2015_Jun_01_1116	s	s	18	1	SIC	344	RC	1	2	02VD 02VO 02VC 09MD 02MO 02MC 02RD 02RO	1	0	0.64150595665	511.0	-15.0	-25	-145	0
2.7	2015_Jun_01_1116	s	s	18	1	SIC	345	ABS	2	0	02VD 02VO 10VC 02MD 02MO 02MC 02RD 02RO	1	0	1.158670187	None	None	-235	374	0
2.7	2015_Jun_01_1116	s	s	18	1	SIC	346	RC	1	1	02VD 02VO 02VC 02MD 09MO 02MC 02RD 02RO	1	0	1.58490300179	302.0	-159.0	-282	-35	0
2.7	2015_Jun_01_1116	s	s	18	1	SIC	347	ABS	1	2	02VD 02VO 02VC 10MD 02MO 02MC 02RD 02RO	1	0	1.56035614014	None	None	-515	-277	0
2.7	2015_Jun_01_1116	s	s	18	1	SIC	348	RC	0	1	02VD 02VO 02VC 02MD 02MO 02MC 02RD 09RO	1	0	0.835079908371	345.0	356.0	-372	33	0
2.7	2015_Jun_01_1116	s	s	18	1	SIC	349	ABS	1	0	02VD 02VO 02VC 02MD 02MO 10MC 02RD 02RO	1	0	0.959928035736	None	None	-304	-152	0
2.7	2015_Jun_01_1116	s	s	18	1	SIC	350	RC	2	1	02VD 09VO 02VC 02MD 02MO 02MC 02RD 02RO	1	0	0.658504009247	-398.0	353.0	-193	137	0
2.7	2015_Jun_01_1116	s	s	18	1	SIC	351	ABS	2	2	10VD 02VO 02VC 02MD 02MO 02MC 02RD 02RO	1	0	0.879739999771	None	None	-83	402	0
2.7	2015_Jun_01_1116	s	s	18	1	SIC	352	ABS	0	2	02VD 02VO 02VC 02MD 02MO 02MC 10RD 02RO	1	0	1.82793307304	None	None	-410	-360	0
2.7	2015_Jun_01_1116	s	s	18	1	SIC	353	RC	1	2	02VD 02VO 02VC 09MD 02MO 02MC 02RD 02RO	1	0	0.477955102921	-30.0	-401.0	-191	-70	0
2.7	2015_Jun_01_1116	s	s	18	1	SIC	354	RC	0	2	02VD 02VO 02VC 02MD 02MO 02MC 09RD 02RO	1	0	0.583237171173	-180.0	-33.0	-186	-36	1
2.7	2015_Jun_01_1116	s	s	18	1	SIC	355	RC	2	1	02VD 09VO 02VC 02MD 02MO 02MC 02RD 02RO	1	0	1.07054591179	-94.0	259.0	-89	254	1
2.7	2015_Jun_01_1116	s	s	18	1	SIC	356	RC	1	1	02VD 02VO 02VC 02MD 09MO 02MC 02RD 02RO	1	0	3.07155609131	460.0	-104.0	457	-112	1
2.7	2015_Jun_01_1116	s	s	18	1	SIC	357	ABS	2	2	10VD 02VO 02VC 02MD 02MO 02MC 02RD 02RO	1	0	1.91792416573	None	None	279	7	0
2.7	2015_Jun_01_1116	s	s	18	1	SIC	358	RC	2	2	09VD 02VO 02VC 02MD 02MO 02MC 02RD 02RO	1	0	0.53612112999	-7.0	74.0	475	-155	0
2.7	2015_Jun_01_1116	s	s	18	1	SIC	359	RC	0	1	02VD 02VO 02VC 02MD 02MO 02MC 02RD 09RO	1	0	1.35291814804	-9.0	-310.0	-4	-311	1
2.7	2015_Jun_01_1116	s	s	18	1	SIC	360	ABS	1	2	02VD 02VO 02VC 10MD 02MO 02MC 02RD 02RO	1	0	1.40003800392	None	None	-133	-271	0
2.7	2015_Jun_01_1116	s	s	18	1	SIC	361	ABS	1	0	02VD 02VO 02VC 02MD 02MO 10MC 02RD 02RO	1	0	0.470131874084	None	None	-85	79	0
2.7	2015_Jun_01_1116	s	s	18	1	SIC	362	RC	1	0	02VD 02VO 02VC 02MD 02MO 09MC 02RD 02RO	1	0	0.406466960907	382.0	317.0	-77	247	0
2.7	2015_Jun_01_1116	s	s	18	1	SIC	363	ABS	0	1	02VD 02VO 02VC 02MD 02MO 02MC 02RD 10RO	1	0	2.00942397118	None	None	-399	89	0
2.7	2015_Jun_01_1116	s	s	18	1	SIC	364	ABS	2	1	02VD 10VO 02VC 02MD 02MO 02MC 02RD 02RO	1	0	1.35968399048	None	None	-290	313	0
2.7	2015_Jun_01_1116	s	s	18	1	SIC	365	ABS	1	1	02VD 02VO 02VC 02MD 10MO 02MC 02RD 02RO	1	0	1.51785206795	None	None	-243	-204	0
2.7	2015_Jun_01_1116	s	s	18	1	SIC	366	RC	2	0	02VD 02VO 09VC 02MD 02MO 02MC 02RD 02RO	1	0	1.11296892166	-194.0	-253.0	-7	-247	0
2.7	2015_Jun_01_1116	s	s	18	1	SIC	367	ABS	2	0	02VD 02VO 10VC 02MD 02MO 02MC 02RD 02RO	1	0	7.37681984901	None	None	-364	35	0
2.7	2015_Jun_01_1116	s	s	18	1	SIC	368	ABS	0	2	02VD 02VO 02VC 02MD 02MO 02MC 10RD 02RO	1	0	2.50248289108	None	None	375	-86	0
2.7	2015_Jun_01_1116	s	s	18	1	SIC	369	ABS	2	0	02VD 02VO 10VC 02MD 02MO 02MC 02RD 02RO	1	0	0.726344823837	None	None	-38	-88	0
2.7	2015_Jun_01_1116	s	s	18	1	SIC	370	RC	0	2	02VD 02VO 02VC 02MD 02MO 02MC 09RD 02RO	1	0	1.61842799187	-293.0	127.0	-140	119	0
2.7	2015_Jun_01_1116	s	s	18	1	SIC	371	RC	2	2	09VD 02VO 02VC 02MD 02MO 02MC 02RD 02RO	1	0	0.917325019836	238.0	291.0	102	-139	0
2.7	2015_Jun_01_1116	s	s	18	1	SIC	372	ABS	0	1	02VD 02VO 02VC 02MD 02MO 02MC 02RD 10RO	1	0	1.29431605339	None	None	543	266	0
2.7	2015_Jun_01_1116	s	s	18	1	SIC	373	ABS	1	0	02VD 02VO 02VC 02MD 02MO 10MC 02RD 02RO	1	0	0.537660121918	None	None	221	-40	0
2.7	2015_Jun_01_1116	s	s	18	1	SIC	374	RC	2	1	02VD 09VO 02VC 02MD 02MO 02MC 02RD 02RO	1	0	0.559267044067	271.0	87.0	274	75	1
2.7	2015_Jun_01_1116	s	s	18	1	SIC	375	RC	1	0	02VD 02VO 02VC 02MD 02MO 09MC 02RD 02RO	1	0	1.12928509712	94.0	125.0	232	291	0
2.7	2015_Jun_01_1116	s	s	18	1	SIC	376	RC	0	1	02VD 02VO 02VC 02MD 02MO 02MC 02RD 09RO	1	0	2.78094696999	-56.0	192.0	-54	182	1
2.7	2015_Jun_01_1116	s	s	18	1	SIC	377	ABS	0	2	02VD 02VO 02VC 02MD 02MO 02MC 10RD 02RO	1	0	1.7531440258	None	None	-259	159	0
2.7	2015_Jun_01_1116	s	s	18	1	SIC	378	RC	1	1	02VD 02VO 02VC 02MD 09MO 02MC 02RD 02RO	1	0	1.34987711906	-339.0	111.0	-329	118	1
2.7	2015_Jun_01_1116	s	s	18	1	SIC	379	ABS	2	1	02VD 10VO 02VC 02MD 02MO 02MC 02RD 02RO	1	0	2.25384402275	None	None	520	-240	0
2.7	2015_Jun_01_1116	s	s	18	1	SIC	380	ABS	2	2	10VD 02VO 02VC 02MD 02MO 02MC 02RD 02RO	1	0	0.89394903183	None	None	53	-260	0
2.7	2015_Jun_01_1116	s	s	18	1	SIC	381	ABS	1	1	02VD 02VO 02VC 02MD 10MO 02MC 02RD 02RO	1	0	1.37646698952	None	None	-330	-110	0
2.7	2015_Jun_01_1116	s	s	18	1	SIC	382	RC	1	2	02VD 02VO 02VC 09MD 02MO 02MC 02RD 02RO	1	0	0.499802112579	60.0	47.0	57	41	1
2.7	2015_Jun_01_1116	s	s	18	1	SIC	383	RC	2	0	02VD 02VO 09VC 02MD 02MO 02MC 02RD 02RO	1	0	0.78804397583	-52.0	364.0	2	229	0
2.7	2015_Jun_01_1116	s	s	18	1	SIC	384	ABS	1	2	02VD 02VO 02VC 10MD 02MO 02MC 02RD 02RO	1	0	1.24007797241	None	None	292	382	0
2.7	2015_Jun_01_1116	s	s	18	1	SIC	385	RC	0	1	02VD 02VO 02VC 02MD 02MO 02MC 02RD 09RO	1	0	0.96453499794	377.0	382.0	-173	209	0
2.7	2015_Jun_01_1116	s	s	18	1	SIC	386	ABS	1	2	02VD 02VO 02VC 10MD 02MO 02MC 02RD 02RO	1	0	1.70969605446	None	None	403	-415	0
2.7	2015_Jun_01_1116	s	s	18	1	SIC	387	RC	1	0	02VD 02VO 02VC 02MD 02MO 09MC 02RD 02RO	1	0	0.617405891418	301.0	284.0	-118	73	0
2.7	2015_Jun_01_1116	s	s	18	1	SIC	388	ABS	0	2	02VD 02VO 02VC 02MD 02MO 02MC 10RD 02RO	1	0	1.97285699844	None	None	-454	386	0
2.7	2015_Jun_01_1116	s	s	18	1	SIC	389	RC	2	0	02VD 02VO 09VC 02MD 02MO 02MC 02RD 02RO	1	0	0.582573890686	-63.0	-238.0	4	122	0
2.7	2015_Jun_01_1116	s	s	18	1	SIC	390	ABS	1	0	02VD 02VO 02VC 02MD 02MO 10MC 02RD 02RO	1	0	1.12940907478	None	None	-28	242	0
2.7	2015_Jun_01_1116	s	s	18	1	SIC	391	RC	2	1	02VD 09VO 02VC 02MD 02MO 02MC 02RD 02RO	1	0	0.678158044815	-156.0	-12.0	-164	-12	1
2.7	2015_Jun_01_1116	s	s	18	1	SIC	392	ABS	2	1	02VD 10VO 02VC 02MD 02MO 02MC 02RD 02RO	1	0	1.95798921585	None	None	-328	414	0
2.7	2015_Jun_01_1116	s	s	18	1	SIC	393	ABS	2	2	10VD 02VO 02VC 02MD 02MO 02MC 02RD 02RO	1	0	1.04672312737	None	None	248	346	0
2.7	2015_Jun_01_1116	s	s	18	1	SIC	394	RC	1	1	02VD 02VO 02VC 02MD 09MO 02MC 02RD 02RO	1	0	0.523130893707	-102.0	-247.0	-93	123	0
2.7	2015_Jun_01_1116	s	s	18	1	SIC	395	ABS	2	0	02VD 02VO 10VC 02MD 02MO 02MC 02RD 02RO	1	0	1.80929803848	None	None	203	-366	0
2.7	2015_Jun_01_1116	s	s	18	1	SIC	396	ABS	0	1	02VD 02VO 02VC 02MD 02MO 02MC 02RD 10RO	1	0	0.676542043686	None	None	37	-198	0
2.7	2015_Jun_01_1116	s	s	18	1	SIC	397	RC	1	2	02VD 02VO 02VC 09MD 02MO 02MC 02RD 02RO	1	0	0.713930130005	-510.0	-141.0	54	-123	0
2.7	2015_Jun_01_1116	s	s	18	1	SIC	398	RC	0	2	02VD 02VO 02VC 02MD 02MO 02MC 09RD 02RO	1	0	1.7034778595	398.0	-345.0	402	-341	1
2.7	2015_Jun_01_1116	s	s	18	1	SIC	399	RC	2	2	09VD 02VO 02VC 02MD 02MO 02MC 02RD 02RO	1	0	2.138671875	-10.0	-223.0	-339	257	0
2.7	2015_Jun_01_1116	s	s	18	1	SIC	400	ABS	1	1	02VD 02VO 02VC 02MD 10MO 02MC 02RD 02RO	1	0	1.53560185432	None	None	-478	-318	0
2.7	2015_Jun_01_1116	s	s	18	1	SIC	401	ABS	1	1	02VD 02VO 02VC 02MD 10MO 02MC 02RD 02RO	1	0	0.811523914337	None	None	-234	-100	0
2.7	2015_Jun_01_1116	s	s	18	1	SIC	402	RC	2	2	09VD 02VO 02VC 02MD 02MO 02MC 02RD 02RO	1	0	0.923643827438	20.0	320.0	254	-383	0
2.7	2015_Jun_01_1116	s	s	18	1	SIC	403	RC	2	1	02VD 09VO 02VC 02MD 02MO 02MC 02RD 02RO	1	0	1.34997081757	-426.0	-64.0	184	-23	0
2.7	2015_Jun_01_1116	s	s	18	1	SIC	404	ABS	2	0	02VD 02VO 10VC 02MD 02MO 02MC 02RD 02RO	1	0	1.73583102226	None	None	275	-299	0
2.7	2015_Jun_01_1116	s	s	18	1	SIC	405	ABS	2	1	02VD 10VO 02VC 02MD 02MO 02MC 02RD 02RO	1	0	1.47093987465	None	None	482	-150	0
2.7	2015_Jun_01_1116	s	s	18	1	SIC	406	RC	1	2	02VD 02VO 02VC 09MD 02MO 02MC 02RD 02RO	1	0	1.05548191071	-358.0	120.0	-358	111	1
2.7	2015_Jun_01_1116	s	s	18	1	SIC	407	ABS	0	1	02VD 02VO 02VC 02MD 02MO 02MC 02RD 10RO	1	0	1.22356915474	None	None	-236	-295	0
2.7	2015_Jun_01_1116	s	s	18	1	SIC	408	RC	0	2	02VD 02VO 02VC 02MD 02MO 02MC 09RD 02RO	1	0	1.11251592636	-109.0	279.0	-118	-407	0
2.7	2015_Jun_01_1116	s	s	18	1	SIC	409	ABS	0	2	02VD 02VO 02VC 02MD 02MO 02MC 10RD 02RO	1	0	1.24712300301	None	None	45	-30	0
2.7	2015_Jun_01_1116	s	s	18	1	SIC	410	RC	0	1	02VD 02VO 02VC 02MD 02MO 02MC 02RD 09RO	1	0	0.735324144363	-248.0	134.0	149	139	0
2.7	2015_Jun_01_1116	s	s	18	1	SIC	411	RC	1	1	02VD 02VO 02VC 02MD 09MO 02MC 02RD 02RO	1	0	1.15285301208	202.0	258.0	208	257	1
2.7	2015_Jun_01_1116	s	s	18	1	SIC	412	RC	1	0	02VD 02VO 02VC 02MD 02MO 09MC 02RD 02RO	1	0	1.75324201584	-281.0	-260.0	-287	-251	1
2.7	2015_Jun_01_1116	s	s	18	1	SIC	413	RC	2	0	02VD 02VO 09VC 02MD 02MO 02MC 02RD 02RO	1	0	1.47974491119	-469.0	280.0	212	-347	0
2.7	2015_Jun_01_1116	s	s	18	1	SIC	414	ABS	1	2	02VD 02VO 02VC 10MD 02MO 02MC 02RD 02RO	1	0	3.04802799225	None	None	183	225	0
2.7	2015_Jun_01_1116	s	s	18	1	SIC	415	ABS	2	2	10VD 02VO 02VC 02MD 02MO 02MC 02RD 02RO	1	0	1.72964692116	None	None	233	-52	0
2.7	2015_Jun_01_1116	s	s	18	1	SIC	416	ABS	1	0	02VD 02VO 02VC 02MD 02MO 10MC 02RD 02RO	1	0	1.52951288223	None	None	289	-124	0
2.7	2015_Jun_01_1116	s	s	18	1	SIC	417	RC	1	2	02VD 02VO 02VC 09MD 02MO 02MC 02RD 02RO	1	0	2.71896886826	-350.0	377.0	379	-194	0
2.7	2015_Jun_01_1116	s	s	18	1	SIC	418	RC	1	1	02VD 02VO 02VC 02MD 09MO 02MC 02RD 02RO	1	0	1.36471796036	126.0	-16.0	127	-13	1
2.7	2015_Jun_01_1116	s	s	18	1	SIC	419	ABS	0	1	02VD 02VO 02VC 02MD 02MO 02MC 02RD 10RO	1	0	1.06601595879	None	None	130	68	0
2.7	2015_Jun_01_1116	s	s	18	1	SIC	420	ABS	2	2	10VD 02VO 02VC 02MD 02MO 02MC 02RD 02RO	1	0	0.599687814713	None	None	157	300	0
2.7	2015_Jun_01_1116	s	s	18	1	SIC	421	RC	2	1	02VD 09VO 02VC 02MD 02MO 02MC 02RD 02RO	1	0	1.2206029892	-507.0	-37.0	-305	208	0
2.7	2015_Jun_01_1116	s	s	18	1	SIC	422	RC	2	2	09VD 02VO 02VC 02MD 02MO 02MC 02RD 02RO	1	0	3.07747101784	385.0	-370.0	385	-370	1
2.7	2015_Jun_01_1116	s	s	18	1	SIC	423	RC	0	1	02VD 02VO 02VC 02MD 02MO 02MC 02RD 09RO	1	0	1.92392802238	-531.0	-257.0	-537	-266	1
2.7	2015_Jun_01_1116	s	s	18	1	SIC	424	ABS	2	1	02VD 10VO 02VC 02MD 02MO 02MC 02RD 02RO	1	0	0.925564050674	None	None	231	41	0
2.7	2015_Jun_01_1116	s	s	18	1	SIC	425	RC	0	2	02VD 02VO 02VC 02MD 02MO 02MC 09RD 02RO	1	0	1.29410099983	236.0	-306.0	236	-299	1
2.7	2015_Jun_01_1116	s	s	18	1	SIC	426	RC	2	0	02VD 02VO 09VC 02MD 02MO 02MC 02RD 02RO	1	0	0.450178146362	162.0	27.0	163	12	1
2.7	2015_Jun_01_1116	s	s	18	1	SIC	427	ABS	2	0	02VD 02VO 10VC 02MD 02MO 02MC 02RD 02RO	1	0	1.67082095146	None	None	-100	-255	0
2.7	2015_Jun_01_1116	s	s	18	1	SIC	428	ABS	1	0	02VD 02VO 02VC 02MD 02MO 10MC 02RD 02RO	1	0	0.564296960831	None	None	10	69	0
2.7	2015_Jun_01_1116	s	s	18	1	SIC	429	RC	1	0	02VD 02VO 02VC 02MD 02MO 09MC 02RD 02RO	1	0	0.538063049316	170.0	182.0	169	183	1
2.7	2015_Jun_01_1116	s	s	18	1	SIC	430	ABS	0	2	02VD 02VO 02VC 02MD 02MO 02MC 10RD 02RO	1	0	2.21799015999	None	None	229	372	0
2.7	2015_Jun_01_1116	s	s	18	1	SIC	431	ABS	1	2	02VD 02VO 02VC 10MD 02MO 02MC 02RD 02RO	1	0	1.51508593559	None	None	422	-418	0
2.7	2015_Jun_01_1116	s	s	18	1	SIC	432	ABS	1	1	02VD 02VO 02VC 02MD 10MO 02MC 02RD 02RO	1	0	2.4093298912	None	None	-6	-10	0
2.7	2015_Jun_01_1116	s	s	18	1	SIC	433	ABS	2	2	10VD 02VO 02VC 02MD 02MO 02MC 02RD 02RO	1	0	0.854990959167	None	None	319	34	0
2.7	2015_Jun_01_1116	s	s	18	1	SIC	434	RC	2	2	09VD 02VO 02VC 02MD 02MO 02MC 02RD 02RO	1	0	0.571201086044	88.0	85.0	85	80	1
2.7	2015_Jun_01_1116	s	s	18	1	SIC	435	RC	1	2	02VD 02VO 02VC 09MD 02MO 02MC 02RD 02RO	1	0	2.16506409645	-403.0	313.0	-399	314	1
2.7	2015_Jun_01_1116	s	s	18	1	SIC	436	ABS	2	1	02VD 10VO 02VC 02MD 02MO 02MC 02RD 02RO	1	0	1.24705004692	None	None	-40	351	0
2.7	2015_Jun_01_1116	s	s	18	1	SIC	437	ABS	1	2	02VD 02VO 02VC 10MD 02MO 02MC 02RD 02RO	1	0	1.07839798927	None	None	76	71	0
2.7	2015_Jun_01_1116	s	s	18	1	SIC	438	RC	1	0	02VD 02VO 02VC 02MD 02MO 09MC 02RD 02RO	1	0	0.685731887817	494.0	-296.0	113	179	0
2.7	2015_Jun_01_1116	s	s	18	1	SIC	439	RC	0	1	02VD 02VO 02VC 02MD 02MO 02MC 02RD 09RO	1	0	2.70353388786	-533.0	102.0	-525	97	1
2.7	2015_Jun_01_1116	s	s	18	1	SIC	440	ABS	1	1	02VD 02VO 02VC 02MD 10MO 02MC 02RD 02RO	1	0	2.65493178368	None	None	-504	-132	0
2.7	2015_Jun_01_1116	s	s	18	1	SIC	441	ABS	0	1	02VD 02VO 02VC 02MD 02MO 02MC 02RD 10RO	1	0	5.43728280067	None	None	429	-410	0
2.7	2015_Jun_01_1116	s	s	18	1	SIC	442	RC	1	1	02VD 02VO 02VC 02MD 09MO 02MC 02RD 02RO	1	0	0.517262935638	440.0	79.0	441	68	1
2.7	2015_Jun_01_1116	s	s	18	1	SIC	443	RC	2	1	02VD 09VO 02VC 02MD 02MO 02MC 02RD 02RO	1	0	0.705556869507	-465.0	68.0	500	13	0
2.7	2015_Jun_01_1116	s	s	18	1	SIC	444	RC	2	0	02VD 02VO 09VC 02MD 02MO 02MC 02RD 02RO	1	0	1.46569919586	-411.0	-125.0	443	-405	0
2.7	2015_Jun_01_1116	s	s	18	1	SIC	445	ABS	0	2	02VD 02VO 02VC 02MD 02MO 02MC 10RD 02RO	1	0	1.79657006264	None	None	530	391	0
2.7	2015_Jun_01_1116	s	s	18	1	SIC	446	ABS	1	0	02VD 02VO 02VC 02MD 02MO 10MC 02RD 02RO	1	0	4.39656496048	None	None	160	249	0
2.7	2015_Jun_01_1116	s	s	18	1	SIC	447	RC	0	2	02VD 02VO 02VC 02MD 02MO 02MC 09RD 02RO	1	0	2.33003282547	-137.0	-265.0	-378	-401	0
2.7	2015_Jun_01_1116	s	s	18	1	SIC	448	ABS	2	0	02VD 02VO 10VC 02MD 02MO 02MC 02RD 02RO	1	0	1.25510501862	None	None	-43	-175	0
2.7	2015_Jun_01_1116	s	s	18	1	SIC	449	RC	2	0	02VD 02VO 09VC 02MD 02MO 02MC 02RD 02RO	1	0	1.88270783424	440.0	281.0	256	250	0
2.7	2015_Jun_01_1116	s	s	18	1	SIC	450	ABS	0	2	02VD 02VO 02VC 02MD 02MO 02MC 10RD 02RO	1	0	1.51785302162	None	None	311	-283	0
2.7	2015_Jun_01_1116	s	s	18	1	SIC	451	RC	1	2	02VD 02VO 02VC 09MD 02MO 02MC 02RD 02RO	1	0	1.32299494743	185.0	237.0	481	-232	0
2.7	2015_Jun_01_1116	s	s	18	1	SIC	452	ABS	1	2	02VD 02VO 02VC 10MD 02MO 02MC 02RD 02RO	1	0	1.24702811241	None	None	99	-401	0
2.7	2015_Jun_01_1116	s	s	18	1	SIC	453	ABS	2	1	02VD 10VO 02VC 02MD 02MO 02MC 02RD 02RO	1	0	2.3923830986	None	None	-320	-211	0
2.7	2015_Jun_01_1116	s	s	18	1	SIC	454	ABS	0	1	02VD 02VO 02VC 02MD 02MO 02MC 02RD 10RO	1	0	2.34158611298	None	None	8	-221	0
2.7	2015_Jun_01_1116	s	s	18	1	SIC	455	ABS	2	2	10VD 02VO 02VC 02MD 02MO 02MC 02RD 02RO	1	0	0.676630973816	None	None	78	-20	0
2.7	2015_Jun_01_1116	s	s	18	1	SIC	456	RC	1	0	02VD 02VO 02VC 02MD 02MO 09MC 02RD 02RO	1	0	1.10341715813	-254.0	-381.0	104	12	0
2.7	2015_Jun_01_1116	s	s	18	1	SIC	457	RC	0	2	02VD 02VO 02VC 02MD 02MO 02MC 09RD 02RO	1	0	0.71170592308	204.0	60.0	203	67	1
2.7	2015_Jun_01_1116	s	s	18	1	SIC	458	ABS	1	1	02VD 02VO 02VC 02MD 10MO 02MC 02RD 02RO	1	0	0.964638948441	None	None	263	-100	0
2.7	2015_Jun_01_1116	s	s	18	1	SIC	459	ABS	1	0	02VD 02VO 02VC 02MD 02MO 10MC 02RD 02RO	1	0	0.646942138672	None	None	276	43	0
2.7	2015_Jun_01_1116	s	s	18	1	SIC	460	RC	2	1	02VD 09VO 02VC 02MD 02MO 02MC 02RD 02RO	1	0	0.752609968185	68.0	105.0	77	108	1
2.7	2015_Jun_01_1116	s	s	18	1	SIC	461	ABS	2	0	02VD 02VO 10VC 02MD 02MO 02MC 02RD 02RO	1	0	0.982914924622	None	None	-416	-324	0
2.7	2015_Jun_01_1116	s	s	18	1	SIC	462	RC	0	1	02VD 02VO 02VC 02MD 02MO 02MC 02RD 09RO	1	0	3.05973601341	364.0	270.0	369	276	1
2.7	2015_Jun_01_1116	s	s	18	1	SIC	463	RC	2	2	09VD 02VO 02VC 02MD 02MO 02MC 02RD 02RO	1	0	1.55953216553	-355.0	-205.0	419	-140	0
2.7	2015_Jun_01_1116	s	s	18	1	SIC	464	RC	1	1	02VD 02VO 02VC 02MD 09MO 02MC 02RD 02RO	1	0	0.525643110275	-140.0	-153.0	-8	166	0
2.7	2015_Jun_01_1116	s	s	18	1	SIC	465	RC	2	2	09VD 02VO 02VC 02MD 02MO 02MC 02RD 02RO	1	0	0.512407064438	265.0	-337.0	-23	-3	0
2.7	2015_Jun_01_1116	s	s	18	1	SIC	466	ABS	2	0	02VD 02VO 10VC 02MD 02MO 02MC 02RD 02RO	1	0	1.43168210983	None	None	-360	142	0
2.7	2015_Jun_01_1116	s	s	18	1	SIC	467	RC	1	1	02VD 02VO 02VC 02MD 09MO 02MC 02RD 02RO	1	0	1.1058280468	373.0	352.0	-452	277	0
2.7	2015_Jun_01_1116	s	s	18	1	SIC	468	RC	0	1	02VD 02VO 02VC 02MD 02MO 02MC 02RD 09RO	1	0	1.44349193573	-305.0	-168.0	-370	221	0
2.7	2015_Jun_01_1116	s	s	18	1	SIC	469	ABS	2	2	10VD 02VO 02VC 02MD 02MO 02MC 02RD 02RO	1	0	3.8955051899	None	None	232	-398	0
2.7	2015_Jun_01_1116	s	s	18	1	SIC	470	RC	2	0	02VD 02VO 09VC 02MD 02MO 02MC 02RD 02RO	1	0	2.57385396957	348.0	-142.0	-7	353	0
2.7	2015_Jun_01_1116	s	s	18	1	SIC	471	ABS	0	1	02VD 02VO 02VC 02MD 02MO 02MC 02RD 10RO	1	0	0.595615148544	None	None	-77	254	0
2.7	2015_Jun_01_1116	s	s	18	1	SIC	472	RC	1	0	02VD 02VO 02VC 02MD 02MO 09MC 02RD 02RO	1	0	0.653441905975	514.0	46.0	-191	330	0
2.7	2015_Jun_01_1116	s	s	18	1	SIC	473	ABS	1	2	02VD 02VO 02VC 10MD 02MO 02MC 02RD 02RO	1	0	1.6322889328	None	None	-468	390	0
2.7	2015_Jun_01_1116	s	s	18	1	SIC	474	RC	0	2	02VD 02VO 02VC 02MD 02MO 02MC 09RD 02RO	1	0	2.72348403931	-309.0	-357.0	-302	-358	1
2.7	2015_Jun_01_1116	s	s	18	1	SIC	475	ABS	0	2	02VD 02VO 02VC 02MD 02MO 02MC 10RD 02RO	1	0	1.52540397644	None	None	-244	380	0
2.7	2015_Jun_01_1116	s	s	18	1	SIC	476	ABS	1	0	02VD 02VO 02VC 02MD 02MO 10MC 02RD 02RO	1	0	0.729073047638	None	None	-363	410	0
2.7	2015_Jun_01_1116	s	s	18	1	SIC	477	RC	1	2	02VD 02VO 02VC 09MD 02MO 02MC 02RD 02RO	1	0	1.65619301796	178.0	-204.0	-54	-150	0
2.7	2015_Jun_01_1116	s	s	18	1	SIC	478	ABS	1	1	02VD 02VO 02VC 02MD 10MO 02MC 02RD 02RO	1	0	1.00717306137	None	None	67	-214	0
2.7	2015_Jun_01_1116	s	s	18	1	SIC	479	RC	2	1	02VD 09VO 02VC 02MD 02MO 02MC 02RD 02RO	1	0	1.26567602158	194.0	135.0	146	-334	0
2.7	2015_Jun_01_1116	s	s	18	1	SIC	480	ABS	2	1	02VD 10VO 02VC 02MD 02MO 02MC 02RD 02RO	1	0	1.4945731163	None	None	-532	369	0
