Version	Date	Stimuli	Method	Subject	Session	Condition	Trial	Target	Channel1	Channel2	Distractors	LMouseButton	RMouseButton	RT	TargetX	TargetY	ResponseX	ResponseY	Correct
2.7	2015_Jun_03_1103	s	s	18	3	Capacity	1	ABS	1	0	08VC 16MC	1	0	1.47066712379	None	None	122	-5	0
2.7	2015_Jun_03_1103	s	s	18	3	Capacity	2	ABS	2	0	16VC 08MC	1	0	0.917494058609	None	None	275	-254	0
2.7	2015_Jun_03_1103	s	s	18	3	Capacity	3	RC	2	0	15VC 08MC	1	0	0.250317811966	178.0	79.0	182	82	1
2.7	2015_Jun_03_1103	s	s	18	3	Capacity	4	RC	1	0	08VC 15MC	1	0	0.373699188232	269.0	310.0	-140	49	0
2.7	2015_Jun_03_1103	s	s	18	3	Capacity	5	ABS	2	0	16VC 08MC	1	0	0.346513986588	None	None	-311	142	0
2.7	2015_Jun_03_1103	s	s	18	3	Capacity	6	RC	2	0	15VC 08MC	1	0	0.364227056503	-345.0	179.0	45	198	0
2.7	2015_Jun_03_1103	s	s	18	3	Capacity	7	RC	1	0	08VC 15MC	1	0	0.194355010986	147.0	51.0	155	47	1
2.7	2015_Jun_03_1103	s	s	18	3	Capacity	8	ABS	1	0	08VC 16MC	1	0	0.234797954559	None	None	-12	172	0
2.7	2015_Jun_03_1103	s	s	18	3	Capacity	9	RC	2	0	15VC 08MC	1	0	0.258383989334	-263.0	-344.0	-189	-34	0
2.7	2015_Jun_03_1103	s	s	18	3	Capacity	10	ABS	1	0	08VC 16MC	1	0	0.218444108963	None	None	-220	28	0
2.7	2015_Jun_03_1103	s	s	18	3	Capacity	11	RC	1	0	08VC 15MC	1	0	0.261960983276	-383.0	-210.0	-106	171	0
2.7	2015_Jun_03_1103	s	s	18	3	Capacity	12	ABS	2	0	16VC 08MC	1	0	0.281867980957	None	None	72	37	0
2.7	2015_Jun_03_1103	s	s	18	3	Capacity	13	RC	1	0	08VC 15MC	1	0	0.776211023331	-223.0	236.0	64	248	0
2.7	2015_Jun_03_1103	s	s	18	3	Capacity	14	ABS	2	0	16VC 08MC	1	0	0.246473073959	None	None	-17	183	0
2.7	2015_Jun_03_1103	s	s	18	3	Capacity	15	RC	2	0	15VC 08MC	1	0	0.587957143784	73.0	-221.0	93	181	0
2.7	2015_Jun_03_1103	s	s	18	3	Capacity	16	ABS	1	0	08VC 16MC	1	0	0.86230802536	None	None	-51	-100	0
2.7	2015_Jun_03_1103	s	s	18	3	Capacity	17	RC	1	0	08VC 15MC	1	0	0.387629032135	-536.0	292.0	81	-95	0
2.7	2015_Jun_03_1103	s	s	18	3	Capacity	18	ABS	2	0	16VC 08MC	1	0	0.458930969238	None	None	-73	1	0
2.7	2015_Jun_03_1103	s	s	18	3	Capacity	19	RC	2	0	15VC 08MC	1	0	0.434959173203	-303.0	-165.0	-190	-2	0
2.7	2015_Jun_03_1103	s	s	18	3	Capacity	20	ABS	1	0	08VC 16MC	1	0	0.634865999222	None	None	-77	69	0
2.7	2015_Jun_03_1103	s	s	18	3	Capacity	21	ABS	1	0	08VC 16MC	1	0	0.30279302597	None	None	-160	10	0
2.7	2015_Jun_03_1103	s	s	18	3	Capacity	22	RC	2	0	15VC 08MC	1	0	0.312840938568	426.0	-27.0	-58	294	0
2.7	2015_Jun_03_1103	s	s	18	3	Capacity	23	RC	1	0	08VC 15MC	1	0	0.576156139374	432.0	-232.0	33	187	0
2.7	2015_Jun_03_1103	s	s	18	3	Capacity	24	ABS	2	0	16VC 08MC	1	0	0.4634578228	None	None	-84	58	0
2.7	2015_Jun_03_1103	s	s	18	3	Capacity	25	ABS	1	0	08VC 16MC	1	0	0.455821037292	None	None	-152	47	0
2.7	2015_Jun_03_1103	s	s	18	3	Capacity	26	RC	2	0	15VC 08MC	1	0	0.623196125031	-503.0	329.0	85	61	0
2.7	2015_Jun_03_1103	s	s	18	3	Capacity	27	RC	1	0	08VC 15MC	1	0	0.372843980789	537.0	0.0	-80	6	0
2.7	2015_Jun_03_1103	s	s	18	3	Capacity	28	ABS	2	0	16VC 08MC	1	0	0.69140291214	None	None	54	-8	0
2.7	2015_Jun_03_1103	s	s	18	3	Capacity	29	ABS	1	0	08VC 16MC	1	0	0.429860115051	None	None	-4	-7	0
2.7	2015_Jun_03_1103	s	s	18	3	Capacity	30	ABS	2	0	16VC 08MC	1	0	1.53567695618	None	None	-140	-195	0
2.7	2015_Jun_03_1103	s	s	18	3	Capacity	31	RC	2	0	15VC 08MC	1	0	0.532812833786	499.0	-285.0	16	-293	0
2.7	2015_Jun_03_1103	s	s	18	3	Capacity	32	RC	1	0	08VC 15MC	1	0	0.0303499698639	-463.0	-304.0	-85	62	0
2.7	2015_Jun_03_1103	s	s	18	3	Capacity	33	RC	1	0	08VC 15MC	1	0	0.258373975754	-464.0	286.0	5	195	0
2.7	2015_Jun_03_1103	s	s	18	3	Capacity	34	ABS	1	0	08VC 16MC	1	0	0.372971057892	None	None	-45	7	0
2.7	2015_Jun_03_1103	s	s	18	3	Capacity	35	RC	2	0	15VC 08MC	1	0	0.328872919083	120.0	3.0	129	5	1
2.7	2015_Jun_03_1103	s	s	18	3	Capacity	36	ABS	2	0	16VC 08MC	1	0	0.291385889053	None	None	166	114	0
2.7	2015_Jun_03_1103	s	s	18	3	Capacity	37	RC	2	0	15VC 08MC	1	0	0.246568918228	-484.0	-209.0	91	130	0
2.7	2015_Jun_03_1103	s	s	18	3	Capacity	38	ABS	1	0	08VC 16MC	1	0	0.281733989716	None	None	12	-105	0
2.7	2015_Jun_03_1103	s	s	18	3	Capacity	39	ABS	2	0	16VC 08MC	1	0	0.301998138428	None	None	47	-16	0
2.7	2015_Jun_03_1103	s	s	18	3	Capacity	40	RC	1	0	08VC 15MC	1	0	0.28871679306	-532.0	191.0	-51	80	0
2.7	2015_Jun_03_1103	s	s	18	3	Capacity	41	ABS	2	0	16VC 08MC	1	0	0.255836009979	None	None	179	99	0
2.7	2015_Jun_03_1103	s	s	18	3	Capacity	42	RC	2	0	15VC 08MC	1	0	0.305229902267	392.0	374.0	312	209	0
2.7	2015_Jun_03_1103	s	s	18	3	Capacity	43	RC	1	0	08VC 15MC	1	0	0.278171062469	43.0	-159.0	118	171	0
2.7	2015_Jun_03_1103	s	s	18	3	Capacity	44	ABS	1	0	08VC 16MC	1	0	0.368005990982	None	None	197	154	0
2.7	2015_Jun_03_1103	s	s	18	3	Capacity	45	ABS	1	0	08VC 16MC	1	0	0.53718495369	None	None	164	65	0
2.7	2015_Jun_03_1103	s	s	18	3	Capacity	46	RC	2	0	15VC 08MC	1	0	0.418179988861	-169.0	294.0	84	-168	0
2.7	2015_Jun_03_1103	s	s	18	3	Capacity	47	RC	1	0	08VC 15MC	1	0	0.576016902924	-473.0	-204.0	107	90	0
2.7	2015_Jun_03_1103	s	s	18	3	Capacity	48	ABS	2	0	16VC 08MC	1	0	0.583899021149	None	None	-17	-65	0
2.7	2015_Jun_03_1103	s	s	18	3	Capacity	49	RC	2	0	15VC 08MC	1	0	0.426754951477	-272.0	167.0	44	-73	0
2.7	2015_Jun_03_1103	s	s	18	3	Capacity	50	RC	1	0	08VC 15MC	1	0	0.370356082916	508.0	105.0	-23	-73	0
2.7	2015_Jun_03_1103	s	s	18	3	Capacity	51	ABS	1	0	08VC 16MC	1	0	0.879378080368	None	None	-88	269	0
2.7	2015_Jun_03_1103	s	s	18	3	Capacity	52	ABS	2	0	16VC 08MC	1	0	0.328816175461	None	None	148	202	0
2.7	2015_Jun_03_1103	s	s	18	3	Capacity	53	ABS	1	0	08VC 16MC	1	0	0.33803486824	None	None	153	244	0
2.7	2015_Jun_03_1103	s	s	18	3	Capacity	54	ABS	2	0	16VC 08MC	1	0	0.870223999023	None	None	-187	-111	0
2.7	2015_Jun_03_1103	s	s	18	3	Capacity	55	RC	1	0	08VC 15MC	1	0	0.607271909714	201.0	-22.0	-80	59	0
2.7	2015_Jun_03_1103	s	s	18	3	Capacity	56	RC	2	0	15VC 08MC	1	0	0.711721897125	-445.0	108.0	-194	-248	0
2.7	2015_Jun_03_1103	s	s	18	3	Capacity	57	RC	2	0	15VC 08MC	1	0	0.454628944397	-503.0	88.0	-32	44	0
2.7	2015_Jun_03_1103	s	s	18	3	Capacity	58	ABS	1	0	08VC 16MC	1	0	0.335732936859	None	None	43	125	0
2.7	2015_Jun_03_1103	s	s	18	3	Capacity	59	ABS	2	0	16VC 08MC	1	0	0.611524105072	None	None	-63	73	0
2.7	2015_Jun_03_1103	s	s	18	3	Capacity	60	RC	1	0	08VC 15MC	1	0	0.549401044846	-293.0	138.0	64	243	0
2.7	2015_Jun_03_1103	s	s	18	3	Capacity	61	RC	2	0	15VC 08MC	1	0	0.446644067764	-9.0	62.0	-18	58	1
2.7	2015_Jun_03_1103	s	s	18	3	Capacity	62	ABS	1	0	08VC 16MC	1	0	0.394566059113	None	None	7	171	0
2.7	2015_Jun_03_1103	s	s	18	3	Capacity	63	ABS	2	0	16VC 08MC	1	0	0.399585008621	None	None	-71	128	0
2.7	2015_Jun_03_1103	s	s	18	3	Capacity	64	RC	1	0	08VC 15MC	1	0	0.43198299408	72.0	247.0	-124	-27	0
2.7	2015_Jun_03_1103	s	s	18	3	Capacity	1	ABS	0	2	16RD 08RO	0	1	2.39505910873	None	None	None	None	1
2.7	2015_Jun_03_1103	s	s	18	3	Capacity	2	RC	0	1	08RD 15RO	1	0	1.95687198639	485.0	-237.0	488	-231	1
2.7	2015_Jun_03_1103	s	s	18	3	Capacity	3	RC	0	2	15RD 08RO	0	1	2.40075182915	-178.0	183.0	None	None	0
2.7	2015_Jun_03_1103	s	s	18	3	Capacity	4	ABS	0	1	08RD 16RO	0	1	2.96087789536	None	None	None	None	1
2.7	2015_Jun_03_1103	s	s	18	3	Capacity	5	ABS	0	2	16RD 08RO	0	1	1.71783590317	None	None	None	None	1
2.7	2015_Jun_03_1103	s	s	18	3	Capacity	6	ABS	0	1	08RD 16RO	0	1	2.19548392296	None	None	None	None	1
2.7	2015_Jun_03_1103	s	s	18	3	Capacity	7	RC	0	2	15RD 08RO	1	0	1.30598187447	293.0	-82.0	301	-83	1
2.7	2015_Jun_03_1103	s	s	18	3	Capacity	8	RC	0	1	08RD 15RO	1	0	2.45947098732	388.0	-192.0	390	-187	1
2.7	2015_Jun_03_1103	s	s	18	3	Capacity	9	RC	0	1	08RD 15RO	0	1	2.58902192116	513.0	-3.0	None	None	0
2.7	2015_Jun_03_1103	s	s	18	3	Capacity	10	ABS	0	2	16RD 08RO	0	1	3.60824918747	None	None	None	None	1
2.7	2015_Jun_03_1103	s	s	18	3	Capacity	11	RC	0	2	15RD 08RO	1	0	0.887417078018	64.0	105.0	67	106	1
2.7	2015_Jun_03_1103	s	s	18	3	Capacity	12	ABS	0	1	08RD 16RO	0	1	3.82025980949	None	None	None	None	1
2.7	2015_Jun_03_1103	s	s	18	3	Capacity	13	RC	0	2	15RD 08RO	1	0	0.936213970184	-3.0	118.0	-1	114	1
2.7	2015_Jun_03_1103	s	s	18	3	Capacity	14	ABS	0	2	16RD 08RO	0	1	1.37655115128	None	None	None	None	1
2.7	2015_Jun_03_1103	s	s	18	3	Capacity	15	ABS	0	1	08RD 16RO	0	1	1.64773011208	None	None	None	None	1
2.7	2015_Jun_03_1103	s	s	18	3	Capacity	16	RC	0	1	08RD 15RO	1	0	1.71217393875	267.0	-333.0	263	-326	1
2.7	2015_Jun_03_1103	s	s	18	3	Capacity	17	RC	0	2	15RD 08RO	1	0	1.9482550621	334.0	-48.0	336	-57	1
2.7	2015_Jun_03_1103	s	s	18	3	Capacity	18	RC	0	1	08RD 15RO	0	1	2.99829816818	425.0	297.0	None	None	0
2.7	2015_Jun_03_1103	s	s	18	3	Capacity	19	ABS	0	2	16RD 08RO	0	1	1.65652298927	None	None	None	None	1
2.7	2015_Jun_03_1103	s	s	18	3	Capacity	20	ABS	0	1	08RD 16RO	0	1	2.75374007225	None	None	None	None	1
2.7	2015_Jun_03_1103	s	s	18	3	Capacity	21	ABS	0	1	08RD 16RO	0	1	2.43594098091	None	None	None	None	1
2.7	2015_Jun_03_1103	s	s	18	3	Capacity	22	RC	0	1	08RD 15RO	1	0	2.54192996025	311.0	240.0	310	238	1
2.7	2015_Jun_03_1103	s	s	18	3	Capacity	23	ABS	0	2	16RD 08RO	0	1	3.19573807716	None	None	None	None	1
2.7	2015_Jun_03_1103	s	s	18	3	Capacity	24	RC	0	2	15RD 08RO	1	0	1.25548315048	256.0	-68.0	256	-70	1
2.7	2015_Jun_03_1103	s	s	18	3	Capacity	25	ABS	0	1	08RD 16RO	0	1	1.80028295517	None	None	None	None	1
2.7	2015_Jun_03_1103	s	s	18	3	Capacity	26	RC	0	1	08RD 15RO	1	0	1.18551397324	408.0	174.0	411	166	1
2.7	2015_Jun_03_1103	s	s	18	3	Capacity	27	ABS	0	2	16RD 08RO	0	1	2.72601699829	None	None	None	None	1
2.7	2015_Jun_03_1103	s	s	18	3	Capacity	28	RC	0	2	15RD 08RO	0	1	1.72967290878	-327.0	294.0	None	None	0
2.7	2015_Jun_03_1103	s	s	18	3	Capacity	29	RC	0	1	08RD 15RO	1	0	0.665390968323	146.0	146.0	149	145	1
2.7	2015_Jun_03_1103	s	s	18	3	Capacity	30	ABS	0	1	08RD 16RO	0	1	1.81876397133	None	None	None	None	1
2.7	2015_Jun_03_1103	s	s	18	3	Capacity	31	ABS	0	2	16RD 08RO	0	1	2.4072561264	None	None	None	None	1
2.7	2015_Jun_03_1103	s	s	18	3	Capacity	32	RC	0	2	15RD 08RO	1	0	0.841056108475	133.0	171.0	138	173	1
2.7	2015_Jun_03_1103	s	s	18	3	Capacity	33	RC	0	2	15RD 08RO	0	1	1.60706686974	360.0	348.0	None	None	0
2.7	2015_Jun_03_1103	s	s	18	3	Capacity	34	ABS	0	2	16RD 08RO	0	1	1.90622401237	None	None	None	None	1
2.7	2015_Jun_03_1103	s	s	18	3	Capacity	35	RC	0	1	08RD 15RO	1	0	1.55990004539	-299.0	5.0	-285	12	1
2.7	2015_Jun_03_1103	s	s	18	3	Capacity	36	ABS	0	1	08RD 16RO	0	1	3.05418109894	None	None	None	None	1
2.7	2015_Jun_03_1103	s	s	18	3	Capacity	37	RC	0	1	08RD 15RO	1	0	3.24274086952	-283.0	-354.0	-275	-356	1
2.7	2015_Jun_03_1103	s	s	18	3	Capacity	38	RC	0	2	15RD 08RO	1	0	1.96510601044	107.0	365.0	102	363	1
2.7	2015_Jun_03_1103	s	s	18	3	Capacity	39	ABS	0	2	16RD 08RO	0	1	2.81926512718	None	None	None	None	1
2.7	2015_Jun_03_1103	s	s	18	3	Capacity	40	ABS	0	1	08RD 16RO	0	1	3.77805399895	None	None	None	None	1
2.7	2015_Jun_03_1103	s	s	18	3	Capacity	41	RC	0	2	15RD 08RO	1	0	2.01230192184	390.0	-79.0	385	-78	1
2.7	2015_Jun_03_1103	s	s	18	3	Capacity	42	RC	0	1	08RD 15RO	1	0	0.936192035675	166.0	-234.0	161	-242	1
2.7	2015_Jun_03_1103	s	s	18	3	Capacity	43	ABS	0	1	08RD 16RO	0	1	2.35775399208	None	None	None	None	1
2.7	2015_Jun_03_1103	s	s	18	3	Capacity	44	ABS	0	2	16RD 08RO	0	1	1.98860311508	None	None	None	None	1
2.7	2015_Jun_03_1103	s	s	18	3	Capacity	45	RC	0	1	08RD 15RO	1	0	1.61195397377	291.0	-232.0	282	-227	1
2.7	2015_Jun_03_1103	s	s	18	3	Capacity	46	RC	0	2	15RD 08RO	1	0	1.69478487968	-149.0	-59.0	-147	-51	1
2.7	2015_Jun_03_1103	s	s	18	3	Capacity	47	ABS	0	2	16RD 08RO	0	1	2.10085511208	None	None	None	None	1
2.7	2015_Jun_03_1103	s	s	18	3	Capacity	48	ABS	0	1	08RD 16RO	0	1	2.32993793488	None	None	None	None	1
2.7	2015_Jun_03_1103	s	s	18	3	Capacity	49	RC	0	1	08RD 15RO	1	0	2.23069405556	-182.0	-287.0	-186	-293	1
2.7	2015_Jun_03_1103	s	s	18	3	Capacity	50	RC	0	2	15RD 08RO	1	0	1.5860748291	164.0	409.0	162	403	1
2.7	2015_Jun_03_1103	s	s	18	3	Capacity	51	ABS	0	2	16RD 08RO	0	1	2.88320112228	None	None	None	None	1
2.7	2015_Jun_03_1103	s	s	18	3	Capacity	52	ABS	0	1	08RD 16RO	0	1	3.36939287186	None	None	None	None	1
2.7	2015_Jun_03_1103	s	s	18	3	Capacity	53	ABS	0	1	08RD 16RO	0	1	2.77127790451	None	None	None	None	1
2.7	2015_Jun_03_1103	s	s	18	3	Capacity	54	RC	0	1	08RD 15RO	0	1	2.3068780899	437.0	-90.0	None	None	0
2.7	2015_Jun_03_1103	s	s	18	3	Capacity	55	ABS	0	2	16RD 08RO	0	1	1.80728006363	None	None	None	None	1
2.7	2015_Jun_03_1103	s	s	18	3	Capacity	56	RC	0	2	15RD 08RO	1	0	2.07142806053	399.0	322.0	395	315	1
2.7	2015_Jun_03_1103	s	s	18	3	Capacity	57	RC	0	2	15RD 08RO	1	0	1.37652397156	-298.0	136.0	-299	132	1
2.7	2015_Jun_03_1103	s	s	18	3	Capacity	58	RC	0	1	08RD 15RO	1	0	2.25931501389	478.0	183.0	480	191	1
2.7	2015_Jun_03_1103	s	s	18	3	Capacity	59	ABS	0	1	08RD 16RO	0	1	3.47175979614	None	None	None	None	1
2.7	2015_Jun_03_1103	s	s	18	3	Capacity	60	ABS	0	2	16RD 08RO	0	1	2.38384199142	None	None	None	None	1
2.7	2015_Jun_03_1103	s	s	18	3	Capacity	61	RC	0	1	08RD 15RO	1	0	3.08318305016	-383.0	337.0	-382	340	1
2.7	2015_Jun_03_1103	s	s	18	3	Capacity	62	ABS	0	1	08RD 16RO	0	1	2.17435383797	None	None	None	None	1
2.7	2015_Jun_03_1103	s	s	18	3	Capacity	63	ABS	0	2	16RD 08RO	0	1	2.5712518692	None	None	None	None	1
2.7	2015_Jun_03_1103	s	s	18	3	Capacity	64	RC	0	2	15RD 08RO	1	0	0.818185806274	-179.0	34.0	-183	36	1
2.7	2015_Jun_03_1103	s	s	18	3	SIC	1	ABS	0	2	02VD 02VO 02VC 02MD 02MO 02MC 10RD 02RO	1	0	0.678532838821	None	None	-38	120	0
2.7	2015_Jun_03_1103	s	s	18	3	SIC	2	ABS	2	0	02VD 02VO 10VC 02MD 02MO 02MC 02RD 02RO	1	0	1.11202597618	None	None	214	364	0
2.7	2015_Jun_03_1103	s	s	18	3	SIC	3	RC	2	0	02VD 02VO 09VC 02MD 02MO 02MC 02RD 02RO	1	0	0.835016965866	205.0	315.0	200	309	1
2.7	2015_Jun_03_1103	s	s	18	3	SIC	4	RC	2	1	02VD 09VO 02VC 02MD 02MO 02MC 02RD 02RO	1	0	0.889511823654	487.0	-401.0	-148	66	0
2.7	2015_Jun_03_1103	s	s	18	3	SIC	5	ABS	0	1	02VD 02VO 02VC 02MD 02MO 02MC 02RD 10RO	1	0	1.25880599022	None	None	-269	-363	0
2.7	2015_Jun_03_1103	s	s	18	3	SIC	6	ABS	2	2	10VD 02VO 02VC 02MD 02MO 02MC 02RD 02RO	1	0	1.05621695518	None	None	159	404	0
2.7	2015_Jun_03_1103	s	s	18	3	SIC	7	ABS	1	0	02VD 02VO 02VC 02MD 02MO 10MC 02RD 02RO	1	0	0.726723194122	None	None	-141	-59	0
2.7	2015_Jun_03_1103	s	s	18	3	SIC	8	RC	0	1	02VD 02VO 02VC 02MD 02MO 02MC 02RD 09RO	1	0	0.529095172882	67.0	236.0	-99	137	0
2.7	2015_Jun_03_1103	s	s	18	3	SIC	9	RC	1	2	02VD 02VO 02VC 09MD 02MO 02MC 02RD 02RO	1	0	0.66807103157	-422.0	155.0	-290	130	0
2.7	2015_Jun_03_1103	s	s	18	3	SIC	10	RC	2	2	09VD 02VO 02VC 02MD 02MO 02MC 02RD 02RO	1	0	0.950292825699	-460.0	374.0	-397	106	0
2.7	2015_Jun_03_1103	s	s	18	3	SIC	11	RC	1	1	02VD 02VO 02VC 02MD 09MO 02MC 02RD 02RO	1	0	0.552426815033	33.0	250.0	34	258	1
2.7	2015_Jun_03_1103	s	s	18	3	SIC	12	RC	1	0	02VD 02VO 02VC 02MD 02MO 09MC 02RD 02RO	1	0	0.635108947754	78.0	-243.0	43	379	0
2.7	2015_Jun_03_1103	s	s	18	3	SIC	13	ABS	2	1	02VD 10VO 02VC 02MD 02MO 02MC 02RD 02RO	1	0	0.62325501442	None	None	79	94	0
2.7	2015_Jun_03_1103	s	s	18	3	SIC	14	ABS	1	1	02VD 02VO 02VC 02MD 10MO 02MC 02RD 02RO	1	0	0.634896039963	None	None	-301	321	0
2.7	2015_Jun_03_1103	s	s	18	3	SIC	15	ABS	1	2	02VD 02VO 02VC 10MD 02MO 02MC 02RD 02RO	1	0	0.752732038498	None	None	-75	276	0
2.7	2015_Jun_03_1103	s	s	18	3	SIC	16	RC	0	2	02VD 02VO 02VC 02MD 02MO 02MC 09RD 02RO	1	0	0.634975194931	155.0	-22.0	-60	-37	0
2.7	2015_Jun_03_1103	s	s	18	3	SIC	17	RC	2	1	02VD 09VO 02VC 02MD 02MO 02MC 02RD 02RO	1	0	1.07410788536	443.0	-48.0	165	-332	0
2.7	2015_Jun_03_1103	s	s	18	3	SIC	18	ABS	0	1	02VD 02VO 02VC 02MD 02MO 02MC 02RD 10RO	1	0	0.9122569561	None	None	304	291	0
2.7	2015_Jun_03_1103	s	s	18	3	SIC	19	RC	1	0	02VD 02VO 02VC 02MD 02MO 09MC 02RD 02RO	1	0	0.572705030441	519.0	245.0	-15	388	0
2.7	2015_Jun_03_1103	s	s	18	3	SIC	20	ABS	1	1	02VD 02VO 02VC 02MD 10MO 02MC 02RD 02RO	1	0	0.564321994781	None	None	8	314	0
2.7	2015_Jun_03_1103	s	s	18	3	SIC	21	ABS	1	0	02VD 02VO 02VC 02MD 02MO 10MC 02RD 02RO	1	0	0.464545965195	None	None	157	334	0
2.7	2015_Jun_03_1103	s	s	18	3	SIC	22	ABS	2	0	02VD 02VO 10VC 02MD 02MO 02MC 02RD 02RO	1	0	1.1384999752	None	None	-25	-303	0
2.7	2015_Jun_03_1103	s	s	18	3	SIC	23	RC	1	1	02VD 02VO 02VC 02MD 09MO 02MC 02RD 02RO	1	0	0.547132015228	27.0	-228.0	37	-230	1
2.7	2015_Jun_03_1103	s	s	18	3	SIC	24	ABS	0	2	02VD 02VO 02VC 02MD 02MO 02MC 10RD 02RO	1	0	0.667634963989	None	None	238	-211	0
2.7	2015_Jun_03_1103	s	s	18	3	SIC	25	ABS	1	2	02VD 02VO 02VC 10MD 02MO 02MC 02RD 02RO	1	0	0.493821144104	None	None	-24	-71	0
2.7	2015_Jun_03_1103	s	s	18	3	SIC	26	RC	2	0	02VD 02VO 09VC 02MD 02MO 02MC 02RD 02RO	1	0	0.467175006866	35.0	-84.0	35	-75	1
2.7	2015_Jun_03_1103	s	s	18	3	SIC	27	RC	2	2	09VD 02VO 02VC 02MD 02MO 02MC 02RD 02RO	1	0	0.465461015701	39.0	0.0	36	3	1
2.7	2015_Jun_03_1103	s	s	18	3	SIC	28	RC	0	1	02VD 02VO 02VC 02MD 02MO 02MC 02RD 09RO	1	0	0.976191997528	272.0	-331.0	-47	356	0
2.7	2015_Jun_03_1103	s	s	18	3	SIC	29	ABS	2	1	02VD 10VO 02VC 02MD 02MO 02MC 02RD 02RO	1	0	1.74145007133	None	None	319	17	0
2.7	2015_Jun_03_1103	s	s	18	3	SIC	30	RC	1	2	02VD 02VO 02VC 09MD 02MO 02MC 02RD 02RO	1	0	0.703367948532	4.0	-197.0	2	-192	1
2.7	2015_Jun_03_1103	s	s	18	3	SIC	31	RC	0	2	02VD 02VO 02VC 02MD 02MO 02MC 09RD 02RO	1	0	0.712152957916	-499.0	392.0	-38	-91	0
2.7	2015_Jun_03_1103	s	s	18	3	SIC	32	ABS	2	2	10VD 02VO 02VC 02MD 02MO 02MC 02RD 02RO	1	0	0.935378074646	None	None	266	164	0
2.7	2015_Jun_03_1103	s	s	18	3	SIC	33	RC	2	1	02VD 09VO 02VC 02MD 02MO 02MC 02RD 02RO	1	0	0.75269985199	-539.0	165.0	-34	-117	0
2.7	2015_Jun_03_1103	s	s	18	3	SIC	34	RC	1	1	02VD 02VO 02VC 02MD 09MO 02MC 02RD 02RO	1	0	1.15306210518	-359.0	-67.0	134	226	0
2.7	2015_Jun_03_1103	s	s	18	3	SIC	35	RC	1	2	02VD 02VO 02VC 09MD 02MO 02MC 02RD 02RO	1	0	0.547202110291	-100.0	234.0	32	-312	0
2.7	2015_Jun_03_1103	s	s	18	3	SIC	36	RC	2	2	09VD 02VO 02VC 02MD 02MO 02MC 02RD 02RO	1	0	1.80024600029	-154.0	340.0	-150	243	0
2.7	2015_Jun_03_1103	s	s	18	3	SIC	37	ABS	0	1	02VD 02VO 02VC 02MD 02MO 02MC 02RD 10RO	1	0	1.87710499763	None	None	206	311	0
2.7	2015_Jun_03_1103	s	s	18	3	SIC	38	ABS	1	2	02VD 02VO 02VC 10MD 02MO 02MC 02RD 02RO	1	0	1.78845310211	None	None	-302	-407	0
2.7	2015_Jun_03_1103	s	s	18	3	SIC	39	ABS	1	1	02VD 02VO 02VC 02MD 10MO 02MC 02RD 02RO	1	0	2.06771087646	None	None	166	-222	0
2.7	2015_Jun_03_1103	s	s	18	3	SIC	40	ABS	2	2	10VD 02VO 02VC 02MD 02MO 02MC 02RD 02RO	1	0	1.64170312881	None	None	351	-298	0
2.7	2015_Jun_03_1103	s	s	18	3	SIC	41	ABS	2	1	02VD 10VO 02VC 02MD 02MO 02MC 02RD 02RO	1	0	1.36474680901	None	None	-368	42	0
2.7	2015_Jun_03_1103	s	s	18	3	SIC	42	ABS	1	0	02VD 02VO 02VC 02MD 02MO 10MC 02RD 02RO	1	0	0.900913953781	None	None	-26	173	0
2.7	2015_Jun_03_1103	s	s	18	3	SIC	43	RC	1	0	02VD 02VO 02VC 02MD 02MO 09MC 02RD 02RO	1	0	1.02060484886	-277.0	-82.0	51	205	0
2.7	2015_Jun_03_1103	s	s	18	3	SIC	44	RC	2	0	02VD 02VO 09VC 02MD 02MO 02MC 02RD 02RO	1	0	0.434797048569	149.0	177.0	150	182	1
2.7	2015_Jun_03_1103	s	s	18	3	SIC	45	RC	0	1	02VD 02VO 02VC 02MD 02MO 02MC 02RD 09RO	1	0	1.43532896042	461.0	-41.0	65	-98	0
2.7	2015_Jun_03_1103	s	s	18	3	SIC	46	RC	0	2	02VD 02VO 02VC 02MD 02MO 02MC 09RD 02RO	1	0	0.924605846405	488.0	292.0	15	-355	0
2.7	2015_Jun_03_1103	s	s	18	3	SIC	47	ABS	0	2	02VD 02VO 02VC 02MD 02MO 02MC 10RD 02RO	1	0	0.582666158676	None	None	54	-15	0
2.7	2015_Jun_03_1103	s	s	18	3	SIC	48	ABS	2	0	02VD 02VO 10VC 02MD 02MO 02MC 02RD 02RO	1	0	0.594850063324	None	None	285	74	0
2.7	2015_Jun_03_1103	s	s	18	3	SIC	49	ABS	2	2	10VD 02VO 02VC 02MD 02MO 02MC 02RD 02RO	1	0	0.764503955841	None	None	-211	407	0
2.7	2015_Jun_03_1103	s	s	18	3	SIC	50	ABS	0	2	02VD 02VO 02VC 02MD 02MO 02MC 10RD 02RO	1	0	0.470288991928	None	None	123	-72	0
2.7	2015_Jun_03_1103	s	s	18	3	SIC	51	ABS	0	1	02VD 02VO 02VC 02MD 02MO 02MC 02RD 10RO	1	0	2.09141302109	None	None	-11	369	0
2.7	2015_Jun_03_1103	s	s	18	3	SIC	52	ABS	1	1	02VD 02VO 02VC 02MD 10MO 02MC 02RD 02RO	1	0	0.952786922455	None	None	403	77	0
2.7	2015_Jun_03_1103	s	s	18	3	SIC	53	RC	1	1	02VD 02VO 02VC 02MD 09MO 02MC 02RD 02RO	1	0	0.570168972015	8.0	261.0	7	263	1
2.7	2015_Jun_03_1103	s	s	18	3	SIC	54	RC	1	0	02VD 02VO 02VC 02MD 02MO 09MC 02RD 02RO	1	0	1.14943194389	-228.0	-299.0	-95	350	0
2.7	2015_Jun_03_1103	s	s	18	3	SIC	55	RC	2	2	09VD 02VO 02VC 02MD 02MO 02MC 02RD 02RO	1	0	1.38590812683	478.0	0.0	124	-362	0
2.7	2015_Jun_03_1103	s	s	18	3	SIC	56	RC	2	0	02VD 02VO 09VC 02MD 02MO 02MC 02RD 02RO	1	0	0.770658016205	-506.0	-197.0	80	-142	0
2.7	2015_Jun_03_1103	s	s	18	3	SIC	57	RC	0	1	02VD 02VO 02VC 02MD 02MO 02MC 02RD 09RO	1	0	1.57663393021	-526.0	101.0	-515	104	1
2.7	2015_Jun_03_1103	s	s	18	3	SIC	58	ABS	1	0	02VD 02VO 02VC 02MD 02MO 10MC 02RD 02RO	1	0	0.584567070007	None	None	-124	121	0
2.7	2015_Jun_03_1103	s	s	18	3	SIC	59	RC	1	2	02VD 02VO 02VC 09MD 02MO 02MC 02RD 02RO	1	0	0.749330043793	5.0	234.0	86	61	0
2.7	2015_Jun_03_1103	s	s	18	3	SIC	60	ABS	2	0	02VD 02VO 10VC 02MD 02MO 02MC 02RD 02RO	1	0	0.61137509346	None	None	99	10	0
2.7	2015_Jun_03_1103	s	s	18	3	SIC	61	ABS	1	2	02VD 02VO 02VC 10MD 02MO 02MC 02RD 02RO	1	0	1.90623903275	None	None	-390	393	0
2.7	2015_Jun_03_1103	s	s	18	3	SIC	62	ABS	2	1	02VD 10VO 02VC 02MD 02MO 02MC 02RD 02RO	1	0	0.795737981796	None	None	-180	85	0
2.7	2015_Jun_03_1103	s	s	18	3	SIC	63	RC	0	2	02VD 02VO 02VC 02MD 02MO 02MC 09RD 02RO	1	0	1.14102315903	-463.0	-200.0	-315	156	0
2.7	2015_Jun_03_1103	s	s	18	3	SIC	64	RC	2	1	02VD 09VO 02VC 02MD 02MO 02MC 02RD 02RO	1	0	1.56482601166	409.0	170.0	-385	13	0
2.7	2015_Jun_03_1103	s	s	18	3	SIC	65	ABS	0	2	02VD 02VO 02VC 02MD 02MO 02MC 10RD 02RO	1	0	0.667362928391	None	None	31	-198	0
2.7	2015_Jun_03_1103	s	s	18	3	SIC	66	ABS	1	0	02VD 02VO 02VC 02MD 02MO 10MC 02RD 02RO	1	0	0.467862844467	None	None	-56	124	0
2.7	2015_Jun_03_1103	s	s	18	3	SIC	67	ABS	2	1	02VD 10VO 02VC 02MD 02MO 02MC 02RD 02RO	1	0	1.8356089592	None	None	-530	70	0
2.7	2015_Jun_03_1103	s	s	18	3	SIC	68	RC	0	1	02VD 02VO 02VC 02MD 02MO 02MC 02RD 09RO	1	0	0.642755031586	-517.0	231.0	-253	-37	0
2.7	2015_Jun_03_1103	s	s	18	3	SIC	69	ABS	2	2	10VD 02VO 02VC 02MD 02MO 02MC 02RD 02RO	1	0	0.794651985168	None	None	-302	-121	0
2.7	2015_Jun_03_1103	s	s	18	3	SIC	70	RC	2	0	02VD 02VO 09VC 02MD 02MO 02MC 02RD 02RO	1	0	0.811544895172	-386.0	-230.0	179	-247	0
2.7	2015_Jun_03_1103	s	s	18	3	SIC	71	RC	0	2	02VD 02VO 02VC 02MD 02MO 02MC 09RD 02RO	1	0	0.532649993896	-243.0	214.0	10	-4	0
2.7	2015_Jun_03_1103	s	s	18	3	SIC	72	ABS	2	0	02VD 02VO 10VC 02MD 02MO 02MC 02RD 02RO	1	0	1.59773612022	None	None	-162	-199	0
2.7	2015_Jun_03_1103	s	s	18	3	SIC	73	ABS	1	1	02VD 02VO 02VC 02MD 10MO 02MC 02RD 02RO	1	0	1.52959895134	None	None	-517	-68	0
2.7	2015_Jun_03_1103	s	s	18	3	SIC	74	ABS	1	2	02VD 02VO 02VC 10MD 02MO 02MC 02RD 02RO	1	0	2.2075881958	None	None	292	-154	0
2.7	2015_Jun_03_1103	s	s	18	3	SIC	75	RC	1	1	02VD 02VO 02VC 02MD 09MO 02MC 02RD 02RO	1	0	0.615135192871	-282.0	-61.0	25	69	0
2.7	2015_Jun_03_1103	s	s	18	3	SIC	76	RC	1	0	02VD 02VO 02VC 02MD 02MO 09MC 02RD 02RO	1	0	0.489057064056	529.0	288.0	267	70	0
2.7	2015_Jun_03_1103	s	s	18	3	SIC	77	RC	2	1	02VD 09VO 02VC 02MD 02MO 02MC 02RD 02RO	1	0	1.06516885757	-462.0	2.0	-467	-2	1
2.7	2015_Jun_03_1103	s	s	18	3	SIC	78	RC	2	2	09VD 02VO 02VC 02MD 02MO 02MC 02RD 02RO	1	0	0.787884950638	-535.0	51.0	-25	160	0
2.7	2015_Jun_03_1103	s	s	18	3	SIC	79	RC	1	2	02VD 02VO 02VC 09MD 02MO 02MC 02RD 02RO	1	0	0.691347837448	120.0	247.0	123	252	1
2.7	2015_Jun_03_1103	s	s	18	3	SIC	80	ABS	0	1	02VD 02VO 02VC 02MD 02MO 02MC 02RD 10RO	1	0	0.638664960861	None	None	260	240	0
2.7	2015_Jun_03_1103	s	s	18	3	SIC	81	ABS	1	0	02VD 02VO 02VC 02MD 02MO 10MC 02RD 02RO	1	0	0.535749912262	None	None	-102	190	0
2.7	2015_Jun_03_1103	s	s	18	3	SIC	82	ABS	1	2	02VD 02VO 02VC 10MD 02MO 02MC 02RD 02RO	1	0	1.50602388382	None	None	375	400	0
2.7	2015_Jun_03_1103	s	s	18	3	SIC	83	RC	1	0	02VD 02VO 02VC 02MD 02MO 09MC 02RD 02RO	1	0	0.817632913589	-466.0	150.0	-467	153	1
2.7	2015_Jun_03_1103	s	s	18	3	SIC	84	RC	0	1	02VD 02VO 02VC 02MD 02MO 02MC 02RD 09RO	1	0	1.37024903297	-361.0	-393.0	-477	-55	0
2.7	2015_Jun_03_1103	s	s	18	3	SIC	85	RC	2	0	02VD 02VO 09VC 02MD 02MO 02MC 02RD 02RO	1	0	0.524149894714	253.0	-369.0	6	67	0
2.7	2015_Jun_03_1103	s	s	18	3	SIC	86	ABS	2	0	02VD 02VO 10VC 02MD 02MO 02MC 02RD 02RO	1	0	1.33585500717	None	None	-513	124	0
2.7	2015_Jun_03_1103	s	s	18	3	SIC	87	ABS	1	1	02VD 02VO 02VC 02MD 10MO 02MC 02RD 02RO	1	0	1.11268591881	None	None	51	205	0
2.7	2015_Jun_03_1103	s	s	18	3	SIC	88	RC	1	1	02VD 02VO 02VC 02MD 09MO 02MC 02RD 02RO	1	0	0.902431964874	-48.0	-322.0	5	320	0
2.7	2015_Jun_03_1103	s	s	18	3	SIC	89	ABS	2	2	10VD 02VO 02VC 02MD 02MO 02MC 02RD 02RO	1	0	1.52691292763	None	None	-181	-148	0
2.7	2015_Jun_03_1103	s	s	18	3	SIC	90	RC	2	1	02VD 09VO 02VC 02MD 02MO 02MC 02RD 02RO	1	0	1.22326898575	532.0	330.0	-157	-102	0
2.7	2015_Jun_03_1103	s	s	18	3	SIC	91	RC	2	2	09VD 02VO 02VC 02MD 02MO 02MC 02RD 02RO	1	0	1.00711297989	-389.0	185.0	-391	188	1
2.7	2015_Jun_03_1103	s	s	18	3	SIC	92	RC	0	2	02VD 02VO 02VC 02MD 02MO 02MC 09RD 02RO	1	0	0.655941963196	281.0	330.0	125	-133	0
2.7	2015_Jun_03_1103	s	s	18	3	SIC	93	ABS	0	1	02VD 02VO 02VC 02MD 02MO 02MC 02RD 10RO	1	0	0.621046066284	None	None	138	-185	0
2.7	2015_Jun_03_1103	s	s	18	3	SIC	94	ABS	2	1	02VD 10VO 02VC 02MD 02MO 02MC 02RD 02RO	1	0	0.925943136215	None	None	-32	143	0
2.7	2015_Jun_03_1103	s	s	18	3	SIC	95	RC	1	2	02VD 02VO 02VC 09MD 02MO 02MC 02RD 02RO	1	0	0.6774289608	-161.0	-31.0	-153	-30	1
2.7	2015_Jun_03_1103	s	s	18	3	SIC	96	ABS	0	2	02VD 02VO 02VC 02MD 02MO 02MC 10RD 02RO	1	0	1.03268885612	None	None	-334	54	0
2.7	2015_Jun_03_1103	s	s	18	3	SIC	97	RC	2	1	02VD 09VO 02VC 02MD 02MO 02MC 02RD 02RO	1	0	0.80662894249	306.0	225.0	-341	108	0
2.7	2015_Jun_03_1103	s	s	18	3	SIC	98	ABS	2	2	10VD 02VO 02VC 02MD 02MO 02MC 02RD 02RO	1	0	1.04440999031	None	None	-114	41	0
2.7	2015_Jun_03_1103	s	s	18	3	SIC	99	ABS	2	1	02VD 10VO 02VC 02MD 02MO 02MC 02RD 02RO	1	0	1.38282704353	None	None	-523	-133	0
2.7	2015_Jun_03_1103	s	s	18	3	SIC	100	ABS	1	2	02VD 02VO 02VC 10MD 02MO 02MC 02RD 02RO	1	0	1.43240690231	None	None	-317	307	0
2.7	2015_Jun_03_1103	s	s	18	3	SIC	101	ABS	0	2	02VD 02VO 02VC 02MD 02MO 02MC 10RD 02RO	1	0	1.02348589897	None	None	182	290	0
2.7	2015_Jun_03_1103	s	s	18	3	SIC	102	RC	1	2	02VD 02VO 02VC 09MD 02MO 02MC 02RD 02RO	1	0	0.73272895813	288.0	132.0	289	132	1
2.7	2015_Jun_03_1103	s	s	18	3	SIC	103	RC	0	1	02VD 02VO 02VC 02MD 02MO 02MC 02RD 09RO	1	0	0.529446840286	-17.0	-29.0	100	81	0
2.7	2015_Jun_03_1103	s	s	18	3	SIC	104	ABS	1	1	02VD 02VO 02VC 02MD 10MO 02MC 02RD 02RO	1	0	0.677002191544	None	None	-248	-10	0
2.7	2015_Jun_03_1103	s	s	18	3	SIC	105	ABS	0	1	02VD 02VO 02VC 02MD 02MO 02MC 02RD 10RO	1	0	0.642416000366	None	None	-174	165	0
2.7	2015_Jun_03_1103	s	s	18	3	SIC	106	RC	1	1	02VD 02VO 02VC 02MD 09MO 02MC 02RD 02RO	1	0	1.34110093117	508.0	-389.0	78	150	0
2.7	2015_Jun_03_1103	s	s	18	3	SIC	107	ABS	1	0	02VD 02VO 02VC 02MD 02MO 10MC 02RD 02RO	1	0	0.42031788826	None	None	6	-16	0
2.7	2015_Jun_03_1103	s	s	18	3	SIC	108	RC	2	2	09VD 02VO 02VC 02MD 02MO 02MC 02RD 02RO	1	0	0.6300740242	363.0	-388.0	207	-115	0
2.7	2015_Jun_03_1103	s	s	18	3	SIC	109	RC	2	0	02VD 02VO 09VC 02MD 02MO 02MC 02RD 02RO	1	0	0.865463018417	269.0	-282.0	-455	-12	0
2.7	2015_Jun_03_1103	s	s	18	3	SIC	110	RC	1	0	02VD 02VO 02VC 02MD 02MO 09MC 02RD 02RO	1	0	1.23021101952	-271.0	239.0	-249	112	0
2.7	2015_Jun_03_1103	s	s	18	3	SIC	111	RC	0	2	02VD 02VO 02VC 02MD 02MO 02MC 09RD 02RO	1	0	0.558043956757	-246.0	-35.0	-42	237	0
2.7	2015_Jun_03_1103	s	s	18	3	SIC	112	ABS	2	0	02VD 02VO 10VC 02MD 02MO 02MC 02RD 02RO	1	0	0.960078001022	None	None	4	-17	0
2.7	2015_Jun_03_1103	s	s	18	3	SIC	113	ABS	2	1	02VD 10VO 02VC 02MD 02MO 02MC 02RD 02RO	1	0	1.30595803261	None	None	14	174	0
2.7	2015_Jun_03_1103	s	s	18	3	SIC	114	RC	0	1	02VD 02VO 02VC 02MD 02MO 02MC 02RD 09RO	1	0	2.25676298141	-397.0	-295.0	365	204	0
2.7	2015_Jun_03_1103	s	s	18	3	SIC	115	RC	2	0	02VD 02VO 09VC 02MD 02MO 02MC 02RD 02RO	1	0	0.772984027863	376.0	259.0	375	248	1
2.7	2015_Jun_03_1103	s	s	18	3	SIC	116	RC	0	2	02VD 02VO 02VC 02MD 02MO 02MC 09RD 02RO	1	0	1.31772613525	243.0	-325.0	116	-146	0
2.7	2015_Jun_03_1103	s	s	18	3	SIC	117	ABS	1	2	02VD 02VO 02VC 10MD 02MO 02MC 02RD 02RO	1	0	0.811619997025	None	None	56	-236	0
2.7	2015_Jun_03_1103	s	s	18	3	SIC	118	ABS	2	2	10VD 02VO 02VC 02MD 02MO 02MC 02RD 02RO	1	0	1.2470099926	None	None	-342	-311	0
2.7	2015_Jun_03_1103	s	s	18	3	SIC	119	RC	1	2	02VD 02VO 02VC 09MD 02MO 02MC 02RD 02RO	1	0	0.936065912247	-299.0	362.0	-295	352	1
2.7	2015_Jun_03_1103	s	s	18	3	SIC	120	ABS	0	2	02VD 02VO 02VC 02MD 02MO 02MC 10RD 02RO	1	0	0.642390966415	None	None	-71	196	0
2.7	2015_Jun_03_1103	s	s	18	3	SIC	121	RC	2	2	09VD 02VO 02VC 02MD 02MO 02MC 02RD 02RO	1	0	0.735834121704	501.0	-123.0	333	-41	0
2.7	2015_Jun_03_1103	s	s	18	3	SIC	122	RC	2	1	02VD 09VO 02VC 02MD 02MO 02MC 02RD 02RO	1	0	1.74162507057	-281.0	223.0	-367	378	0
2.7	2015_Jun_03_1103	s	s	18	3	SIC	123	RC	1	1	02VD 02VO 02VC 02MD 09MO 02MC 02RD 02RO	1	0	0.595013856888	-205.0	-348.0	-129	45	0
2.7	2015_Jun_03_1103	s	s	18	3	SIC	124	ABS	0	1	02VD 02VO 02VC 02MD 02MO 02MC 02RD 10RO	1	0	2.00717592239	None	None	517	-286	0
2.7	2015_Jun_03_1103	s	s	18	3	SIC	125	ABS	1	1	02VD 02VO 02VC 02MD 10MO 02MC 02RD 02RO	1	0	1.74148488045	None	None	-470	381	0
2.7	2015_Jun_03_1103	s	s	18	3	SIC	126	ABS	1	0	02VD 02VO 02VC 02MD 02MO 10MC 02RD 02RO	1	0	0.552664995193	None	None	-447	85	0
2.7	2015_Jun_03_1103	s	s	18	3	SIC	127	RC	1	0	02VD 02VO 02VC 02MD 02MO 09MC 02RD 02RO	1	0	0.575963973999	119.0	52.0	-285	169	0
2.7	2015_Jun_03_1103	s	s	18	3	SIC	128	ABS	2	0	02VD 02VO 10VC 02MD 02MO 02MC 02RD 02RO	1	0	0.523687839508	None	None	-158	145	0
2.7	2015_Jun_03_1103	s	s	18	3	SIC	129	RC	2	0	02VD 02VO 09VC 02MD 02MO 02MC 02RD 02RO	1	0	0.865238189697	178.0	72.0	184	69	1
2.7	2015_Jun_03_1103	s	s	18	3	SIC	130	ABS	2	1	02VD 10VO 02VC 02MD 02MO 02MC 02RD 02RO	1	0	0.717361927032	None	None	234	-164	0
2.7	2015_Jun_03_1103	s	s	18	3	SIC	131	ABS	1	0	02VD 02VO 02VC 02MD 02MO 10MC 02RD 02RO	1	0	0.73611998558	None	None	-89	285	0
2.7	2015_Jun_03_1103	s	s	18	3	SIC	132	ABS	2	2	10VD 02VO 02VC 02MD 02MO 02MC 02RD 02RO	1	0	1.13676404953	None	None	-89	-342	0
2.7	2015_Jun_03_1103	s	s	18	3	SIC	133	ABS	1	2	02VD 02VO 02VC 10MD 02MO 02MC 02RD 02RO	1	0	1.20027089119	None	None	-170	149	0
2.7	2015_Jun_03_1103	s	s	18	3	SIC	134	ABS	0	1	02VD 02VO 02VC 02MD 02MO 02MC 02RD 10RO	1	0	2.57418584824	None	None	-509	-294	0
2.7	2015_Jun_03_1103	s	s	18	3	SIC	135	RC	2	1	02VD 09VO 02VC 02MD 02MO 02MC 02RD 02RO	1	0	0.576102018356	63.0	-121.0	61	-124	1
2.7	2015_Jun_03_1103	s	s	18	3	SIC	136	RC	1	2	02VD 02VO 02VC 09MD 02MO 02MC 02RD 02RO	1	0	1.24737501144	367.0	359.0	-535	-147	0
2.7	2015_Jun_03_1103	s	s	18	3	SIC	137	ABS	1	1	02VD 02VO 02VC 02MD 10MO 02MC 02RD 02RO	1	0	1.36165189743	None	None	-511	-85	0
2.7	2015_Jun_03_1103	s	s	18	3	SIC	138	RC	2	2	09VD 02VO 02VC 02MD 02MO 02MC 02RD 02RO	1	0	0.865467071533	-351.0	254.0	-340	-106	0
2.7	2015_Jun_03_1103	s	s	18	3	SIC	139	RC	1	0	02VD 02VO 02VC 02MD 02MO 09MC 02RD 02RO	1	0	0.889445066452	508.0	222.0	-122	113	0
2.7	2015_Jun_03_1103	s	s	18	3	SIC	140	RC	1	1	02VD 02VO 02VC 02MD 09MO 02MC 02RD 02RO	1	0	2.16019797325	-222.0	-295.0	-218	-298	1
2.7	2015_Jun_03_1103	s	s	18	3	SIC	141	RC	0	2	02VD 02VO 02VC 02MD 02MO 02MC 09RD 02RO	1	0	1.27742099762	123.0	-259.0	131	-258	1
2.7	2015_Jun_03_1103	s	s	18	3	SIC	142	RC	0	1	02VD 02VO 02VC 02MD 02MO 02MC 02RD 09RO	1	0	1.21848106384	339.0	-389.0	369	136	0
2.7	2015_Jun_03_1103	s	s	18	3	SIC	143	ABS	2	0	02VD 02VO 10VC 02MD 02MO 02MC 02RD 02RO	1	0	2.17217707634	None	None	513	97	0
2.7	2015_Jun_03_1103	s	s	18	3	SIC	144	ABS	0	2	02VD 02VO 02VC 02MD 02MO 02MC 10RD 02RO	1	0	1.20696210861	None	None	94	390	0
2.7	2015_Jun_03_1103	s	s	18	3	SIC	145	RC	1	2	02VD 02VO 02VC 09MD 02MO 02MC 02RD 02RO	1	0	0.646728992462	481.0	-93.0	16	223	0
2.7	2015_Jun_03_1103	s	s	18	3	SIC	146	ABS	2	0	02VD 02VO 10VC 02MD 02MO 02MC 02RD 02RO	1	0	1.30586409569	None	None	275	298	0
2.7	2015_Jun_03_1103	s	s	18	3	SIC	147	ABS	0	2	02VD 02VO 02VC 02MD 02MO 02MC 10RD 02RO	1	0	0.482012987137	None	None	-55	8	0
2.7	2015_Jun_03_1103	s	s	18	3	SIC	148	ABS	1	0	02VD 02VO 02VC 02MD 02MO 10MC 02RD 02RO	1	0	0.653407096863	None	None	-118	18	0
2.7	2015_Jun_03_1103	s	s	18	3	SIC	149	RC	0	2	02VD 02VO 02VC 02MD 02MO 02MC 09RD 02RO	1	0	0.882185935974	-266.0	339.0	64	378	0
2.7	2015_Jun_03_1103	s	s	18	3	SIC	150	RC	0	1	02VD 02VO 02VC 02MD 02MO 02MC 02RD 09RO	1	0	1.04684710503	433.0	-218.0	239	241	0
2.7	2015_Jun_03_1103	s	s	18	3	SIC	151	RC	2	1	02VD 09VO 02VC 02MD 02MO 02MC 02RD 02RO	1	0	0.882043123245	145.0	289.0	146	293	1
2.7	2015_Jun_03_1103	s	s	18	3	SIC	152	RC	2	2	09VD 02VO 02VC 02MD 02MO 02MC 02RD 02RO	1	0	0.606432914734	428.0	402.0	26	-189	0
2.7	2015_Jun_03_1103	s	s	18	3	SIC	153	ABS	1	1	02VD 02VO 02VC 02MD 10MO 02MC 02RD 02RO	1	0	2.24265503883	None	None	353	364	0
2.7	2015_Jun_03_1103	s	s	18	3	SIC	154	ABS	2	1	02VD 10VO 02VC 02MD 02MO 02MC 02RD 02RO	1	0	0.587785959244	None	None	201	156	0
2.7	2015_Jun_03_1103	s	s	18	3	SIC	155	RC	1	1	02VD 02VO 02VC 02MD 09MO 02MC 02RD 02RO	1	0	1.12930107117	-15.0	-136.0	-496	320	0
2.7	2015_Jun_03_1103	s	s	18	3	SIC	156	RC	1	0	02VD 02VO 02VC 02MD 02MO 09MC 02RD 02RO	1	0	0.367858886719	-189.0	-357.0	487	286	0
2.7	2015_Jun_03_1103	s	s	18	3	SIC	157	ABS	0	1	02VD 02VO 02VC 02MD 02MO 02MC 02RD 10RO	1	0	2.64459896088	None	None	524	393	0
2.7	2015_Jun_03_1103	s	s	18	3	SIC	158	RC	2	0	02VD 02VO 09VC 02MD 02MO 02MC 02RD 02RO	1	0	1.38834500313	-312.0	374.0	-309	374	1
2.7	2015_Jun_03_1103	s	s	18	3	SIC	159	ABS	2	2	10VD 02VO 02VC 02MD 02MO 02MC 02RD 02RO	1	0	1.12596797943	None	None	-384	-171	0
2.7	2015_Jun_03_1103	s	s	18	3	SIC	160	ABS	1	2	02VD 02VO 02VC 10MD 02MO 02MC 02RD 02RO	1	0	0.526446819305	None	None	-77	171	0
2.7	2015_Jun_03_1103	s	s	18	3	SIC	161	ABS	2	1	02VD 10VO 02VC 02MD 02MO 02MC 02RD 02RO	1	0	1.21853494644	None	None	252	-199	0
2.7	2015_Jun_03_1103	s	s	18	3	SIC	162	ABS	1	2	02VD 02VO 02VC 10MD 02MO 02MC 02RD 02RO	1	0	1.13527607918	None	None	-231	212	0
2.7	2015_Jun_03_1103	s	s	18	3	SIC	163	ABS	1	0	02VD 02VO 02VC 02MD 02MO 10MC 02RD 02RO	1	0	0.679589033127	None	None	-248	317	0
2.7	2015_Jun_03_1103	s	s	18	3	SIC	164	ABS	0	1	02VD 02VO 02VC 02MD 02MO 02MC 02RD 10RO	1	0	0.759272813797	None	None	229	159	0
2.7	2015_Jun_03_1103	s	s	18	3	SIC	165	RC	0	2	02VD 02VO 02VC 02MD 02MO 02MC 09RD 02RO	1	0	1.48244905472	356.0	-169.0	-79	-230	0
2.7	2015_Jun_03_1103	s	s	18	3	SIC	166	ABS	2	2	10VD 02VO 02VC 02MD 02MO 02MC 02RD 02RO	1	0	0.597043037415	None	None	2	-163	0
2.7	2015_Jun_03_1103	s	s	18	3	SIC	167	RC	0	1	02VD 02VO 02VC 02MD 02MO 02MC 02RD 09RO	1	0	1.06394410133	-360.0	136.0	253	-28	0
2.7	2015_Jun_03_1103	s	s	18	3	SIC	168	RC	2	0	02VD 02VO 09VC 02MD 02MO 02MC 02RD 02RO	1	0	0.513818979263	117.0	200.0	15	62	0
2.7	2015_Jun_03_1103	s	s	18	3	SIC	169	RC	1	2	02VD 02VO 02VC 09MD 02MO 02MC 02RD 02RO	1	0	0.611492872238	502.0	307.0	127	202	0
2.7	2015_Jun_03_1103	s	s	18	3	SIC	170	ABS	1	1	02VD 02VO 02VC 02MD 10MO 02MC 02RD 02RO	1	0	0.599671125412	None	None	40	-110	0
2.7	2015_Jun_03_1103	s	s	18	3	SIC	171	RC	1	0	02VD 02VO 02VC 02MD 02MO 09MC 02RD 02RO	1	0	0.764337062836	-59.0	-276.0	13	-39	0
2.7	2015_Jun_03_1103	s	s	18	3	SIC	172	RC	2	2	09VD 02VO 02VC 02MD 02MO 02MC 02RD 02RO	1	0	0.815281867981	-119.0	-167.0	353	8	0
2.7	2015_Jun_03_1103	s	s	18	3	SIC	173	RC	1	1	02VD 02VO 02VC 02MD 09MO 02MC 02RD 02RO	1	0	0.729105949402	-497.0	235.0	262	318	0
2.7	2015_Jun_03_1103	s	s	18	3	SIC	174	ABS	0	2	02VD 02VO 02VC 02MD 02MO 02MC 10RD 02RO	1	0	1.06745100021	None	None	438	365	0
2.7	2015_Jun_03_1103	s	s	18	3	SIC	175	RC	2	1	02VD 09VO 02VC 02MD 02MO 02MC 02RD 02RO	1	0	1.2419719696	23.0	357.0	15	355	1
2.7	2015_Jun_03_1103	s	s	18	3	SIC	176	ABS	2	0	02VD 02VO 10VC 02MD 02MO 02MC 02RD 02RO	1	0	0.723286151886	None	None	-389	214	0
2.7	2015_Jun_03_1103	s	s	18	3	SIC	177	RC	1	2	02VD 02VO 02VC 09MD 02MO 02MC 02RD 02RO	1	0	0.936079025269	-103.0	-73.0	-242	241	0
2.7	2015_Jun_03_1103	s	s	18	3	SIC	178	ABS	0	1	02VD 02VO 02VC 02MD 02MO 02MC 02RD 10RO	1	0	4.70423221588	None	None	524	48	0
2.7	2015_Jun_03_1103	s	s	18	3	SIC	179	RC	1	0	02VD 02VO 02VC 02MD 02MO 09MC 02RD 02RO	1	0	0.929275989532	-167.0	-315.0	116	370	0
2.7	2015_Jun_03_1103	s	s	18	3	SIC	180	ABS	0	2	02VD 02VO 02VC 02MD 02MO 02MC 10RD 02RO	1	0	1.05426287651	None	None	489	400	0
2.7	2015_Jun_03_1103	s	s	18	3	SIC	181	ABS	1	2	02VD 02VO 02VC 10MD 02MO 02MC 02RD 02RO	1	0	2.75116991997	None	None	533	21	0
2.7	2015_Jun_03_1103	s	s	18	3	SIC	182	ABS	2	2	10VD 02VO 02VC 02MD 02MO 02MC 02RD 02RO	1	0	1.51797318459	None	None	-256	200	0
2.7	2015_Jun_03_1103	s	s	18	3	SIC	183	RC	1	1	02VD 02VO 02VC 02MD 09MO 02MC 02RD 02RO	1	0	0.985154151917	32.0	296.0	-272	341	0
2.7	2015_Jun_03_1103	s	s	18	3	SIC	184	RC	2	0	02VD 02VO 09VC 02MD 02MO 02MC 02RD 02RO	1	0	0.971596956253	-6.0	-266.0	-293	199	0
2.7	2015_Jun_03_1103	s	s	18	3	SIC	185	ABS	2	0	02VD 02VO 10VC 02MD 02MO 02MC 02RD 02RO	1	0	0.592744827271	None	None	153	241	0
2.7	2015_Jun_03_1103	s	s	18	3	SIC	186	RC	0	1	02VD 02VO 02VC 02MD 02MO 02MC 02RD 09RO	1	0	1.02121090889	343.0	-171.0	-97	387	0
2.7	2015_Jun_03_1103	s	s	18	3	SIC	187	ABS	1	0	02VD 02VO 02VC 02MD 02MO 10MC 02RD 02RO	1	0	1.28602695465	None	None	213	253	0
2.7	2015_Jun_03_1103	s	s	18	3	SIC	188	ABS	1	1	02VD 02VO 02VC 02MD 10MO 02MC 02RD 02RO	1	0	0.667885065079	None	None	75	-132	0
2.7	2015_Jun_03_1103	s	s	18	3	SIC	189	RC	2	2	09VD 02VO 02VC 02MD 02MO 02MC 02RD 02RO	1	0	1.29415893555	18.0	-107.0	232	175	0
2.7	2015_Jun_03_1103	s	s	18	3	SIC	190	ABS	2	1	02VD 10VO 02VC 02MD 02MO 02MC 02RD 02RO	1	0	2.69215917587	None	None	-512	-106	0
2.7	2015_Jun_03_1103	s	s	18	3	SIC	191	RC	0	2	02VD 02VO 02VC 02MD 02MO 02MC 09RD 02RO	1	0	0.587971925735	-475.0	182.0	-49	67	0
2.7	2015_Jun_03_1103	s	s	18	3	SIC	192	RC	2	1	02VD 09VO 02VC 02MD 02MO 02MC 02RD 02RO	1	0	0.752665042877	-255.0	-334.0	125	235	0
2.7	2015_Jun_03_1103	s	s	18	3	SIC	193	RC	1	2	02VD 02VO 02VC 09MD 02MO 02MC 02RD 02RO	1	0	1.24164891243	168.0	-310.0	249	300	0
2.7	2015_Jun_03_1103	s	s	18	3	SIC	194	RC	2	1	02VD 09VO 02VC 02MD 02MO 02MC 02RD 02RO	1	0	1.00003504753	-86.0	324.0	-84	320	1
2.7	2015_Jun_03_1103	s	s	18	3	SIC	195	ABS	2	2	10VD 02VO 02VC 02MD 02MO 02MC 02RD 02RO	1	0	1.14098095894	None	None	376	-23	0
2.7	2015_Jun_03_1103	s	s	18	3	SIC	196	ABS	0	2	02VD 02VO 02VC 02MD 02MO 02MC 10RD 02RO	1	0	0.968219041824	None	None	323	146	0
2.7	2015_Jun_03_1103	s	s	18	3	SIC	197	RC	1	0	02VD 02VO 02VC 02MD 02MO 09MC 02RD 02RO	1	0	0.608684062958	-57.0	393.0	35	106	0
2.7	2015_Jun_03_1103	s	s	18	3	SIC	198	ABS	1	2	02VD 02VO 02VC 10MD 02MO 02MC 02RD 02RO	1	0	0.903142929077	None	None	-104	-51	0
2.7	2015_Jun_03_1103	s	s	18	3	SIC	199	RC	0	1	02VD 02VO 02VC 02MD 02MO 02MC 02RD 09RO	1	0	0.879599094391	321.0	-246.0	10	155	0
2.7	2015_Jun_03_1103	s	s	18	3	SIC	200	RC	2	0	02VD 02VO 09VC 02MD 02MO 02MC 02RD 02RO	1	0	0.771332025528	-218.0	-73.0	-441	251	0
2.7	2015_Jun_03_1103	s	s	18	3	SIC	201	ABS	1	0	02VD 02VO 02VC 02MD 02MO 10MC 02RD 02RO	1	0	0.512148857117	None	None	-189	359	0
2.7	2015_Jun_03_1103	s	s	18	3	SIC	202	RC	0	2	02VD 02VO 02VC 02MD 02MO 02MC 09RD 02RO	1	0	0.646610975266	383.0	191.0	389	200	1
2.7	2015_Jun_03_1103	s	s	18	3	SIC	203	RC	2	2	09VD 02VO 02VC 02MD 02MO 02MC 02RD 02RO	1	0	0.473839998245	459.0	-60.0	469	-61	1
2.7	2015_Jun_03_1103	s	s	18	3	SIC	204	ABS	1	1	02VD 02VO 02VC 02MD 10MO 02MC 02RD 02RO	1	0	0.729122161865	None	None	455	-42	0
2.7	2015_Jun_03_1103	s	s	18	3	SIC	205	ABS	2	1	02VD 10VO 02VC 02MD 02MO 02MC 02RD 02RO	1	0	0.552443027496	None	None	175	116	0
2.7	2015_Jun_03_1103	s	s	18	3	SIC	206	RC	1	1	02VD 02VO 02VC 02MD 09MO 02MC 02RD 02RO	1	0	0.375994920731	277.0	90.0	279	92	1
2.7	2015_Jun_03_1103	s	s	18	3	SIC	207	ABS	2	0	02VD 02VO 10VC 02MD 02MO 02MC 02RD 02RO	1	0	0.664485931396	None	None	-114	235	0
2.7	2015_Jun_03_1103	s	s	18	3	SIC	208	ABS	0	1	02VD 02VO 02VC 02MD 02MO 02MC 02RD 10RO	1	0	0.57631611824	None	None	136	111	0
2.7	2015_Jun_03_1103	s	s	18	3	SIC	209	RC	1	1	02VD 02VO 02VC 02MD 09MO 02MC 02RD 02RO	1	0	0.404478788376	-135.0	-72.0	42	58	0
2.7	2015_Jun_03_1103	s	s	18	3	SIC	210	ABS	1	2	02VD 02VO 02VC 10MD 02MO 02MC 02RD 02RO	1	0	0.418339967728	None	None	236	181	0
2.7	2015_Jun_03_1103	s	s	18	3	SIC	211	ABS	0	2	02VD 02VO 02VC 02MD 02MO 02MC 10RD 02RO	1	0	0.399329900742	None	None	222	-290	0
2.7	2015_Jun_03_1103	s	s	18	3	SIC	212	RC	2	2	09VD 02VO 02VC 02MD 02MO 02MC 02RD 02RO	1	0	0.384471893311	-495.0	254.0	-329	274	0
2.7	2015_Jun_03_1103	s	s	18	3	SIC	213	RC	2	1	02VD 09VO 02VC 02MD 02MO 02MC 02RD 02RO	1	0	0.623290061951	-302.0	354.0	-312	353	1
2.7	2015_Jun_03_1103	s	s	18	3	SIC	214	RC	2	0	02VD 02VO 09VC 02MD 02MO 02MC 02RD 02RO	1	0	0.552617073059	-539.0	-9.0	365	286	0
2.7	2015_Jun_03_1103	s	s	18	3	SIC	215	ABS	1	0	02VD 02VO 02VC 02MD 02MO 10MC 02RD 02RO	1	0	0.441612005234	None	None	216	184	0
2.7	2015_Jun_03_1103	s	s	18	3	SIC	216	ABS	2	1	02VD 10VO 02VC 02MD 02MO 02MC 02RD 02RO	1	0	0.682062864304	None	None	72	-322	0
2.7	2015_Jun_03_1103	s	s	18	3	SIC	217	RC	1	2	02VD 02VO 02VC 09MD 02MO 02MC 02RD 02RO	1	0	0.611453056335	225.0	58.0	225	56	1
2.7	2015_Jun_03_1103	s	s	18	3	SIC	218	ABS	2	2	10VD 02VO 02VC 02MD 02MO 02MC 02RD 02RO	1	0	0.490348815918	None	None	154	-307	0
2.7	2015_Jun_03_1103	s	s	18	3	SIC	219	ABS	2	0	02VD 02VO 10VC 02MD 02MO 02MC 02RD 02RO	1	0	0.642072200775	None	None	123	278	0
2.7	2015_Jun_03_1103	s	s	18	3	SIC	220	ABS	0	1	02VD 02VO 02VC 02MD 02MO 02MC 02RD 10RO	1	0	1.01990485191	None	None	246	283	0
2.7	2015_Jun_03_1103	s	s	18	3	SIC	221	RC	0	1	02VD 02VO 02VC 02MD 02MO 02MC 02RD 09RO	1	0	0.570775985718	95.0	250.0	90	247	1
2.7	2015_Jun_03_1103	s	s	18	3	SIC	222	RC	0	2	02VD 02VO 02VC 02MD 02MO 02MC 09RD 02RO	1	0	0.823745012283	297.0	-55.0	58	84	0
2.7	2015_Jun_03_1103	s	s	18	3	SIC	223	RC	1	0	02VD 02VO 02VC 02MD 02MO 09MC 02RD 02RO	1	0	0.693731069565	313.0	104.0	307	101	1
2.7	2015_Jun_03_1103	s	s	18	3	SIC	224	ABS	1	1	02VD 02VO 02VC 02MD 10MO 02MC 02RD 02RO	1	0	1.30303382874	None	None	-538	27	0
2.7	2015_Jun_03_1103	s	s	18	3	SIC	225	RC	1	0	02VD 02VO 02VC 02MD 02MO 09MC 02RD 02RO	1	0	0.676430940628	522.0	15.0	-252	386	0
2.7	2015_Jun_03_1103	s	s	18	3	SIC	226	ABS	2	2	10VD 02VO 02VC 02MD 02MO 02MC 02RD 02RO	1	0	1.13563084602	None	None	-228	-150	0
2.7	2015_Jun_03_1103	s	s	18	3	SIC	227	RC	1	1	02VD 02VO 02VC 02MD 09MO 02MC 02RD 02RO	1	0	0.529012918472	-44.0	85.0	-44	84	1
2.7	2015_Jun_03_1103	s	s	18	3	SIC	228	RC	0	2	02VD 02VO 02VC 02MD 02MO 02MC 09RD 02RO	1	0	0.655803918839	517.0	-49.0	-158	-132	0
2.7	2015_Jun_03_1103	s	s	18	3	SIC	229	RC	2	1	02VD 09VO 02VC 02MD 02MO 02MC 02RD 02RO	1	0	1.70621204376	-471.0	317.0	-479	313	1
2.7	2015_Jun_03_1103	s	s	18	3	SIC	230	ABS	1	1	02VD 02VO 02VC 02MD 10MO 02MC 02RD 02RO	1	0	0.952840089798	None	None	-70	122	0
2.7	2015_Jun_03_1103	s	s	18	3	SIC	231	ABS	2	0	02VD 02VO 10VC 02MD 02MO 02MC 02RD 02RO	1	0	0.609091043472	None	None	-11	147	0
2.7	2015_Jun_03_1103	s	s	18	3	SIC	232	ABS	0	2	02VD 02VO 02VC 02MD 02MO 02MC 10RD 02RO	1	0	1.54130387306	None	None	-316	-253	0
2.7	2015_Jun_03_1103	s	s	18	3	SIC	233	ABS	2	1	02VD 10VO 02VC 02MD 02MO 02MC 02RD 02RO	1	0	1.45421600342	None	None	389	215	0
2.7	2015_Jun_03_1103	s	s	18	3	SIC	234	ABS	1	2	02VD 02VO 02VC 10MD 02MO 02MC 02RD 02RO	1	0	0.858676195145	None	None	142	236	0
2.7	2015_Jun_03_1103	s	s	18	3	SIC	235	RC	2	2	09VD 02VO 02VC 02MD 02MO 02MC 02RD 02RO	1	0	0.535443067551	55.0	107.0	56	108	1
2.7	2015_Jun_03_1103	s	s	18	3	SIC	236	RC	1	2	02VD 02VO 02VC 09MD 02MO 02MC 02RD 02RO	1	0	0.997313022614	390.0	-129.0	-516	26	0
2.7	2015_Jun_03_1103	s	s	18	3	SIC	237	ABS	0	1	02VD 02VO 02VC 02MD 02MO 02MC 02RD 10RO	1	0	1.0468609333	None	None	225	-140	0
2.7	2015_Jun_03_1103	s	s	18	3	SIC	238	ABS	1	0	02VD 02VO 02VC 02MD 02MO 10MC 02RD 02RO	1	0	0.735618114471	None	None	-11	80	0
2.7	2015_Jun_03_1103	s	s	18	3	SIC	239	RC	0	1	02VD 02VO 02VC 02MD 02MO 02MC 02RD 09RO	1	0	0.564169883728	38.0	50.0	42	45	1
2.7	2015_Jun_03_1103	s	s	18	3	SIC	240	RC	2	0	02VD 02VO 09VC 02MD 02MO 02MC 02RD 02RO	1	0	0.761751174927	-394.0	101.0	258	-22	0
2.7	2015_Jun_03_1103	s	s	18	3	SIC	241	ABS	2	0	02VD 02VO 10VC 02MD 02MO 02MC 02RD 02RO	1	0	0.96502494812	None	None	-420	-131	0
2.7	2015_Jun_03_1103	s	s	18	3	SIC	242	RC	2	2	09VD 02VO 02VC 02MD 02MO 02MC 02RD 02RO	1	0	0.681959867477	380.0	-340.0	-5	241	0
2.7	2015_Jun_03_1103	s	s	18	3	SIC	243	RC	1	1	02VD 02VO 02VC 02MD 09MO 02MC 02RD 02RO	1	0	0.559260129929	224.0	268.0	217	270	1
2.7	2015_Jun_03_1103	s	s	18	3	SIC	244	ABS	1	2	02VD 02VO 02VC 10MD 02MO 02MC 02RD 02RO	1	0	0.703022956848	None	None	92	2	0
2.7	2015_Jun_03_1103	s	s	18	3	SIC	245	RC	2	1	02VD 09VO 02VC 02MD 02MO 02MC 02RD 02RO	1	0	0.682070016861	388.0	-87.0	-344	393	0
2.7	2015_Jun_03_1103	s	s	18	3	SIC	246	ABS	0	2	02VD 02VO 02VC 02MD 02MO 02MC 10RD 02RO	1	0	0.478694915771	None	None	70	250	0
2.7	2015_Jun_03_1103	s	s	18	3	SIC	247	ABS	1	0	02VD 02VO 02VC 02MD 02MO 10MC 02RD 02RO	1	0	0.524353981018	None	None	18	9	0
2.7	2015_Jun_03_1103	s	s	18	3	SIC	248	RC	0	2	02VD 02VO 02VC 02MD 02MO 02MC 09RD 02RO	1	0	0.693792104721	-215.0	-356.0	14	-180	0
2.7	2015_Jun_03_1103	s	s	18	3	SIC	249	ABS	1	1	02VD 02VO 02VC 02MD 10MO 02MC 02RD 02RO	1	0	1.55305600166	None	None	235	-104	0
2.7	2015_Jun_03_1103	s	s	18	3	SIC	250	RC	1	0	02VD 02VO 02VC 02MD 02MO 09MC 02RD 02RO	1	0	0.490751028061	157.0	-237.0	87	-66	0
2.7	2015_Jun_03_1103	s	s	18	3	SIC	251	RC	1	2	02VD 02VO 02VC 09MD 02MO 02MC 02RD 02RO	1	0	0.717315912247	158.0	218.0	-25	191	0
2.7	2015_Jun_03_1103	s	s	18	3	SIC	252	ABS	2	1	02VD 10VO 02VC 02MD 02MO 02MC 02RD 02RO	1	0	1.46818590164	None	None	369	-272	0
2.7	2015_Jun_03_1103	s	s	18	3	SIC	253	RC	0	1	02VD 02VO 02VC 02MD 02MO 02MC 02RD 09RO	1	0	0.458436012268	257.0	165.0	255	159	1
2.7	2015_Jun_03_1103	s	s	18	3	SIC	254	ABS	0	1	02VD 02VO 02VC 02MD 02MO 02MC 02RD 10RO	1	0	0.794167995453	None	None	-74	195	0
2.7	2015_Jun_03_1103	s	s	18	3	SIC	255	ABS	2	2	10VD 02VO 02VC 02MD 02MO 02MC 02RD 02RO	1	0	1.29413318634	None	None	-89	-318	0
2.7	2015_Jun_03_1103	s	s	18	3	SIC	256	RC	2	0	02VD 02VO 09VC 02MD 02MO 02MC 02RD 02RO	1	0	0.712755203247	-519.0	-369.0	-175	107	0
2.7	2015_Jun_03_1103	s	s	18	3	SIC	257	RC	0	2	02VD 02VO 02VC 02MD 02MO 02MC 09RD 02RO	1	0	0.744700908661	-187.0	74.0	-188	77	1
2.7	2015_Jun_03_1103	s	s	18	3	SIC	258	ABS	0	2	02VD 02VO 02VC 02MD 02MO 02MC 10RD 02RO	1	0	0.823307991028	None	None	314	197	0
2.7	2015_Jun_03_1103	s	s	18	3	SIC	259	ABS	2	1	02VD 10VO 02VC 02MD 02MO 02MC 02RD 02RO	1	0	0.752683877945	None	None	70	-124	0
2.7	2015_Jun_03_1103	s	s	18	3	SIC	260	ABS	1	1	02VD 02VO 02VC 02MD 10MO 02MC 02RD 02RO	1	0	0.829260826111	None	None	-388	245	0
2.7	2015_Jun_03_1103	s	s	18	3	SIC	261	RC	2	2	09VD 02VO 02VC 02MD 02MO 02MC 02RD 02RO	1	0	0.557990074158	320.0	72.0	-176	171	0
2.7	2015_Jun_03_1103	s	s	18	3	SIC	262	RC	2	1	02VD 09VO 02VC 02MD 02MO 02MC 02RD 02RO	1	0	1.51377820969	489.0	-408.0	-283	-87	0
2.7	2015_Jun_03_1103	s	s	18	3	SIC	263	RC	2	0	02VD 02VO 09VC 02MD 02MO 02MC 02RD 02RO	1	0	0.959464073181	130.0	-238.0	-18	176	0
2.7	2015_Jun_03_1103	s	s	18	3	SIC	264	ABS	2	2	10VD 02VO 02VC 02MD 02MO 02MC 02RD 02RO	1	0	1.46626210213	None	None	-46	-312	0
2.7	2015_Jun_03_1103	s	s	18	3	SIC	265	ABS	1	2	02VD 02VO 02VC 10MD 02MO 02MC 02RD 02RO	1	0	1.13550209999	None	None	86	377	0
2.7	2015_Jun_03_1103	s	s	18	3	SIC	266	RC	1	1	02VD 02VO 02VC 02MD 09MO 02MC 02RD 02RO	1	0	0.917455196381	-512.0	-365.0	-170	3	0
2.7	2015_Jun_03_1103	s	s	18	3	SIC	267	ABS	0	1	02VD 02VO 02VC 02MD 02MO 02MC 02RD 10RO	1	0	0.549293994904	None	None	24	13	0
2.7	2015_Jun_03_1103	s	s	18	3	SIC	268	RC	1	2	02VD 02VO 02VC 09MD 02MO 02MC 02RD 02RO	1	0	0.912205934525	491.0	188.0	-374	33	0
2.7	2015_Jun_03_1103	s	s	18	3	SIC	269	RC	1	0	02VD 02VO 02VC 02MD 02MO 09MC 02RD 02RO	1	0	0.676930904388	-156.0	325.0	30	-50	0
2.7	2015_Jun_03_1103	s	s	18	3	SIC	270	ABS	2	0	02VD 02VO 10VC 02MD 02MO 02MC 02RD 02RO	1	0	2.04363179207	None	None	252	69	0
2.7	2015_Jun_03_1103	s	s	18	3	SIC	271	ABS	1	0	02VD 02VO 02VC 02MD 02MO 10MC 02RD 02RO	1	0	1.05619907379	None	None	104	83	0
2.7	2015_Jun_03_1103	s	s	18	3	SIC	272	RC	0	1	02VD 02VO 02VC 02MD 02MO 02MC 02RD 09RO	1	0	0.917861938477	-177.0	217.0	-178	226	1
2.7	2015_Jun_03_1103	s	s	18	3	SIC	273	ABS	1	2	02VD 02VO 02VC 10MD 02MO 02MC 02RD 02RO	1	0	0.514704942703	None	None	99	16	0
2.7	2015_Jun_03_1103	s	s	18	3	SIC	274	RC	2	1	02VD 09VO 02VC 02MD 02MO 02MC 02RD 02RO	1	0	0.690356969833	-519.0	-144.0	188	378	0
2.7	2015_Jun_03_1103	s	s	18	3	SIC	275	RC	2	2	09VD 02VO 02VC 02MD 02MO 02MC 02RD 02RO	1	0	1.08597278595	-231.0	144.0	-226	148	1
2.7	2015_Jun_03_1103	s	s	18	3	SIC	276	ABS	2	1	02VD 10VO 02VC 02MD 02MO 02MC 02RD 02RO	1	0	1.2587890625	None	None	-361	9	0
2.7	2015_Jun_03_1103	s	s	18	3	SIC	277	ABS	1	1	02VD 02VO 02VC 02MD 10MO 02MC 02RD 02RO	1	0	3.17732405663	None	None	-285	-200	0
2.7	2015_Jun_03_1103	s	s	18	3	SIC	278	RC	0	1	02VD 02VO 02VC 02MD 02MO 02MC 02RD 09RO	1	0	0.642348051071	-88.0	102.0	-83	98	1
2.7	2015_Jun_03_1103	s	s	18	3	SIC	279	ABS	2	0	02VD 02VO 10VC 02MD 02MO 02MC 02RD 02RO	1	0	1.03519105911	None	None	-439	229	0
2.7	2015_Jun_03_1103	s	s	18	3	SIC	280	ABS	2	2	10VD 02VO 02VC 02MD 02MO 02MC 02RD 02RO	1	0	1.3363711834	None	None	-30	-407	0
2.7	2015_Jun_03_1103	s	s	18	3	SIC	281	RC	1	1	02VD 02VO 02VC 02MD 09MO 02MC 02RD 02RO	1	0	1.05240988731	70.0	176.0	64	170	1
2.7	2015_Jun_03_1103	s	s	18	3	SIC	282	RC	2	0	02VD 02VO 09VC 02MD 02MO 02MC 02RD 02RO	1	0	0.596463918686	66.0	-6.0	64	-6	1
2.7	2015_Jun_03_1103	s	s	18	3	SIC	283	RC	1	2	02VD 02VO 02VC 09MD 02MO 02MC 02RD 02RO	1	0	0.607183933258	-135.0	388.0	-32	25	0
2.7	2015_Jun_03_1103	s	s	18	3	SIC	284	ABS	0	2	02VD 02VO 02VC 02MD 02MO 02MC 10RD 02RO	1	0	0.906039953232	None	None	-332	127	0
2.7	2015_Jun_03_1103	s	s	18	3	SIC	285	RC	0	2	02VD 02VO 02VC 02MD 02MO 02MC 09RD 02RO	1	0	1.3261449337	251.0	-47.0	247	-47	1
2.7	2015_Jun_03_1103	s	s	18	3	SIC	286	RC	1	0	02VD 02VO 02VC 02MD 02MO 09MC 02RD 02RO	1	0	0.524489879608	-461.0	254.0	-48	84	0
2.7	2015_Jun_03_1103	s	s	18	3	SIC	287	ABS	1	0	02VD 02VO 02VC 02MD 02MO 10MC 02RD 02RO	1	0	0.735208034515	None	None	-93	186	0
2.7	2015_Jun_03_1103	s	s	18	3	SIC	288	ABS	0	1	02VD 02VO 02VC 02MD 02MO 02MC 02RD 10RO	1	0	0.96457695961	None	None	181	403	0
2.7	2015_Jun_03_1103	s	s	18	3	SIC	289	RC	0	1	02VD 02VO 02VC 02MD 02MO 02MC 02RD 09RO	1	0	1.08750009537	-390.0	329.0	-402	331	1
2.7	2015_Jun_03_1103	s	s	18	3	SIC	290	RC	1	0	02VD 02VO 02VC 02MD 02MO 09MC 02RD 02RO	1	0	0.670305967331	417.0	-342.0	-236	278	0
2.7	2015_Jun_03_1103	s	s	18	3	SIC	291	ABS	2	1	02VD 10VO 02VC 02MD 02MO 02MC 02RD 02RO	1	0	1.97110891342	None	None	-199	-405	0
2.7	2015_Jun_03_1103	s	s	18	3	SIC	292	RC	2	2	09VD 02VO 02VC 02MD 02MO 02MC 02RD 02RO	1	0	0.678552150726	225.0	171.0	219	172	1
2.7	2015_Jun_03_1103	s	s	18	3	SIC	293	ABS	2	2	10VD 02VO 02VC 02MD 02MO 02MC 02RD 02RO	1	0	0.552581071854	None	None	160	40	0
2.7	2015_Jun_03_1103	s	s	18	3	SIC	294	ABS	1	2	02VD 02VO 02VC 10MD 02MO 02MC 02RD 02RO	1	0	1.03506302834	None	None	180	219	0
2.7	2015_Jun_03_1103	s	s	18	3	SIC	295	RC	2	1	02VD 09VO 02VC 02MD 02MO 02MC 02RD 02RO	1	0	0.488739013672	-97.0	130.0	-101	124	1
2.7	2015_Jun_03_1103	s	s	18	3	SIC	296	ABS	1	1	02VD 02VO 02VC 02MD 10MO 02MC 02RD 02RO	1	0	1.48247909546	None	None	-530	261	0
2.7	2015_Jun_03_1103	s	s	18	3	SIC	297	RC	1	1	02VD 02VO 02VC 02MD 09MO 02MC 02RD 02RO	1	0	0.7525370121	288.0	-408.0	28	203	0
2.7	2015_Jun_03_1103	s	s	18	3	SIC	298	RC	0	2	02VD 02VO 02VC 02MD 02MO 02MC 09RD 02RO	1	0	0.700692176819	-42.0	-377.0	265	337	0
2.7	2015_Jun_03_1103	s	s	18	3	SIC	299	ABS	2	0	02VD 02VO 10VC 02MD 02MO 02MC 02RD 02RO	1	0	0.599622011185	None	None	-213	95	0
2.7	2015_Jun_03_1103	s	s	18	3	SIC	300	ABS	0	1	02VD 02VO 02VC 02MD 02MO 02MC 02RD 10RO	1	0	0.729037046432	None	None	-203	328	0
2.7	2015_Jun_03_1103	s	s	18	3	SIC	301	RC	2	0	02VD 02VO 09VC 02MD 02MO 02MC 02RD 02RO	1	0	1.15276408195	368.0	-391.0	-476	-178	0
2.7	2015_Jun_03_1103	s	s	18	3	SIC	302	ABS	1	0	02VD 02VO 02VC 02MD 02MO 10MC 02RD 02RO	1	0	0.997138023376	None	None	-179	-127	0
2.7	2015_Jun_03_1103	s	s	18	3	SIC	303	ABS	0	2	02VD 02VO 02VC 02MD 02MO 02MC 10RD 02RO	1	0	0.572938919067	None	None	-386	-67	0
2.7	2015_Jun_03_1103	s	s	18	3	SIC	304	RC	1	2	02VD 02VO 02VC 09MD 02MO 02MC 02RD 02RO	1	0	0.665616035461	500.0	-396.0	193	348	0
2.7	2015_Jun_03_1103	s	s	18	3	SIC	305	RC	2	1	02VD 09VO 02VC 02MD 02MO 02MC 02RD 02RO	1	0	0.714828968048	111.0	-410.0	-297	37	0
2.7	2015_Jun_03_1103	s	s	18	3	SIC	306	ABS	2	0	02VD 02VO 10VC 02MD 02MO 02MC 02RD 02RO	1	0	0.999819993973	None	None	-352	-27	0
2.7	2015_Jun_03_1103	s	s	18	3	SIC	307	RC	1	0	02VD 02VO 02VC 02MD 02MO 09MC 02RD 02RO	1	0	0.682395935059	-88.0	221.0	127	93	0
2.7	2015_Jun_03_1103	s	s	18	3	SIC	308	ABS	1	1	02VD 02VO 02VC 02MD 10MO 02MC 02RD 02RO	1	0	0.59962105751	None	None	116	282	0
2.7	2015_Jun_03_1103	s	s	18	3	SIC	309	ABS	0	2	02VD 02VO 02VC 02MD 02MO 02MC 10RD 02RO	1	0	0.358658075333	None	None	127	247	0
2.7	2015_Jun_03_1103	s	s	18	3	SIC	310	ABS	0	1	02VD 02VO 02VC 02MD 02MO 02MC 02RD 10RO	1	0	0.776217937469	None	None	-17	370	0
2.7	2015_Jun_03_1103	s	s	18	3	SIC	311	RC	1	2	02VD 02VO 02VC 09MD 02MO 02MC 02RD 02RO	1	0	0.399560928345	-145.0	250.0	-139	248	1
2.7	2015_Jun_03_1103	s	s	18	3	SIC	312	RC	1	1	02VD 02VO 02VC 02MD 09MO 02MC 02RD 02RO	1	0	0.587963104248	-58.0	355.0	-56	357	1
2.7	2015_Jun_03_1103	s	s	18	3	SIC	313	ABS	1	0	02VD 02VO 02VC 02MD 02MO 10MC 02RD 02RO	1	0	0.570561170578	None	None	146	239	0
2.7	2015_Jun_03_1103	s	s	18	3	SIC	314	ABS	2	1	02VD 10VO 02VC 02MD 02MO 02MC 02RD 02RO	1	0	0.552510976791	None	None	-159	-59	0
2.7	2015_Jun_03_1103	s	s	18	3	SIC	315	RC	2	0	02VD 02VO 09VC 02MD 02MO 02MC 02RD 02RO	1	0	0.584327936172	-135.0	-120.0	-138	-124	1
2.7	2015_Jun_03_1103	s	s	18	3	SIC	316	RC	0	2	02VD 02VO 02VC 02MD 02MO 02MC 09RD 02RO	1	0	0.564338922501	-147.0	21.0	-136	22	1
2.7	2015_Jun_03_1103	s	s	18	3	SIC	317	ABS	2	2	10VD 02VO 02VC 02MD 02MO 02MC 02RD 02RO	1	0	0.479642868042	None	None	-155	196	0
2.7	2015_Jun_03_1103	s	s	18	3	SIC	318	ABS	1	2	02VD 02VO 02VC 10MD 02MO 02MC 02RD 02RO	1	0	0.371907949448	None	None	-211	4	0
2.7	2015_Jun_03_1103	s	s	18	3	SIC	319	RC	0	1	02VD 02VO 02VC 02MD 02MO 02MC 02RD 09RO	1	0	0.375970840454	-416.0	-363.0	-311	-170	0
2.7	2015_Jun_03_1103	s	s	18	3	SIC	320	RC	2	2	09VD 02VO 02VC 02MD 02MO 02MC 02RD 02RO	1	0	0.395141124725	-173.0	188.0	-181	187	1
2.7	2015_Jun_03_1103	s	s	18	3	SIC	321	ABS	1	1	02VD 02VO 02VC 02MD 10MO 02MC 02RD 02RO	1	0	0.741009950638	None	None	-236	147	0
2.7	2015_Jun_03_1103	s	s	18	3	SIC	322	RC	2	0	02VD 02VO 09VC 02MD 02MO 02MC 02RD 02RO	1	0	1.253718853	-153.0	-204.0	-141	-196	1
2.7	2015_Jun_03_1103	s	s	18	3	SIC	323	RC	1	2	02VD 02VO 02VC 09MD 02MO 02MC 02RD 02RO	1	0	0.644117116928	-133.0	394.0	-81	-315	0
2.7	2015_Jun_03_1103	s	s	18	3	SIC	324	RC	0	2	02VD 02VO 02VC 02MD 02MO 02MC 09RD 02RO	1	0	0.514844894409	-151.0	-288.0	-146	-284	1
2.7	2015_Jun_03_1103	s	s	18	3	SIC	325	ABS	0	1	02VD 02VO 02VC 02MD 02MO 02MC 02RD 10RO	1	0	1.17623400688	None	None	-224	-155	0
2.7	2015_Jun_03_1103	s	s	18	3	SIC	326	ABS	1	2	02VD 02VO 02VC 10MD 02MO 02MC 02RD 02RO	1	0	1.33868598938	None	None	-124	-305	0
2.7	2015_Jun_03_1103	s	s	18	3	SIC	327	RC	0	1	02VD 02VO 02VC 02MD 02MO 02MC 02RD 09RO	1	0	0.703052043915	95.0	-297.0	90	-302	1
2.7	2015_Jun_03_1103	s	s	18	3	SIC	328	RC	2	2	09VD 02VO 02VC 02MD 02MO 02MC 02RD 02RO	1	0	0.558887004852	-16.0	-355.0	61	14	0
2.7	2015_Jun_03_1103	s	s	18	3	SIC	329	RC	1	0	02VD 02VO 02VC 02MD 02MO 09MC 02RD 02RO	1	0	0.66588306427	372.0	-219.0	83	-43	0
2.7	2015_Jun_03_1103	s	s	18	3	SIC	330	RC	2	1	02VD 09VO 02VC 02MD 02MO 02MC 02RD 02RO	1	0	0.800620079041	-218.0	-199.0	-220	-207	1
2.7	2015_Jun_03_1103	s	s	18	3	SIC	331	ABS	2	2	10VD 02VO 02VC 02MD 02MO 02MC 02RD 02RO	1	0	0.523156166077	None	None	213	-106	0
2.7	2015_Jun_03_1103	s	s	18	3	SIC	332	ABS	2	1	02VD 10VO 02VC 02MD 02MO 02MC 02RD 02RO	1	0	1.05876088142	None	None	-386	-218	0
2.7	2015_Jun_03_1103	s	s	18	3	SIC	333	ABS	0	2	02VD 02VO 02VC 02MD 02MO 02MC 10RD 02RO	1	0	1.4325261116	None	None	305	120	0
2.7	2015_Jun_03_1103	s	s	18	3	SIC	334	ABS	2	0	02VD 02VO 10VC 02MD 02MO 02MC 02RD 02RO	1	0	0.642112970352	None	None	-71	20	0
2.7	2015_Jun_03_1103	s	s	18	3	SIC	335	RC	1	1	02VD 02VO 02VC 02MD 09MO 02MC 02RD 02RO	1	0	1.20663714409	203.0	210.0	204	204	1
2.7	2015_Jun_03_1103	s	s	18	3	SIC	336	ABS	1	0	02VD 02VO 02VC 02MD 02MO 10MC 02RD 02RO	1	0	0.658434152603	None	None	-135	215	0
2.7	2015_Jun_03_1103	s	s	18	3	SIC	337	RC	2	2	09VD 02VO 02VC 02MD 02MO 02MC 02RD 02RO	1	0	0.500791072845	-495.0	405.0	-25	228	0
2.7	2015_Jun_03_1103	s	s	18	3	SIC	338	RC	0	1	02VD 02VO 02VC 02MD 02MO 02MC 02RD 09RO	1	0	1.0553920269	-354.0	-238.0	-364	-238	1
2.7	2015_Jun_03_1103	s	s	18	3	SIC	339	ABS	1	1	02VD 02VO 02VC 02MD 10MO 02MC 02RD 02RO	1	0	0.573234081268	None	None	-340	83	0
2.7	2015_Jun_03_1103	s	s	18	3	SIC	340	ABS	2	1	02VD 10VO 02VC 02MD 02MO 02MC 02RD 02RO	1	0	1.05880284309	None	None	131	-220	0
2.7	2015_Jun_03_1103	s	s	18	3	SIC	341	RC	1	0	02VD 02VO 02VC 02MD 02MO 09MC 02RD 02RO	1	0	1.01699995995	-324.0	20.0	-85	306	0
2.7	2015_Jun_03_1103	s	s	18	3	SIC	342	RC	1	2	02VD 02VO 02VC 09MD 02MO 02MC 02RD 02RO	1	0	1.02391314507	180.0	-16.0	182	-17	1
2.7	2015_Jun_03_1103	s	s	18	3	SIC	343	RC	2	1	02VD 09VO 02VC 02MD 02MO 02MC 02RD 02RO	1	0	0.665118932724	-8.0	-308.0	-228	166	0
2.7	2015_Jun_03_1103	s	s	18	3	SIC	344	RC	0	2	02VD 02VO 02VC 02MD 02MO 02MC 09RD 02RO	1	0	1.35302209854	13.0	-322.0	10	-322	1
2.7	2015_Jun_03_1103	s	s	18	3	SIC	345	ABS	2	2	10VD 02VO 02VC 02MD 02MO 02MC 02RD 02RO	1	0	1.24743294716	None	None	224	396	0
2.7	2015_Jun_03_1103	s	s	18	3	SIC	346	RC	1	1	02VD 02VO 02VC 02MD 09MO 02MC 02RD 02RO	1	0	0.606789112091	178.0	-17.0	182	-15	1
2.7	2015_Jun_03_1103	s	s	18	3	SIC	347	ABS	1	0	02VD 02VO 02VC 02MD 02MO 10MC 02RD 02RO	1	0	0.618134021759	None	None	-13	28	0
2.7	2015_Jun_03_1103	s	s	18	3	SIC	348	ABS	2	0	02VD 02VO 10VC 02MD 02MO 02MC 02RD 02RO	1	0	1.43538284302	None	None	-217	-304	0
2.7	2015_Jun_03_1103	s	s	18	3	SIC	349	ABS	0	2	02VD 02VO 02VC 02MD 02MO 02MC 10RD 02RO	1	0	0.678768873215	None	None	-160	45	0
2.7	2015_Jun_03_1103	s	s	18	3	SIC	350	ABS	0	1	02VD 02VO 02VC 02MD 02MO 02MC 02RD 10RO	1	0	1.22346305847	None	None	-54	354	0
2.7	2015_Jun_03_1103	s	s	18	3	SIC	351	ABS	1	2	02VD 02VO 02VC 10MD 02MO 02MC 02RD 02RO	1	0	1.60020303726	None	None	-179	370	0
2.7	2015_Jun_03_1103	s	s	18	3	SIC	352	RC	2	0	02VD 02VO 09VC 02MD 02MO 02MC 02RD 02RO	1	0	0.514344930649	519.0	361.0	151	1	0
2.7	2015_Jun_03_1103	s	s	18	3	SIC	353	RC	0	2	02VD 02VO 02VC 02MD 02MO 02MC 09RD 02RO	1	0	0.713629961014	49.0	262.0	48	256	1
2.7	2015_Jun_03_1103	s	s	18	3	SIC	354	ABS	2	1	02VD 10VO 02VC 02MD 02MO 02MC 02RD 02RO	1	0	0.870470046997	None	None	-180	101	0
2.7	2015_Jun_03_1103	s	s	18	3	SIC	355	ABS	1	0	02VD 02VO 02VC 02MD 02MO 10MC 02RD 02RO	1	0	1.01162290573	None	None	-72	177	0
2.7	2015_Jun_03_1103	s	s	18	3	SIC	356	RC	1	1	02VD 02VO 02VC 02MD 09MO 02MC 02RD 02RO	1	0	1.30585384369	-395.0	-121.0	287	-393	0
2.7	2015_Jun_03_1103	s	s	18	3	SIC	357	ABS	2	2	10VD 02VO 02VC 02MD 02MO 02MC 02RD 02RO	1	0	0.853600025177	None	None	-8	379	0
2.7	2015_Jun_03_1103	s	s	18	3	SIC	358	RC	2	0	02VD 02VO 09VC 02MD 02MO 02MC 02RD 02RO	1	0	0.447046995163	-62.0	310.0	-60	302	1
2.7	2015_Jun_03_1103	s	s	18	3	SIC	359	RC	2	2	09VD 02VO 02VC 02MD 02MO 02MC 02RD 02RO	1	0	0.703328132629	499.0	219.0	-264	-95	0
2.7	2015_Jun_03_1103	s	s	18	3	SIC	360	RC	1	2	02VD 02VO 02VC 09MD 02MO 02MC 02RD 02RO	1	0	0.470170974731	-153.0	-385.0	-61	-21	0
2.7	2015_Jun_03_1103	s	s	18	3	SIC	361	RC	2	1	02VD 09VO 02VC 02MD 02MO 02MC 02RD 02RO	1	0	1.13894701004	172.0	-256.0	172	-264	1
2.7	2015_Jun_03_1103	s	s	18	3	SIC	362	RC	0	1	02VD 02VO 02VC 02MD 02MO 02MC 02RD 09RO	1	0	0.75263094902	-457.0	-133.0	39	152	0
2.7	2015_Jun_03_1103	s	s	18	3	SIC	363	ABS	1	1	02VD 02VO 02VC 02MD 10MO 02MC 02RD 02RO	1	0	1.97679400444	None	None	477	85	0
2.7	2015_Jun_03_1103	s	s	18	3	SIC	364	ABS	0	2	02VD 02VO 02VC 02MD 02MO 02MC 10RD 02RO	1	0	1.76229500771	None	None	520	206	0
2.7	2015_Jun_03_1103	s	s	18	3	SIC	365	ABS	1	2	02VD 02VO 02VC 10MD 02MO 02MC 02RD 02RO	1	0	2.53704690933	None	None	324	349	0
2.7	2015_Jun_03_1103	s	s	18	3	SIC	366	ABS	2	0	02VD 02VO 10VC 02MD 02MO 02MC 02RD 02RO	1	0	0.714975118637	None	None	-115	-36	0
2.7	2015_Jun_03_1103	s	s	18	3	SIC	367	RC	1	0	02VD 02VO 02VC 02MD 02MO 09MC 02RD 02RO	1	0	0.605168819427	-95.0	-161.0	62	84	0
2.7	2015_Jun_03_1103	s	s	18	3	SIC	368	ABS	0	1	02VD 02VO 02VC 02MD 02MO 02MC 02RD 10RO	1	0	0.959575891495	None	None	257	-175	0
2.7	2015_Jun_03_1103	s	s	18	3	SIC	369	RC	2	0	02VD 02VO 09VC 02MD 02MO 02MC 02RD 02RO	1	0	1.37041592598	-236.0	59.0	-236	57	1
2.7	2015_Jun_03_1103	s	s	18	3	SIC	370	ABS	0	1	02VD 02VO 02VC 02MD 02MO 02MC 02RD 10RO	1	0	0.611366033554	None	None	0	80	0
2.7	2015_Jun_03_1103	s	s	18	3	SIC	371	ABS	2	1	02VD 10VO 02VC 02MD 02MO 02MC 02RD 02RO	1	0	0.864588975906	None	None	45	-258	0
2.7	2015_Jun_03_1103	s	s	18	3	SIC	372	ABS	1	2	02VD 02VO 02VC 10MD 02MO 02MC 02RD 02RO	1	0	1.15887022018	None	None	-21	382	0
2.7	2015_Jun_03_1103	s	s	18	3	SIC	373	ABS	2	0	02VD 02VO 10VC 02MD 02MO 02MC 02RD 02RO	1	0	0.711334943771	None	None	492	294	0
2.7	2015_Jun_03_1103	s	s	18	3	SIC	374	RC	1	1	02VD 02VO 02VC 02MD 09MO 02MC 02RD 02RO	1	0	0.759217023849	31.0	-127.0	28	193	0
2.7	2015_Jun_03_1103	s	s	18	3	SIC	375	RC	2	1	02VD 09VO 02VC 02MD 02MO 02MC 02RD 02RO	1	0	0.594912052155	-56.0	216.0	-48	214	1
2.7	2015_Jun_03_1103	s	s	18	3	SIC	376	RC	2	2	09VD 02VO 02VC 02MD 02MO 02MC 02RD 02RO	1	0	0.905714988708	506.0	404.0	-83	211	0
2.7	2015_Jun_03_1103	s	s	18	3	SIC	377	RC	0	2	02VD 02VO 02VC 02MD 02MO 02MC 09RD 02RO	1	0	1.02342700958	445.0	80.0	343	83	0
2.7	2015_Jun_03_1103	s	s	18	3	SIC	378	ABS	2	2	10VD 02VO 02VC 02MD 02MO 02MC 02RD 02RO	1	0	0.620666027069	None	None	121	291	0
2.7	2015_Jun_03_1103	s	s	18	3	SIC	379	ABS	0	2	02VD 02VO 02VC 02MD 02MO 02MC 10RD 02RO	1	0	0.49994802475	None	None	-103	-43	0
2.7	2015_Jun_03_1103	s	s	18	3	SIC	380	RC	1	0	02VD 02VO 02VC 02MD 02MO 09MC 02RD 02RO	1	0	0.446630954742	511.0	-261.0	-109	49	0
2.7	2015_Jun_03_1103	s	s	18	3	SIC	381	RC	1	2	02VD 02VO 02VC 09MD 02MO 02MC 02RD 02RO	1	0	0.561922073364	-276.0	145.0	-286	146	1
2.7	2015_Jun_03_1103	s	s	18	3	SIC	382	ABS	1	0	02VD 02VO 02VC 02MD 02MO 10MC 02RD 02RO	1	0	0.576145887375	None	None	-389	67	0
2.7	2015_Jun_03_1103	s	s	18	3	SIC	383	RC	0	1	02VD 02VO 02VC 02MD 02MO 02MC 02RD 09RO	1	0	2.47119998932	432.0	-291.0	-391	-287	0
2.7	2015_Jun_03_1103	s	s	18	3	SIC	384	ABS	1	1	02VD 02VO 02VC 02MD 10MO 02MC 02RD 02RO	1	0	0.855198860168	None	None	-300	55	0
2.7	2015_Jun_03_1103	s	s	18	3	SIC	385	ABS	1	0	02VD 02VO 02VC 02MD 02MO 10MC 02RD 02RO	1	0	0.607105970383	None	None	78	-117	0
2.7	2015_Jun_03_1103	s	s	18	3	SIC	386	ABS	0	2	02VD 02VO 02VC 02MD 02MO 02MC 10RD 02RO	1	0	1.02114796638	None	None	65	-348	0
2.7	2015_Jun_03_1103	s	s	18	3	SIC	387	RC	1	0	02VD 02VO 02VC 02MD 02MO 09MC 02RD 02RO	1	0	0.595502853394	383.0	-112.0	-15	92	0
2.7	2015_Jun_03_1103	s	s	18	3	SIC	388	ABS	1	1	02VD 02VO 02VC 02MD 10MO 02MC 02RD 02RO	1	0	1.9492020607	None	None	-199	-266	0
2.7	2015_Jun_03_1103	s	s	18	3	SIC	389	RC	0	2	02VD 02VO 02VC 02MD 02MO 02MC 09RD 02RO	1	0	1.02341485023	-372.0	276.0	-375	280	1
2.7	2015_Jun_03_1103	s	s	18	3	SIC	390	ABS	2	2	10VD 02VO 02VC 02MD 02MO 02MC 02RD 02RO	1	0	1.13572406769	None	None	327	264	0
2.7	2015_Jun_03_1103	s	s	18	3	SIC	391	RC	1	1	02VD 02VO 02VC 02MD 09MO 02MC 02RD 02RO	1	0	2.16514086723	203.0	-249.0	200	-250	1
2.7	2015_Jun_03_1103	s	s	18	3	SIC	392	ABS	1	2	02VD 02VO 02VC 10MD 02MO 02MC 02RD 02RO	1	0	0.606474876404	None	None	34	-112	0
2.7	2015_Jun_03_1103	s	s	18	3	SIC	393	ABS	0	1	02VD 02VO 02VC 02MD 02MO 02MC 02RD 10RO	1	0	1.08952903748	None	None	149	-97	0
2.7	2015_Jun_03_1103	s	s	18	3	SIC	394	ABS	2	0	02VD 02VO 10VC 02MD 02MO 02MC 02RD 02RO	1	0	0.846793889999	None	None	-118	-185	0
2.7	2015_Jun_03_1103	s	s	18	3	SIC	395	ABS	2	1	02VD 10VO 02VC 02MD 02MO 02MC 02RD 02RO	1	0	0.62103509903	None	None	-137	-24	0
2.7	2015_Jun_03_1103	s	s	18	3	SIC	396	RC	1	2	02VD 02VO 02VC 09MD 02MO 02MC 02RD 02RO	1	0	0.865523099899	-132.0	-218.0	188	326	0
2.7	2015_Jun_03_1103	s	s	18	3	SIC	397	RC	0	1	02VD 02VO 02VC 02MD 02MO 02MC 02RD 09RO	1	0	0.470116138458	-156.0	184.0	-159	186	1
2.7	2015_Jun_03_1103	s	s	18	3	SIC	398	RC	2	0	02VD 02VO 09VC 02MD 02MO 02MC 02RD 02RO	1	0	0.362064123154	-122.0	56.0	-123	50	1
2.7	2015_Jun_03_1103	s	s	18	3	SIC	399	RC	2	2	09VD 02VO 02VC 02MD 02MO 02MC 02RD 02RO	1	0	0.764499187469	419.0	316.0	162	-76	0
2.7	2015_Jun_03_1103	s	s	18	3	SIC	400	RC	2	1	02VD 09VO 02VC 02MD 02MO 02MC 02RD 02RO	1	0	0.470134973526	258.0	-52.0	-299	37	0
2.7	2015_Jun_03_1103	s	s	18	3	SIC	401	ABS	2	0	02VD 02VO 10VC 02MD 02MO 02MC 02RD 02RO	1	0	1.37654900551	None	None	-511	29	0
2.7	2015_Jun_03_1103	s	s	18	3	SIC	402	ABS	1	2	02VD 02VO 02VC 10MD 02MO 02MC 02RD 02RO	1	0	0.623553037643	None	None	113	204	0
2.7	2015_Jun_03_1103	s	s	18	3	SIC	403	RC	2	2	09VD 02VO 02VC 02MD 02MO 02MC 02RD 02RO	1	0	0.491557121277	-137.0	105.0	-139	107	1
2.7	2015_Jun_03_1103	s	s	18	3	SIC	404	ABS	1	1	02VD 02VO 02VC 02MD 10MO 02MC 02RD 02RO	1	0	0.576181173325	None	None	142	143	0
2.7	2015_Jun_03_1103	s	s	18	3	SIC	405	ABS	2	2	10VD 02VO 02VC 02MD 02MO 02MC 02RD 02RO	1	0	0.511809110641	None	None	-309	155	0
2.7	2015_Jun_03_1103	s	s	18	3	SIC	406	RC	1	2	02VD 02VO 02VC 09MD 02MO 02MC 02RD 02RO	1	0	0.705680847168	253.0	104.0	-412	76	0
2.7	2015_Jun_03_1103	s	s	18	3	SIC	407	RC	2	0	02VD 02VO 09VC 02MD 02MO 02MC 02RD 02RO	1	0	0.799710035324	87.0	28.0	82	29	1
2.7	2015_Jun_03_1103	s	s	18	3	SIC	408	RC	2	1	02VD 09VO 02VC 02MD 02MO 02MC 02RD 02RO	1	0	0.644125938416	-361.0	-199.0	35	22	0
2.7	2015_Jun_03_1103	s	s	18	3	SIC	409	ABS	0	2	02VD 02VO 02VC 02MD 02MO 02MC 10RD 02RO	1	0	0.846836090088	None	None	-16	133	0
2.7	2015_Jun_03_1103	s	s	18	3	SIC	410	RC	0	1	02VD 02VO 02VC 02MD 02MO 02MC 02RD 09RO	1	0	0.693778038025	87.0	282.0	-3	-85	0
2.7	2015_Jun_03_1103	s	s	18	3	SIC	411	ABS	1	0	02VD 02VO 02VC 02MD 02MO 10MC 02RD 02RO	1	0	0.611144065857	None	None	-158	198	0
2.7	2015_Jun_03_1103	s	s	18	3	SIC	412	ABS	2	1	02VD 10VO 02VC 02MD 02MO 02MC 02RD 02RO	1	0	0.514714002609	None	None	-114	74	0
2.7	2015_Jun_03_1103	s	s	18	3	SIC	413	RC	0	2	02VD 02VO 02VC 02MD 02MO 02MC 09RD 02RO	1	0	1.18486881256	-54.0	-275.0	-177	-121	0
2.7	2015_Jun_03_1103	s	s	18	3	SIC	414	RC	1	1	02VD 02VO 02VC 02MD 09MO 02MC 02RD 02RO	1	0	1.12927889824	-469.0	-20.0	-211	-230	0
2.7	2015_Jun_03_1103	s	s	18	3	SIC	415	ABS	0	1	02VD 02VO 02VC 02MD 02MO 02MC 02RD 10RO	1	0	0.411303043365	None	None	-189	248	0
2.7	2015_Jun_03_1103	s	s	18	3	SIC	416	RC	1	0	02VD 02VO 02VC 02MD 02MO 09MC 02RD 02RO	1	0	0.324537038803	-101.0	100.0	87	291	0
2.7	2015_Jun_03_1103	s	s	18	3	SIC	417	ABS	2	2	10VD 02VO 02VC 02MD 02MO 02MC 02RD 02RO	1	0	2.18605303764	None	None	506	-237	0
2.7	2015_Jun_03_1103	s	s	18	3	SIC	418	RC	0	2	02VD 02VO 02VC 02MD 02MO 02MC 09RD 02RO	1	0	0.550372123718	366.0	2.0	-8	72	0
2.7	2015_Jun_03_1103	s	s	18	3	SIC	419	RC	1	1	02VD 02VO 02VC 02MD 09MO 02MC 02RD 02RO	1	0	1.20728993416	-134.0	-269.0	-119	-260	1
2.7	2015_Jun_03_1103	s	s	18	3	SIC	420	ABS	1	2	02VD 02VO 02VC 10MD 02MO 02MC 02RD 02RO	1	0	2.52525401115	None	None	-259	-388	0
2.7	2015_Jun_03_1103	s	s	18	3	SIC	421	ABS	2	1	02VD 10VO 02VC 02MD 02MO 02MC 02RD 02RO	1	0	0.732877016068	None	None	-114	-406	0
2.7	2015_Jun_03_1103	s	s	18	3	SIC	422	RC	1	2	02VD 02VO 02VC 09MD 02MO 02MC 02RD 02RO	1	0	0.702311992645	212.0	-174.0	206	-173	1
2.7	2015_Jun_03_1103	s	s	18	3	SIC	423	RC	1	0	02VD 02VO 02VC 02MD 02MO 09MC 02RD 02RO	1	0	0.57106089592	75.0	-160.0	-284	124	0
2.7	2015_Jun_03_1103	s	s	18	3	SIC	424	ABS	1	1	02VD 02VO 02VC 02MD 10MO 02MC 02RD 02RO	1	0	0.576125144958	None	None	-23	16	0
2.7	2015_Jun_03_1103	s	s	18	3	SIC	425	ABS	1	0	02VD 02VO 02VC 02MD 02MO 10MC 02RD 02RO	1	0	0.576088905334	None	None	-122	244	0
2.7	2015_Jun_03_1103	s	s	18	3	SIC	426	ABS	0	2	02VD 02VO 02VC 02MD 02MO 02MC 10RD 02RO	1	0	0.691218137741	None	None	-138	283	0
2.7	2015_Jun_03_1103	s	s	18	3	SIC	427	RC	0	1	02VD 02VO 02VC 02MD 02MO 02MC 02RD 09RO	1	0	0.500648975372	-488.0	110.0	-126	19	0
2.7	2015_Jun_03_1103	s	s	18	3	SIC	428	ABS	0	1	02VD 02VO 02VC 02MD 02MO 02MC 02RD 10RO	1	0	0.552556037903	None	None	173	99	0
2.7	2015_Jun_03_1103	s	s	18	3	SIC	429	RC	2	2	09VD 02VO 02VC 02MD 02MO 02MC 02RD 02RO	1	0	0.855654001236	385.0	75.0	387	80	1
2.7	2015_Jun_03_1103	s	s	18	3	SIC	430	RC	2	0	02VD 02VO 09VC 02MD 02MO 02MC 02RD 02RO	1	0	1.196434021	59.0	351.0	476	-137	0
2.7	2015_Jun_03_1103	s	s	18	3	SIC	431	RC	2	1	02VD 09VO 02VC 02MD 02MO 02MC 02RD 02RO	1	0	1.71312904358	440.0	-255.0	448	-251	1
2.7	2015_Jun_03_1103	s	s	18	3	SIC	432	ABS	2	0	02VD 02VO 10VC 02MD 02MO 02MC 02RD 02RO	1	0	0.605959892273	None	None	-166	52	0
2.7	2015_Jun_03_1103	s	s	18	3	SIC	433	RC	1	2	02VD 02VO 02VC 09MD 02MO 02MC 02RD 02RO	1	0	0.429415225983	-59.0	45.0	-68	51	1
2.7	2015_Jun_03_1103	s	s	18	3	SIC	434	ABS	1	0	02VD 02VO 02VC 02MD 02MO 10MC 02RD 02RO	1	0	0.552464008331	None	None	-104	172	0
2.7	2015_Jun_03_1103	s	s	18	3	SIC	435	ABS	1	1	02VD 02VO 02VC 02MD 10MO 02MC 02RD 02RO	1	0	0.489329099655	None	None	-10	233	0
2.7	2015_Jun_03_1103	s	s	18	3	SIC	436	ABS	2	2	10VD 02VO 02VC 02MD 02MO 02MC 02RD 02RO	1	0	1.27062106133	None	None	312	-365	0
2.7	2015_Jun_03_1103	s	s	18	3	SIC	437	ABS	0	1	02VD 02VO 02VC 02MD 02MO 02MC 02RD 10RO	1	0	0.987832784653	None	None	334	256	0
2.7	2015_Jun_03_1103	s	s	18	3	SIC	438	RC	2	1	02VD 09VO 02VC 02MD 02MO 02MC 02RD 02RO	1	0	0.646937131882	-262.0	46.0	137	-246	0
2.7	2015_Jun_03_1103	s	s	18	3	SIC	439	RC	1	0	02VD 02VO 02VC 02MD 02MO 09MC 02RD 02RO	1	0	0.700677871704	317.0	-189.0	18	10	0
2.7	2015_Jun_03_1103	s	s	18	3	SIC	440	RC	0	1	02VD 02VO 02VC 02MD 02MO 02MC 02RD 09RO	1	0	0.917458057404	345.0	-115.0	198	73	0
2.7	2015_Jun_03_1103	s	s	18	3	SIC	441	RC	1	1	02VD 02VO 02VC 02MD 09MO 02MC 02RD 02RO	1	0	0.982504844666	77.0	176.0	76	184	1
2.7	2015_Jun_03_1103	s	s	18	3	SIC	442	ABS	2	0	02VD 02VO 10VC 02MD 02MO 02MC 02RD 02RO	1	0	0.864940881729	None	None	-409	194	0
2.7	2015_Jun_03_1103	s	s	18	3	SIC	443	RC	2	0	02VD 02VO 09VC 02MD 02MO 02MC 02RD 02RO	1	0	0.688677787781	-539.0	-45.0	-546	-50	1
2.7	2015_Jun_03_1103	s	s	18	3	SIC	444	ABS	2	1	02VD 10VO 02VC 02MD 02MO 02MC 02RD 02RO	1	0	0.791620969772	None	None	229	65	0
2.7	2015_Jun_03_1103	s	s	18	3	SIC	445	ABS	1	2	02VD 02VO 02VC 10MD 02MO 02MC 02RD 02RO	1	0	0.41693687439	None	None	-133	168	0
2.7	2015_Jun_03_1103	s	s	18	3	SIC	446	RC	2	2	09VD 02VO 02VC 02MD 02MO 02MC 02RD 02RO	1	0	0.439238071442	-499.0	67.0	-196	236	0
2.7	2015_Jun_03_1103	s	s	18	3	SIC	447	ABS	0	2	02VD 02VO 02VC 02MD 02MO 02MC 10RD 02RO	1	0	0.305374145508	None	None	182	212	0
2.7	2015_Jun_03_1103	s	s	18	3	SIC	448	RC	0	2	02VD 02VO 02VC 02MD 02MO 02MC 09RD 02RO	1	0	0.740921020508	293.0	-320.0	264	-72	0
2.7	2015_Jun_03_1103	s	s	18	3	SIC	449	RC	2	1	02VD 09VO 02VC 02MD 02MO 02MC 02RD 02RO	1	0	0.693869113922	332.0	120.0	-344	-135	0
2.7	2015_Jun_03_1103	s	s	18	3	SIC	450	ABS	0	2	02VD 02VO 02VC 02MD 02MO 02MC 10RD 02RO	1	0	0.917456150055	None	None	-151	229	0
2.7	2015_Jun_03_1103	s	s	18	3	SIC	451	RC	1	0	02VD 02VO 02VC 02MD 02MO 09MC 02RD 02RO	1	0	1.2351269722	-149.0	380.0	34	-129	0
2.7	2015_Jun_03_1103	s	s	18	3	SIC	452	ABS	2	0	02VD 02VO 10VC 02MD 02MO 02MC 02RD 02RO	1	0	1.04694008827	None	None	146	389	0
2.7	2015_Jun_03_1103	s	s	18	3	SIC	453	ABS	1	0	02VD 02VO 02VC 02MD 02MO 10MC 02RD 02RO	1	0	0.5995221138	None	None	-93	117	0
2.7	2015_Jun_03_1103	s	s	18	3	SIC	454	ABS	0	1	02VD 02VO 02VC 02MD 02MO 02MC 02RD 10RO	1	0	1.03021216393	None	None	135	244	0
2.7	2015_Jun_03_1103	s	s	18	3	SIC	455	ABS	1	2	02VD 02VO 02VC 10MD 02MO 02MC 02RD 02RO	1	0	1.74700784683	None	None	49	-376	0
2.7	2015_Jun_03_1103	s	s	18	3	SIC	456	RC	1	2	02VD 02VO 02VC 09MD 02MO 02MC 02RD 02RO	1	0	0.901740074158	-336.0	103.0	252	-10	0
2.7	2015_Jun_03_1103	s	s	18	3	SIC	457	RC	0	1	02VD 02VO 02VC 02MD 02MO 02MC 02RD 09RO	1	0	2.37447500229	-376.0	-371.0	532	262	0
2.7	2015_Jun_03_1103	s	s	18	3	SIC	458	RC	2	0	02VD 02VO 09VC 02MD 02MO 02MC 02RD 02RO	1	0	0.98341012001	-287.0	-20.0	-281	-18	1
2.7	2015_Jun_03_1103	s	s	18	3	SIC	459	ABS	1	1	02VD 02VO 02VC 02MD 10MO 02MC 02RD 02RO	1	0	2.62417793274	None	None	268	-311	0
2.7	2015_Jun_03_1103	s	s	18	3	SIC	460	ABS	2	2	10VD 02VO 02VC 02MD 02MO 02MC 02RD 02RO	1	0	0.528914928436	None	None	-150	38	0
2.7	2015_Jun_03_1103	s	s	18	3	SIC	461	ABS	2	1	02VD 10VO 02VC 02MD 02MO 02MC 02RD 02RO	1	0	0.571042060852	None	None	79	238	0
2.7	2015_Jun_03_1103	s	s	18	3	SIC	462	RC	0	2	02VD 02VO 02VC 02MD 02MO 02MC 09RD 02RO	1	0	0.481973171234	180.0	-87.0	-27	-78	0
2.7	2015_Jun_03_1103	s	s	18	3	SIC	463	RC	2	2	09VD 02VO 02VC 02MD 02MO 02MC 02RD 02RO	1	0	0.82949090004	-297.0	90.0	-185	297	0
2.7	2015_Jun_03_1103	s	s	18	3	SIC	464	RC	1	1	02VD 02VO 02VC 02MD 09MO 02MC 02RD 02RO	1	0	0.550137042999	-97.0	98.0	-91	106	1
2.7	2015_Jun_03_1103	s	s	18	3	SIC	465	ABS	0	2	02VD 02VO 02VC 02MD 02MO 02MC 10RD 02RO	1	0	1.51338005066	None	None	396	377	0
2.7	2015_Jun_03_1103	s	s	18	3	SIC	466	ABS	1	0	02VD 02VO 02VC 02MD 02MO 10MC 02RD 02RO	1	0	0.493589878082	None	None	-101	-94	0
2.7	2015_Jun_03_1103	s	s	18	3	SIC	467	RC	1	0	02VD 02VO 02VC 02MD 02MO 09MC 02RD 02RO	1	0	0.443675041199	416.0	268.0	-90	-75	0
2.7	2015_Jun_03_1103	s	s	18	3	SIC	468	ABS	2	2	10VD 02VO 02VC 02MD 02MO 02MC 02RD 02RO	1	0	0.893938779831	None	None	-363	119	0
2.7	2015_Jun_03_1103	s	s	18	3	SIC	469	ABS	1	1	02VD 02VO 02VC 02MD 10MO 02MC 02RD 02RO	1	0	1.02335095406	None	None	-362	-102	0
2.7	2015_Jun_03_1103	s	s	18	3	SIC	470	RC	0	1	02VD 02VO 02VC 02MD 02MO 02MC 02RD 09RO	1	0	0.538620948792	-122.0	-96.0	-128	-98	1
2.7	2015_Jun_03_1103	s	s	18	3	SIC	471	ABS	2	1	02VD 10VO 02VC 02MD 02MO 02MC 02RD 02RO	1	0	0.936758041382	None	None	-147	-67	0
2.7	2015_Jun_03_1103	s	s	18	3	SIC	472	RC	2	0	02VD 02VO 09VC 02MD 02MO 02MC 02RD 02RO	1	0	0.476312875748	70.0	-133.0	234	199	0
2.7	2015_Jun_03_1103	s	s	18	3	SIC	473	RC	0	2	02VD 02VO 02VC 02MD 02MO 02MC 09RD 02RO	1	0	0.49369597435	57.0	-24.0	47	-14	1
2.7	2015_Jun_03_1103	s	s	18	3	SIC	474	RC	1	1	02VD 02VO 02VC 02MD 09MO 02MC 02RD 02RO	1	0	0.514600992203	-55.0	-1.0	-62	1	1
2.7	2015_Jun_03_1103	s	s	18	3	SIC	475	RC	2	2	09VD 02VO 02VC 02MD 02MO 02MC 02RD 02RO	1	0	0.372981071472	293.0	-76.0	285	-69	1
2.7	2015_Jun_03_1103	s	s	18	3	SIC	476	ABS	1	2	02VD 02VO 02VC 10MD 02MO 02MC 02RD 02RO	1	0	1.0940759182	None	None	44	5	0
2.7	2015_Jun_03_1103	s	s	18	3	SIC	477	RC	2	1	02VD 09VO 02VC 02MD 02MO 02MC 02RD 02RO	1	0	0.950247049332	498.0	193.0	-464	-122	0
2.7	2015_Jun_03_1103	s	s	18	3	SIC	478	ABS	0	1	02VD 02VO 02VC 02MD 02MO 02MC 02RD 10RO	1	0	0.587873220444	None	None	-152	251	0
2.7	2015_Jun_03_1103	s	s	18	3	SIC	479	ABS	2	0	02VD 02VO 10VC 02MD 02MO 02MC 02RD 02RO	1	0	0.623114109039	None	None	510	39	0
2.7	2015_Jun_03_1103	s	s	18	3	SIC	480	RC	1	2	02VD 02VO 02VC 09MD 02MO 02MC 02RD 02RO	1	0	1.59550690651	456.0	-25.0	446	-18	1
