Version	Date	Stimuli	Method	Subject	Session	Condition	Trial	Target	Channel1	Channel2	Distractors	LMouseButton	RMouseButton	RT	TargetX	TargetY	ResponseX	ResponseY	Correct
1.7	2015_Jul_21_1414	s	s	6	2	Capacity	1	RC	0	2	23RD	1	0	1.24200391769	-505.0	-13.0	-513	-19	1
1.7	2015_Jul_21_1414	s	s	6	2	Capacity	2	ABS	0	1	24RO	1	0	0.458410978317	None	None	321	23	0
1.7	2015_Jul_21_1414	s	s	6	2	Capacity	3	ABS	0	2	24RD	0	1	1.80027079582	None	None	None	None	1
1.7	2015_Jul_21_1414	s	s	6	2	Capacity	4	RC	0	1	23RO	1	0	5.10768890381	236.0	360.0	228	363	1
1.7	2015_Jul_21_1414	s	s	6	2	Capacity	5	ABS	0	2	24RD	0	1	2.43232798576	None	None	None	None	1
1.7	2015_Jul_21_1414	s	s	6	2	Capacity	6	RC	0	2	23RD	1	0	1.6172709465	327.0	-307.0	322	-315	1
1.7	2015_Jul_21_1414	s	s	6	2	Capacity	7	RC	0	1	23RO	1	0	0.858599901199	163.0	9.0	168	3	1
1.7	2015_Jul_21_1414	s	s	6	2	Capacity	8	ABS	0	1	24RO	0	1	8.5412569046	None	None	None	None	1
1.7	2015_Jul_21_1414	s	s	6	2	Capacity	9	RC	0	1	23RO	0	1	6.26129508018	-183.0	356.0	None	None	0
1.7	2015_Jul_21_1414	s	s	6	2	Capacity	10	RC	0	2	23RD	1	0	1.18818283081	-186.0	-297.0	-183	-298	1
1.7	2015_Jul_21_1414	s	s	6	2	Capacity	11	ABS	0	2	24RD	0	1	1.56216311455	None	None	None	None	1
1.7	2015_Jul_21_1414	s	s	6	2	Capacity	12	ABS	0	1	24RO	0	1	8.84275102615	None	None	None	None	1
1.7	2015_Jul_21_1414	s	s	6	2	Capacity	13	RC	0	1	23RO	1	0	9.45112013817	-164.0	-392.0	-168	-396	1
1.7	2015_Jul_21_1414	s	s	6	2	Capacity	14	ABS	0	2	24RD	0	1	3.57760310173	None	None	None	None	1
1.7	2015_Jul_21_1414	s	s	6	2	Capacity	15	ABS	0	1	24RO	0	1	8.32122588158	None	None	None	None	1
1.7	2015_Jul_21_1414	s	s	6	2	Capacity	16	RC	0	2	23RD	1	0	1.27058410645	199.0	314.0	197	313	1
1.7	2015_Jul_21_1414	s	s	6	2	Capacity	17	ABS	0	2	24RD	0	1	2.98386883736	None	None	None	None	1
1.7	2015_Jul_21_1414	s	s	6	2	Capacity	18	RC	0	1	23RO	0	1	7.4923479557	-99.0	-134.0	None	None	0
1.7	2015_Jul_21_1414	s	s	6	2	Capacity	19	RC	0	2	23RD	1	0	1.19996190071	234.0	-325.0	229	-322	1
1.7	2015_Jul_21_1414	s	s	6	2	Capacity	20	ABS	0	1	24RO	0	1	7.07349395752	None	None	None	None	1
1.7	2015_Jul_21_1414	s	s	6	2	Capacity	21	ABS	0	2	24RD	0	1	3.51109719276	None	None	None	None	1
1.7	2015_Jul_21_1414	s	s	6	2	Capacity	22	RC	0	1	23RO	0	1	7.45685911179	-333.0	153.0	None	None	0
1.7	2015_Jul_21_1414	s	s	6	2	Capacity	23	RC	0	2	23RD	1	0	0.882129907608	197.0	187.0	203	185	1
1.7	2015_Jul_21_1414	s	s	6	2	Capacity	24	ABS	0	1	24RO	0	1	14.4487628937	None	None	None	None	1
1.7	2015_Jul_21_1414	s	s	6	2	Capacity	25	RC	0	1	23RO	1	0	6.52027702332	-12.0	-102.0	-10	-105	1
1.7	2015_Jul_21_1414	s	s	6	2	Capacity	26	ABS	0	1	24RO	0	1	7.36342120171	None	None	None	None	1
1.7	2015_Jul_21_1414	s	s	6	2	Capacity	27	ABS	0	2	24RD	0	1	3.14892292023	None	None	None	None	1
1.7	2015_Jul_21_1414	s	s	6	2	Capacity	28	RC	0	2	23RD	1	0	0.646797895432	225.0	5.0	232	8	1
1.7	2015_Jul_21_1414	s	s	6	2	Capacity	29	RC	0	1	23RO	1	0	9.81608986855	452.0	74.0	459	74	1
1.7	2015_Jul_21_1414	s	s	6	2	Capacity	30	ABS	0	2	24RD	0	1	2.05924296379	None	None	None	None	1
1.7	2015_Jul_21_1414	s	s	6	2	Capacity	31	ABS	0	1	24RO	0	1	8.41027402878	None	None	None	None	1
1.7	2015_Jul_21_1414	s	s	6	2	Capacity	32	RC	0	2	23RD	1	0	0.806724071503	51.0	-357.0	51	-359	1
1.7	2015_Jul_21_1414	s	s	6	2	Capacity	33	RC	0	1	23RO	1	0	7.256483078	375.0	-98.0	381	-99	1
1.7	2015_Jul_21_1414	s	s	6	2	Capacity	34	ABS	0	1	24RO	0	1	8.32116723061	None	None	None	None	1
1.7	2015_Jul_21_1414	s	s	6	2	Capacity	35	ABS	0	2	24RD	0	1	2.85953593254	None	None	None	None	1
1.7	2015_Jul_21_1414	s	s	6	2	Capacity	36	RC	0	2	23RD	1	0	0.658482074738	332.0	-232.0	331	-231	1
1.7	2015_Jul_21_1414	s	s	6	2	Capacity	37	RC	0	1	23RO	0	1	8.82731103897	-274.0	267.0	None	None	0
1.7	2015_Jul_21_1414	s	s	6	2	Capacity	38	ABS	0	2	24RD	0	1	2.25436091423	None	None	None	None	1
1.7	2015_Jul_21_1414	s	s	6	2	Capacity	39	ABS	0	1	24RO	0	1	6.53211903572	None	None	None	None	1
1.7	2015_Jul_21_1414	s	s	6	2	Capacity	40	RC	0	2	23RD	1	0	0.729184865952	-233.0	71.0	-231	75	1
1.7	2015_Jul_21_1414	s	s	6	2	Capacity	41	RC	0	1	23RO	0	1	7.22151017189	346.0	238.0	None	None	0
1.7	2015_Jul_21_1414	s	s	6	2	Capacity	42	ABS	0	1	24RO	0	1	6.99800109863	None	None	None	None	1
1.7	2015_Jul_21_1414	s	s	6	2	Capacity	43	RC	0	2	23RD	1	0	0.874093055725	-427.0	-149.0	-425	-153	1
1.7	2015_Jul_21_1414	s	s	6	2	Capacity	44	ABS	0	2	24RD	0	1	1.63547897339	None	None	None	None	1
1.7	2015_Jul_21_1414	s	s	6	2	Capacity	45	RC	0	1	23RO	0	1	3.78131198883	-482.0	-238.0	None	None	0
1.7	2015_Jul_21_1414	s	s	6	2	Capacity	46	ABS	0	2	24RD	0	1	1.77712702751	None	None	None	None	1
1.7	2015_Jul_21_1414	s	s	6	2	Capacity	47	ABS	0	1	24RO	0	1	5.65588903427	None	None	None	None	1
1.7	2015_Jul_21_1414	s	s	6	2	Capacity	48	RC	0	2	23RD	1	0	0.529004096985	125.0	-2.0	125	0	1
1.7	2015_Jul_21_1414	s	s	6	2	Capacity	49	RC	0	2	23RD	1	0	0.929290771484	-537.0	-325.0	-531	-324	1
1.7	2015_Jul_21_1414	s	s	6	2	Capacity	50	ABS	0	1	24RO	0	1	5.47000408173	None	None	None	None	1
1.7	2015_Jul_21_1414	s	s	6	2	Capacity	51	RC	0	1	23RO	1	0	3.58419179916	144.0	-26.0	143	-22	1
1.7	2015_Jul_21_1414	s	s	6	2	Capacity	52	ABS	0	2	24RD	0	1	1.34110021591	None	None	None	None	1
1.7	2015_Jul_21_1414	s	s	6	2	Capacity	53	RC	0	1	23RO	1	0	6.86160302162	245.0	-321.0	245	-318	1
1.7	2015_Jul_21_1414	s	s	6	2	Capacity	54	ABS	0	1	24RO	0	1	7.69230484962	None	None	None	None	1
1.7	2015_Jul_21_1414	s	s	6	2	Capacity	55	RC	0	2	23RD	1	0	0.917325973511	439.0	-32.0	441	-32	1
1.7	2015_Jul_21_1414	s	s	6	2	Capacity	56	ABS	0	2	24RD	0	1	2.76148700714	None	None	None	None	1
1.7	2015_Jul_21_1414	s	s	6	2	Capacity	57	RC	0	2	23RD	1	0	0.729167938232	242.0	150.0	246	144	1
1.7	2015_Jul_21_1414	s	s	6	2	Capacity	58	ABS	0	2	24RD	0	1	1.15967798233	None	None	None	None	1
1.7	2015_Jul_21_1414	s	s	6	2	Capacity	59	RC	0	1	23RO	0	1	6.89692997932	507.0	76.0	None	None	0
1.7	2015_Jul_21_1414	s	s	6	2	Capacity	60	ABS	0	1	24RO	0	1	7.49734902382	None	None	None	None	1
1.7	2015_Jul_21_1414	s	s	6	2	Capacity	61	ABS	0	1	24RO	0	1	6.30832886696	None	None	None	None	1
1.7	2015_Jul_21_1414	s	s	6	2	Capacity	62	RC	0	2	23RD	1	0	0.799633979797	391.0	-212.0	396	-216	1
1.7	2015_Jul_21_1414	s	s	6	2	Capacity	63	RC	0	1	23RO	0	1	9.71650695801	77.0	350.0	None	None	0
1.7	2015_Jul_21_1414	s	s	6	2	Capacity	64	ABS	0	2	24RD	0	1	2.26620197296	None	None	None	None	1
1.7	2015_Jul_21_1414	s	s	6	2	Capacity	65	ABS	0	1	24RO	0	1	7.82662296295	None	None	None	None	1
1.7	2015_Jul_21_1414	s	s	6	2	Capacity	66	RC	0	1	23RO	1	0	4.2014670372	208.0	306.0	210	302	1
1.7	2015_Jul_21_1414	s	s	6	2	Capacity	67	RC	0	2	23RD	1	0	0.611480951309	364.0	246.0	360	245	1
1.7	2015_Jul_21_1414	s	s	6	2	Capacity	68	ABS	0	2	24RD	0	1	1.195125103	None	None	None	None	1
1.7	2015_Jul_21_1414	s	s	6	2	Capacity	69	ABS	0	1	24RO	0	1	10.8518228531	None	None	None	None	1
1.7	2015_Jul_21_1414	s	s	6	2	Capacity	70	RC	0	1	23RO	1	0	5.76129102707	-230.0	-212.0	-234	-210	1
1.7	2015_Jul_21_1414	s	s	6	2	Capacity	71	RC	0	2	23RD	1	0	0.623250007629	-345.0	-359.0	-349	-369	1
1.7	2015_Jul_21_1414	s	s	6	2	Capacity	72	ABS	0	2	24RD	0	1	2.11298298836	None	None	None	None	1
1.7	2015_Jul_21_1414	s	s	6	2	Capacity	73	ABS	0	2	24RD	0	1	1.25428295135	None	None	None	None	1
1.7	2015_Jul_21_1414	s	s	6	2	Capacity	74	ABS	0	1	24RO	0	1	7.07343196869	None	None	None	None	1
1.7	2015_Jul_21_1414	s	s	6	2	Capacity	75	RC	0	2	23RD	1	0	0.700914859772	-408.0	325.0	-404	329	1
1.7	2015_Jul_21_1414	s	s	6	2	Capacity	76	RC	0	1	23RO	0	1	4.99914813042	450.0	138.0	None	None	0
1.7	2015_Jul_21_1414	s	s	6	2	Capacity	77	RC	0	1	23RO	1	0	2.43074893951	-405.0	169.0	-392	176	1
1.7	2015_Jul_21_1414	s	s	6	2	Capacity	78	RC	0	2	23RD	1	0	1.10124015808	-444.0	-412.0	-434	-410	1
1.7	2015_Jul_21_1414	s	s	6	2	Capacity	79	ABS	0	1	24RO	0	1	4.81918287277	None	None	None	None	1
1.7	2015_Jul_21_1414	s	s	6	2	Capacity	80	ABS	0	2	24RD	0	1	1.58045220375	None	None	None	None	1
1.7	2015_Jul_21_1414	s	s	6	2	Capacity	81	RC	0	1	23RO	1	0	5.02046704292	233.0	-412.0	238	-410	1
1.7	2015_Jul_21_1414	s	s	6	2	Capacity	82	ABS	0	1	24RO	0	1	7.5325460434	None	None	None	None	1
1.7	2015_Jul_21_1414	s	s	6	2	Capacity	83	ABS	0	2	24RD	0	1	1.39597010612	None	None	None	None	1
1.7	2015_Jul_21_1414	s	s	6	2	Capacity	84	RC	0	2	23RD	1	0	0.717366933823	-481.0	-29.0	-473	-31	1
1.7	2015_Jul_21_1414	s	s	6	2	Capacity	85	ABS	0	2	24RD	0	1	0.905694007874	None	None	None	None	1
1.7	2015_Jul_21_1414	s	s	6	2	Capacity	86	ABS	0	1	24RO	0	1	6.83806610107	None	None	None	None	1
1.7	2015_Jul_21_1414	s	s	6	2	Capacity	87	RC	0	1	23RO	1	0	4.42516899109	392.0	-31.0	389	-35	1
1.7	2015_Jul_21_1414	s	s	6	2	Capacity	88	RC	0	2	23RD	1	0	0.787882089615	56.0	-328.0	59	-332	1
1.7	2015_Jul_21_1414	s	s	6	2	Capacity	89	ABS	0	1	24RO	0	1	6.90847706795	None	None	None	None	1
1.7	2015_Jul_21_1414	s	s	6	2	Capacity	90	RC	0	2	23RD	1	0	0.564327955246	-408.0	-179.0	-403	-184	1
1.7	2015_Jul_21_1414	s	s	6	2	Capacity	91	RC	0	1	23RO	0	1	5.26088094711	119.0	373.0	None	None	0
1.7	2015_Jul_21_1414	s	s	6	2	Capacity	92	ABS	0	2	24RD	0	1	1.59527897835	None	None	None	None	1
1.7	2015_Jul_21_1414	s	s	6	2	Capacity	1	RC	1	0	23MC	1	0	5.41365218163	328.0	-289.0	322	-288	1
1.7	2015_Jul_21_1414	s	s	6	2	Capacity	2	RC	2	0	23VC	1	0	0.587877035141	-284.0	-283.0	-278	-278	1
1.7	2015_Jul_21_1414	s	s	6	2	Capacity	3	ABS	1	0	24MC	1	0	2.07100605965	None	None	-117	-123	0
1.7	2015_Jul_21_1414	s	s	6	2	Capacity	4	ABS	2	0	24VC	0	1	1.20824790001	None	None	None	None	1
1.7	2015_Jul_21_1414	s	s	6	2	Capacity	5	ABS	1	0	24MC	1	0	3.47165107727	None	None	262	-398	0
1.7	2015_Jul_21_1414	s	s	6	2	Capacity	6	RC	2	0	23VC	1	0	0.51710486412	-267.0	-307.0	-269	-302	1
1.7	2015_Jul_21_1414	s	s	6	2	Capacity	7	RC	1	0	23MC	1	0	1.23033618927	-414.0	281.0	-416	278	1
1.7	2015_Jul_21_1414	s	s	6	2	Capacity	8	ABS	2	0	24VC	0	1	0.770361185074	None	None	None	None	1
1.7	2015_Jul_21_1414	s	s	6	2	Capacity	9	RC	2	0	23VC	1	0	0.705476999283	48.0	204.0	57	202	1
1.7	2015_Jul_21_1414	s	s	6	2	Capacity	10	ABS	1	0	24MC	0	1	3.3892531395	None	None	None	None	1
1.7	2015_Jul_21_1414	s	s	6	2	Capacity	11	RC	1	0	23MC	1	0	0.957365989685	82.0	-378.0	-319	144	0
1.7	2015_Jul_21_1414	s	s	6	2	Capacity	12	ABS	2	0	24VC	0	1	0.858690023422	None	None	None	None	1
1.7	2015_Jul_21_1414	s	s	6	2	Capacity	13	RC	1	0	23MC	1	0	1.7486269474	-294.0	-41.0	-294	-42	1
1.7	2015_Jul_21_1414	s	s	6	2	Capacity	14	ABS	1	0	24MC	0	1	8.22183418274	None	None	None	None	1
1.7	2015_Jul_21_1414	s	s	6	2	Capacity	15	ABS	2	0	24VC	0	1	1.32946014404	None	None	None	None	1
1.7	2015_Jul_21_1414	s	s	6	2	Capacity	16	RC	2	0	23VC	1	0	0.528976917267	351.0	112.0	353	114	1
1.7	2015_Jul_21_1414	s	s	6	2	Capacity	17	RC	2	0	23VC	1	0	0.446651935577	-228.0	-382.0	-229	-378	1
1.7	2015_Jul_21_1414	s	s	6	2	Capacity	18	ABS	1	0	24MC	0	1	5.62568593025	None	None	None	None	1
1.7	2015_Jul_21_1414	s	s	6	2	Capacity	19	ABS	2	0	24VC	0	1	1.34120392799	None	None	None	None	1
1.7	2015_Jul_21_1414	s	s	6	2	Capacity	20	RC	1	0	23MC	1	0	8.08939504623	174.0	357.0	175	360	1
1.7	2015_Jul_21_1414	s	s	6	2	Capacity	21	RC	1	0	23MC	0	1	6.03770089149	539.0	-173.0	None	None	0
1.7	2015_Jul_21_1414	s	s	6	2	Capacity	22	ABS	1	0	24MC	0	1	2.38358592987	None	None	None	None	1
1.7	2015_Jul_21_1414	s	s	6	2	Capacity	23	ABS	2	0	24VC	0	1	0.971479892731	None	None	None	None	1
1.7	2015_Jul_21_1414	s	s	6	2	Capacity	24	RC	2	0	23VC	1	0	0.552597045898	94.0	205.0	96	205	1
1.7	2015_Jul_21_1414	s	s	6	2	Capacity	25	RC	1	0	23MC	1	0	3.61954808235	-189.0	-300.0	-187	-306	1
1.7	2015_Jul_21_1414	s	s	6	2	Capacity	26	RC	2	0	23VC	1	0	0.52360701561	-378.0	-62.0	-385	-63	1
1.7	2015_Jul_21_1414	s	s	6	2	Capacity	27	ABS	1	0	24MC	0	1	1.85907292366	None	None	None	None	1
1.7	2015_Jul_21_1414	s	s	6	2	Capacity	28	ABS	2	0	24VC	0	1	0.705643892288	None	None	None	None	1
1.7	2015_Jul_21_1414	s	s	6	2	Capacity	29	ABS	1	0	24MC	1	0	7.81007194519	None	None	281	-84	0
1.7	2015_Jul_21_1414	s	s	6	2	Capacity	30	RC	1	0	23MC	1	0	2.90137910843	259.0	244.0	253	245	1
1.7	2015_Jul_21_1414	s	s	6	2	Capacity	31	ABS	2	0	24VC	0	1	0.759542942047	None	None	None	None	1
1.7	2015_Jul_21_1414	s	s	6	2	Capacity	32	RC	2	0	23VC	1	0	1.38333392143	482.0	154.0	494	157	1
1.7	2015_Jul_21_1414	s	s	6	2	Capacity	33	ABS	2	0	24VC	0	1	0.811541080475	None	None	None	None	1
1.7	2015_Jul_21_1414	s	s	6	2	Capacity	34	ABS	1	0	24MC	0	1	8.73992991447	None	None	None	None	1
1.7	2015_Jul_21_1414	s	s	6	2	Capacity	35	RC	1	0	23MC	1	0	1.10085391998	-212.0	85.0	-205	83	1
1.7	2015_Jul_21_1414	s	s	6	2	Capacity	36	RC	2	0	23VC	1	0	0.607964992523	-507.0	-132.0	-509	-126	1
1.7	2015_Jul_21_1414	s	s	6	2	Capacity	37	ABS	2	0	24VC	0	1	0.806449890137	None	None	None	None	1
1.7	2015_Jul_21_1414	s	s	6	2	Capacity	38	RC	2	0	23VC	1	0	0.529016017914	56.0	360.0	59	353	1
1.7	2015_Jul_21_1414	s	s	6	2	Capacity	39	ABS	1	0	24MC	0	1	0.73829293251	None	None	None	None	1
1.7	2015_Jul_21_1414	s	s	6	2	Capacity	40	RC	1	0	23MC	1	0	1.23528790474	-451.0	155.0	3	57	0
1.7	2015_Jul_21_1414	s	s	6	2	Capacity	41	ABS	1	0	24MC	0	1	3.00087785721	None	None	None	None	1
1.7	2015_Jul_21_1414	s	s	6	2	Capacity	42	RC	2	0	23VC	1	0	0.629354953766	-177.0	2.0	-177	-2	1
1.7	2015_Jul_21_1414	s	s	6	2	Capacity	43	RC	1	0	23MC	1	0	4.49611592293	54.0	-181.0	63	-175	1
1.7	2015_Jul_21_1414	s	s	6	2	Capacity	44	ABS	2	0	24VC	0	1	0.693850040436	None	None	None	None	1
1.7	2015_Jul_21_1414	s	s	6	2	Capacity	45	ABS	2	0	24VC	0	1	0.95308303833	None	None	None	None	1
1.7	2015_Jul_21_1414	s	s	6	2	Capacity	46	RC	2	0	23VC	1	0	0.853981018066	507.0	-394.0	497	-387	1
1.7	2015_Jul_21_1414	s	s	6	2	Capacity	47	ABS	1	0	24MC	0	1	1.20845103264	None	None	None	None	1
1.7	2015_Jul_21_1414	s	s	6	2	Capacity	48	RC	1	0	23MC	1	0	1.38828206062	-418.0	-124.0	-423	-125	1
1.7	2015_Jul_21_1414	s	s	6	2	Capacity	49	ABS	1	0	24MC	0	1	1.96504998207	None	None	None	None	1
1.7	2015_Jul_21_1414	s	s	6	2	Capacity	50	ABS	2	0	24VC	0	1	0.611414194107	None	None	None	None	1
1.7	2015_Jul_21_1414	s	s	6	2	Capacity	51	RC	2	0	23VC	1	0	0.500537872314	320.0	7.0	325	6	1
1.7	2015_Jul_21_1414	s	s	6	2	Capacity	52	RC	1	0	23MC	1	0	0.929262161255	296.0	193.0	294	191	1
1.7	2015_Jul_21_1414	s	s	6	2	Capacity	53	ABS	1	0	24MC	0	1	3.51877379417	None	None	None	None	1
1.7	2015_Jul_21_1414	s	s	6	2	Capacity	54	ABS	2	0	24VC	0	1	0.678610086441	None	None	None	None	1
1.7	2015_Jul_21_1414	s	s	6	2	Capacity	55	RC	2	0	23VC	1	0	0.529010057449	-117.0	189.0	-106	192	1
1.7	2015_Jul_21_1414	s	s	6	2	Capacity	56	RC	1	0	23MC	0	1	2.0944788456	216.0	169.0	None	None	0
1.7	2015_Jul_21_1414	s	s	6	2	Capacity	57	RC	1	0	23MC	0	1	2.56532406807	-455.0	223.0	None	None	0
1.7	2015_Jul_21_1414	s	s	6	2	Capacity	58	ABS	2	0	24VC	0	1	0.905405044556	None	None	None	None	1
1.7	2015_Jul_21_1414	s	s	6	2	Capacity	59	ABS	1	0	24MC	0	1	2.71833205223	None	None	None	None	1
1.7	2015_Jul_21_1414	s	s	6	2	Capacity	60	RC	2	0	23VC	1	0	0.552365064621	-32.0	-355.0	-32	-353	1
1.7	2015_Jul_21_1414	s	s	6	2	Capacity	61	RC	1	0	23MC	0	1	2.33827018738	-385.0	375.0	None	None	0
1.7	2015_Jul_21_1414	s	s	6	2	Capacity	62	ABS	1	0	24MC	0	1	2.49053502083	None	None	None	None	1
1.7	2015_Jul_21_1414	s	s	6	2	Capacity	63	RC	2	0	23VC	1	0	0.571142911911	-380.0	-48.0	-379	-47	1
1.7	2015_Jul_21_1414	s	s	6	2	Capacity	64	ABS	2	0	24VC	0	1	1.08937311172	None	None	None	None	1
1.7	2015_Jul_21_1414	s	s	6	2	Capacity	65	RC	1	0	23MC	0	1	6.01179385185	234.0	55.0	None	None	0
1.7	2015_Jul_21_1414	s	s	6	2	Capacity	66	RC	2	0	23VC	1	0	0.658492803574	-32.0	361.0	-38	359	1
1.7	2015_Jul_21_1414	s	s	6	2	Capacity	67	ABS	2	0	24VC	0	1	0.752789974213	None	None	None	None	1
1.7	2015_Jul_21_1414	s	s	6	2	Capacity	68	ABS	1	0	24MC	1	0	4.61340904236	None	None	267	35	0
1.7	2015_Jul_21_1414	s	s	6	2	Capacity	69	ABS	1	0	24MC	0	1	3.55994081497	None	None	None	None	1
1.7	2015_Jul_21_1414	s	s	6	2	Capacity	70	ABS	2	0	24VC	0	1	0.929203033447	None	None	None	None	1
1.7	2015_Jul_21_1414	s	s	6	2	Capacity	71	RC	2	0	23VC	1	0	0.738353013992	-308.0	325.0	-305	324	1
1.7	2015_Jul_21_1414	s	s	6	2	Capacity	72	RC	1	0	23MC	0	1	6.67323589325	46.0	49.0	None	None	0
1.7	2015_Jul_21_1414	s	s	6	2	Capacity	73	RC	2	0	23VC	1	0	0.51202583313	-387.0	-166.0	-387	-170	1
1.7	2015_Jul_21_1414	s	s	6	2	Capacity	74	ABS	1	0	24MC	0	1	2.97728419304	None	None	None	None	1
1.7	2015_Jul_21_1414	s	s	6	2	Capacity	75	ABS	2	0	24VC	0	1	0.626887083054	None	None	None	None	1
1.7	2015_Jul_21_1414	s	s	6	2	Capacity	76	RC	1	0	23MC	1	0	0.929397821426	-21.0	371.0	-304	-223	0
1.7	2015_Jul_21_1414	s	s	6	2	Capacity	77	RC	1	0	23MC	1	0	0.782366037369	-225.0	23.0	-222	27	1
1.7	2015_Jul_21_1414	s	s	6	2	Capacity	78	ABS	2	0	24VC	0	1	0.538171052933	None	None	None	None	1
1.7	2015_Jul_21_1414	s	s	6	2	Capacity	79	RC	2	0	23VC	1	0	0.535439014435	176.0	-273.0	173	-271	1
1.7	2015_Jul_21_1414	s	s	6	2	Capacity	80	ABS	1	0	24MC	0	1	1.3731610775	None	None	None	None	1
1.7	2015_Jul_21_1414	s	s	6	2	Capacity	81	ABS	1	0	24MC	0	1	1.85613203049	None	None	None	None	1
1.7	2015_Jul_21_1414	s	s	6	2	Capacity	82	RC	1	0	23MC	1	0	1.52443194389	-285.0	-161.0	-286	-161	1
1.7	2015_Jul_21_1414	s	s	6	2	Capacity	83	ABS	2	0	24VC	0	1	0.703085899353	None	None	None	None	1
1.7	2015_Jul_21_1414	s	s	6	2	Capacity	84	RC	2	0	23VC	1	0	0.576334953308	-256.0	-210.0	-261	-209	1
1.7	2015_Jul_21_1414	s	s	6	2	Capacity	85	ABS	1	0	24MC	0	1	0.983055830002	None	None	None	None	1
1.7	2015_Jul_21_1414	s	s	6	2	Capacity	86	RC	1	0	23MC	1	0	1.91315197945	469.0	-232.0	-209	-373	0
1.7	2015_Jul_21_1414	s	s	6	2	Capacity	87	RC	2	0	23VC	1	0	0.594212055206	302.0	187.0	303	186	1
1.7	2015_Jul_21_1414	s	s	6	2	Capacity	88	ABS	2	0	24VC	0	1	0.517341136932	None	None	None	None	1
1.7	2015_Jul_21_1414	s	s	6	2	Capacity	89	ABS	2	0	24VC	0	1	0.594499111176	None	None	None	None	1
1.7	2015_Jul_21_1414	s	s	6	2	Capacity	90	RC	1	0	23MC	1	0	0.912011146545	-408.0	-128.0	-406	-135	1
1.7	2015_Jul_21_1414	s	s	6	2	Capacity	91	ABS	1	0	24MC	0	1	1.44132804871	None	None	None	None	1
1.7	2015_Jul_21_1414	s	s	6	2	Capacity	92	RC	2	0	23VC	1	0	0.477003097534	-255.0	-23.0	-249	-22	1
1.7	2015_Jul_21_1414	s	s	6	2	SIC	1	RC	1	2	23MD	1	0	0.641320943832	-74.0	-251.0	-66	-247	1
1.7	2015_Jul_21_1414	s	s	6	2	SIC	2	ABS	1	1	24MO	0	1	1.64720797539	None	None	None	None	1
1.7	2015_Jul_21_1414	s	s	6	2	SIC	3	RC	2	2	23VD	1	0	0.467222929001	-423.0	-81.0	-422	-90	1
1.7	2015_Jul_21_1414	s	s	6	2	SIC	4	RC	0	2	23RD	1	0	0.747699022293	-249.0	-271.0	-257	-274	1
1.7	2015_Jul_21_1414	s	s	6	2	SIC	5	RC	1	1	23MO	0	1	1.88027095795	-433.0	339.0	None	None	0
1.7	2015_Jul_21_1414	s	s	6	2	SIC	6	RC	0	1	23RO	0	1	3.91895389557	-463.0	201.0	None	None	0
1.7	2015_Jul_21_1414	s	s	6	2	SIC	7	RC	2	0	23VC	1	0	0.493708133698	300.0	82.0	299	82	1
1.7	2015_Jul_21_1414	s	s	6	2	SIC	8	ABS	2	2	24VD	0	1	0.587888002396	None	None	None	None	1
1.7	2015_Jul_21_1414	s	s	6	2	SIC	9	RC	1	0	23MC	1	0	0.713751077652	351.0	159.0	4	-27	0
1.7	2015_Jul_21_1414	s	s	6	2	SIC	10	RC	2	1	23VO	1	0	0.482002973557	271.0	-74.0	270	-72	1
1.7	2015_Jul_21_1414	s	s	6	2	SIC	11	ABS	2	0	24VC	0	1	0.682057142258	None	None	None	None	1
1.7	2015_Jul_21_1414	s	s	6	2	SIC	12	ABS	2	1	24VO	0	1	0.858571052551	None	None	None	None	1
1.7	2015_Jul_21_1414	s	s	6	2	SIC	13	ABS	0	1	24RO	0	1	3.12530183792	None	None	None	None	1
1.7	2015_Jul_21_1414	s	s	6	2	SIC	14	ABS	0	2	24RD	0	1	1.14108419418	None	None	None	None	1
1.7	2015_Jul_21_1414	s	s	6	2	SIC	15	ABS	1	2	24MD	0	1	1.11245799065	None	None	None	None	1
1.7	2015_Jul_21_1414	s	s	6	2	SIC	16	ABS	1	0	24MC	0	1	2.84779787064	None	None	None	None	1
1.7	2015_Jul_21_1414	s	s	6	2	SIC	17	ABS	2	0	24VC	0	1	0.917376041412	None	None	None	None	1
1.7	2015_Jul_21_1414	s	s	6	2	SIC	18	RC	2	1	23VO	1	0	0.50550198555	-243.0	76.0	-237	78	1
1.7	2015_Jul_21_1414	s	s	6	2	SIC	19	ABS	2	2	24VD	0	1	0.505545854568	None	None	None	None	1
1.7	2015_Jul_21_1414	s	s	6	2	SIC	20	ABS	1	2	24MD	0	1	1.40012001991	None	None	None	None	1
1.7	2015_Jul_21_1414	s	s	6	2	SIC	21	RC	2	2	23VD	1	0	0.442260980606	-352.0	-72.0	-357	-76	1
1.7	2015_Jul_21_1414	s	s	6	2	SIC	22	RC	0	2	23RD	1	0	0.794715881348	-356.0	397.0	-353	402	1
1.7	2015_Jul_21_1414	s	s	6	2	SIC	23	ABS	2	1	24VO	0	1	0.700518846512	None	None	None	None	1
1.7	2015_Jul_21_1414	s	s	6	2	SIC	24	RC	1	2	23MD	1	0	0.453440904617	-183.0	34.0	-184	36	1
1.7	2015_Jul_21_1414	s	s	6	2	SIC	25	RC	0	1	23RO	1	0	4.44861102104	-56.0	114.0	-55	110	1
1.7	2015_Jul_21_1414	s	s	6	2	SIC	26	ABS	0	2	24RD	0	1	0.856324911118	None	None	None	None	1
1.7	2015_Jul_21_1414	s	s	6	2	SIC	27	RC	1	0	23MC	0	1	2.0426659584	367.0	213.0	None	None	0
1.7	2015_Jul_21_1414	s	s	6	2	SIC	28	RC	2	0	23VC	1	0	0.940956115723	319.0	-205.0	307	-202	1
1.7	2015_Jul_21_1414	s	s	6	2	SIC	29	ABS	0	1	24RO	0	1	3.69196200371	None	None	None	None	1
1.7	2015_Jul_21_1414	s	s	6	2	SIC	30	RC	1	1	23MO	1	0	1.08221507072	458.0	118.0	455	119	1
1.7	2015_Jul_21_1414	s	s	6	2	SIC	31	ABS	1	1	24MO	0	1	2.23945498466	None	None	None	None	1
1.7	2015_Jul_21_1414	s	s	6	2	SIC	32	ABS	1	0	24MC	1	0	1.78848481178	None	None	-59	-79	0
1.7	2015_Jul_21_1414	s	s	6	2	SIC	33	RC	1	0	23MC	1	0	1.65552401543	-84.0	248.0	-78	253	1
1.7	2015_Jul_21_1414	s	s	6	2	SIC	34	RC	2	1	23VO	1	0	0.497421979904	487.0	-122.0	486	-119	1
1.7	2015_Jul_21_1414	s	s	6	2	SIC	35	RC	2	0	23VC	1	0	0.441489219666	21.0	208.0	21	207	1
1.7	2015_Jul_21_1414	s	s	6	2	SIC	36	ABS	2	0	24VC	0	1	0.666811943054	None	None	None	None	1
1.7	2015_Jul_21_1414	s	s	6	2	SIC	37	ABS	1	2	24MD	0	1	0.787981987	None	None	None	None	1
1.7	2015_Jul_21_1414	s	s	6	2	SIC	38	RC	0	2	23RD	1	0	0.571241140366	-211.0	140.0	-203	138	1
1.7	2015_Jul_21_1414	s	s	6	2	SIC	39	ABS	1	1	24MO	0	1	1.73558807373	None	None	None	None	1
1.7	2015_Jul_21_1414	s	s	6	2	SIC	40	RC	1	1	23MO	1	0	1.31770706177	378.0	-192.0	382	-187	1
1.7	2015_Jul_21_1414	s	s	6	2	SIC	41	RC	0	1	23RO	0	1	2.9890859127	-153.0	361.0	None	None	0
1.7	2015_Jul_21_1414	s	s	6	2	SIC	42	ABS	0	1	24RO	0	1	3.31355619431	None	None	None	None	1
1.7	2015_Jul_21_1414	s	s	6	2	SIC	43	RC	1	2	23MD	1	0	0.541038990021	477.0	366.0	471	365	1
1.7	2015_Jul_21_1414	s	s	6	2	SIC	44	ABS	0	2	24RD	0	1	0.759244918823	None	None	None	None	1
1.7	2015_Jul_21_1414	s	s	6	2	SIC	45	ABS	1	0	24MC	0	1	2.07106614113	None	None	None	None	1
1.7	2015_Jul_21_1414	s	s	6	2	SIC	46	ABS	2	1	24VO	0	1	0.606354951859	None	None	None	None	1
1.7	2015_Jul_21_1414	s	s	6	2	SIC	47	ABS	2	2	24VD	0	1	0.479311943054	None	None	None	None	1
1.7	2015_Jul_21_1414	s	s	6	2	SIC	48	RC	2	2	23VD	1	0	0.482239961624	-441.0	53.0	-438	55	1
1.7	2015_Jul_21_1414	s	s	6	2	SIC	49	ABS	2	1	24VO	0	1	0.635053157806	None	None	None	None	1
1.7	2015_Jul_21_1414	s	s	6	2	SIC	50	ABS	0	1	24RO	0	1	1.65307998657	None	None	None	None	1
1.7	2015_Jul_21_1414	s	s	6	2	SIC	51	RC	0	1	23RO	0	1	2.21904611588	-396.0	149.0	None	None	0
1.7	2015_Jul_21_1414	s	s	6	2	SIC	52	RC	2	0	23VC	1	0	0.541182041168	299.0	-181.0	304	-177	1
1.7	2015_Jul_21_1414	s	s	6	2	SIC	53	ABS	1	1	24MO	0	1	4.73480010033	None	None	None	None	1
1.7	2015_Jul_21_1414	s	s	6	2	SIC	54	ABS	1	2	24MD	0	1	0.820252180099	None	None	None	None	1
1.7	2015_Jul_21_1414	s	s	6	2	SIC	55	RC	1	1	23MO	1	0	1.1058549881	-234.0	154.0	-235	153	1
1.7	2015_Jul_21_1414	s	s	6	2	SIC	56	ABS	2	2	24VD	0	1	0.547508001328	None	None	None	None	1
1.7	2015_Jul_21_1414	s	s	6	2	SIC	57	RC	0	2	23RD	1	0	0.693655014038	441.0	236.0	433	236	1
1.7	2015_Jul_21_1414	s	s	6	2	SIC	58	ABS	2	0	24VC	0	1	0.68215918541	None	None	None	None	1
1.7	2015_Jul_21_1414	s	s	6	2	SIC	59	RC	2	1	23VO	1	0	0.552581071854	527.0	385.0	523	383	1
1.7	2015_Jul_21_1414	s	s	6	2	SIC	60	RC	2	2	23VD	1	0	0.517265081406	-397.0	397.0	-394	402	1
1.7	2015_Jul_21_1414	s	s	6	2	SIC	61	RC	1	0	23MC	1	0	2.76560688019	182.0	-232.0	137	284	0
1.7	2015_Jul_21_1414	s	s	6	2	SIC	62	RC	1	2	23MD	1	0	0.576107025146	6.0	-336.0	0	-338	1
1.7	2015_Jul_21_1414	s	s	6	2	SIC	63	ABS	1	0	24MC	0	1	2.05435109138	None	None	None	None	1
1.7	2015_Jul_21_1414	s	s	6	2	SIC	64	ABS	0	2	24RD	0	1	5.31964588165	None	None	None	None	1
1.7	2015_Jul_21_1414	s	s	6	2	SIC	65	RC	1	2	23MD	1	0	0.548162937164	-305.0	-323.0	-304	-323	1
1.7	2015_Jul_21_1414	s	s	6	2	SIC	66	RC	0	1	23RO	0	1	11.3347699642	142.0	-370.0	None	None	0
1.7	2015_Jul_21_1414	s	s	6	2	SIC	67	RC	0	2	23RD	1	0	0.594762086868	-334.0	-145.0	-326	-144	1
1.7	2015_Jul_21_1414	s	s	6	2	SIC	68	RC	2	2	23VD	1	0	0.493692874908	-196.0	-241.0	-195	-243	1
1.7	2015_Jul_21_1414	s	s	6	2	SIC	69	ABS	0	2	24RD	1	0	0.723214864731	None	None	103	123	0
1.7	2015_Jul_21_1414	s	s	6	2	SIC	70	ABS	2	2	24VD	0	1	0.546965122223	None	None	None	None	1
1.7	2015_Jul_21_1414	s	s	6	2	SIC	71	RC	2	0	23VC	1	0	0.653925180435	206.0	-357.0	206	-362	1
1.7	2015_Jul_21_1414	s	s	6	2	SIC	72	ABS	1	0	24MC	0	1	0.761270046234	None	None	None	None	1
1.7	2015_Jul_21_1414	s	s	6	2	SIC	73	RC	1	0	23MC	0	1	3.08319997787	-251.0	382.0	None	None	0
1.7	2015_Jul_21_1414	s	s	6	2	SIC	74	RC	2	1	23VO	1	0	0.493734121323	127.0	-8.0	134	-9	1
1.7	2015_Jul_21_1414	s	s	6	2	SIC	75	RC	1	1	23MO	1	0	1.71460199356	-430.0	286.0	-432	292	1
1.7	2015_Jul_21_1414	s	s	6	2	SIC	76	ABS	1	2	24MD	0	1	0.689106941223	None	None	None	None	1
1.7	2015_Jul_21_1414	s	s	6	2	SIC	77	ABS	1	1	24MO	0	1	2.58888602257	None	None	None	None	1
1.7	2015_Jul_21_1414	s	s	6	2	SIC	78	ABS	2	0	24VC	0	1	1.03523397446	None	None	None	None	1
1.7	2015_Jul_21_1414	s	s	6	2	SIC	79	ABS	0	1	24RO	0	1	8.41044402122	None	None	None	None	1
1.7	2015_Jul_21_1414	s	s	6	2	SIC	80	ABS	2	1	24VO	0	1	0.665271043777	None	None	None	None	1
1.7	2015_Jul_21_1414	s	s	6	2	SIC	81	ABS	0	2	24RD	0	1	0.819844007492	None	None	None	None	1
1.7	2015_Jul_21_1414	s	s	6	2	SIC	82	RC	0	2	23RD	1	0	0.934590101242	-322.0	354.0	-318	356	1
1.7	2015_Jul_21_1414	s	s	6	2	SIC	83	RC	1	2	23MD	1	0	0.712298154831	164.0	407.0	162	404	1
1.7	2015_Jul_21_1414	s	s	6	2	SIC	84	RC	0	1	23RO	1	0	0.493683099747	-120.0	160.0	-117	148	1
1.7	2015_Jul_21_1414	s	s	6	2	SIC	85	ABS	2	1	24VO	0	1	0.712355136871	None	None	None	None	1
1.7	2015_Jul_21_1414	s	s	6	2	SIC	86	ABS	1	2	24MD	0	1	0.693815946579	None	None	None	None	1
1.7	2015_Jul_21_1414	s	s	6	2	SIC	87	RC	2	2	23VD	1	0	0.475775003433	203.0	335.0	200	338	1
1.7	2015_Jul_21_1414	s	s	6	2	SIC	88	RC	1	0	23MC	0	1	1.84401321411	477.0	324.0	None	None	0
1.7	2015_Jul_21_1414	s	s	6	2	SIC	89	ABS	1	1	24MO	0	1	3.95425391197	None	None	None	None	1
1.7	2015_Jul_21_1414	s	s	6	2	SIC	90	ABS	2	2	24VD	0	1	0.630028963089	None	None	None	None	1
1.7	2015_Jul_21_1414	s	s	6	2	SIC	91	ABS	2	0	24VC	0	1	0.611415147781	None	None	None	None	1
1.7	2015_Jul_21_1414	s	s	6	2	SIC	92	RC	1	1	23MO	0	1	1.8944029808	388.0	276.0	None	None	0
1.7	2015_Jul_21_1414	s	s	6	2	SIC	93	ABS	1	0	24MC	0	1	1.93891501427	None	None	None	None	1
1.7	2015_Jul_21_1414	s	s	6	2	SIC	94	RC	2	0	23VC	1	0	0.535851955414	140.0	355.0	147	350	1
1.7	2015_Jul_21_1414	s	s	6	2	SIC	95	RC	2	1	23VO	1	0	0.865067005157	-193.0	43.0	-192	47	1
1.7	2015_Jul_21_1414	s	s	6	2	SIC	96	ABS	0	1	24RO	0	1	1.41817617416	None	None	None	None	1
1.7	2015_Jul_21_1414	s	s	6	2	SIC	97	ABS	1	1	24MO	0	1	1.61197710037	None	None	None	None	1
1.7	2015_Jul_21_1414	s	s	6	2	SIC	98	RC	0	1	23RO	0	1	1.56160306931	-268.0	-288.0	None	None	0
1.7	2015_Jul_21_1414	s	s	6	2	SIC	99	ABS	1	0	24MC	0	1	2.47798895836	None	None	None	None	1
1.7	2015_Jul_21_1414	s	s	6	2	SIC	100	ABS	0	1	24RO	0	1	3.00081181526	None	None	None	None	1
1.7	2015_Jul_21_1414	s	s	6	2	SIC	101	ABS	2	1	24VO	0	1	1.29113292694	None	None	None	None	1
1.7	2015_Jul_21_1414	s	s	6	2	SIC	102	RC	0	2	23RD	1	0	0.658457994461	48.0	349.0	48	350	1
1.7	2015_Jul_21_1414	s	s	6	2	SIC	103	ABS	0	2	24RD	0	1	1.32198905945	None	None	None	None	1
1.7	2015_Jul_21_1414	s	s	6	2	SIC	104	ABS	2	0	24VC	0	1	0.817729949951	None	None	None	None	1
1.7	2015_Jul_21_1414	s	s	6	2	SIC	105	RC	1	1	23MO	1	0	0.723994016647	-57.0	202.0	-57	199	1
1.7	2015_Jul_21_1414	s	s	6	2	SIC	106	RC	1	0	23MC	0	1	1.48239207268	482.0	407.0	None	None	0
1.7	2015_Jul_21_1414	s	s	6	2	SIC	107	RC	2	2	23VD	1	0	0.511568069458	57.0	315.0	59	317	1
1.7	2015_Jul_21_1414	s	s	6	2	SIC	108	RC	2	1	23VO	1	0	0.576250076294	258.0	47.0	262	49	1
1.7	2015_Jul_21_1414	s	s	6	2	SIC	109	RC	1	2	23MD	1	0	0.488743066788	128.0	-78.0	125	-70	1
1.7	2015_Jul_21_1414	s	s	6	2	SIC	110	RC	2	0	23VC	1	0	0.488573074341	100.0	-214.0	98	-215	1
1.7	2015_Jul_21_1414	s	s	6	2	SIC	111	ABS	1	2	24MD	0	1	1.15289115906	None	None	None	None	1
1.7	2015_Jul_21_1414	s	s	6	2	SIC	112	ABS	2	2	24VD	0	1	0.587914943695	None	None	None	None	1
1.7	2015_Jul_21_1414	s	s	6	2	SIC	113	ABS	1	1	24MO	0	1	3.18366503716	None	None	None	None	1
1.7	2015_Jul_21_1414	s	s	6	2	SIC	114	RC	0	2	23RD	1	0	0.665485143661	-328.0	219.0	-334	215	1
1.7	2015_Jul_21_1414	s	s	6	2	SIC	115	RC	2	0	23VC	1	0	0.430455207825	297.0	-193.0	294	-188	1
1.7	2015_Jul_21_1414	s	s	6	2	SIC	116	RC	0	1	23RO	0	1	2.35347604752	257.0	401.0	None	None	0
1.7	2015_Jul_21_1414	s	s	6	2	SIC	117	ABS	2	1	24VO	0	1	0.505479097366	None	None	None	None	1
1.7	2015_Jul_21_1414	s	s	6	2	SIC	118	ABS	0	2	24RD	0	1	1.18817710876	None	None	None	None	1
1.7	2015_Jul_21_1414	s	s	6	2	SIC	119	RC	1	2	23MD	1	0	0.576110124588	-338.0	-96.0	-331	-87	1
1.7	2015_Jul_21_1414	s	s	6	2	SIC	120	RC	1	1	23MO	1	0	0.864534139633	-413.0	36.0	-408	31	1
1.7	2015_Jul_21_1414	s	s	6	2	SIC	121	RC	1	0	23MC	0	1	2.18382096291	-229.0	-268.0	None	None	0
1.7	2015_Jul_21_1414	s	s	6	2	SIC	122	ABS	1	2	24MD	0	1	0.677039861679	None	None	None	None	1
1.7	2015_Jul_21_1414	s	s	6	2	SIC	123	ABS	1	0	24MC	0	1	1.77328085899	None	None	None	None	1
1.7	2015_Jul_21_1414	s	s	6	2	SIC	124	ABS	2	0	24VC	1	0	0.594523906708	None	None	-23	-52	0
1.7	2015_Jul_21_1414	s	s	6	2	SIC	125	RC	2	2	23VD	1	0	0.68198800087	-213.0	-391.0	-206	-393	1
1.7	2015_Jul_21_1414	s	s	6	2	SIC	126	ABS	0	1	24RO	0	1	1.80026912689	None	None	None	None	1
1.7	2015_Jul_21_1414	s	s	6	2	SIC	127	ABS	2	2	24VD	0	1	0.623224020004	None	None	None	None	1
1.7	2015_Jul_21_1414	s	s	6	2	SIC	128	RC	2	1	23VO	1	0	0.500669002533	370.0	128.0	379	135	1
1.7	2015_Jul_21_1414	s	s	6	2	SIC	129	ABS	2	2	24VD	0	1	0.841380119324	None	None	None	None	1
1.7	2015_Jul_21_1414	s	s	6	2	SIC	130	RC	2	0	23VC	1	0	0.747931957245	223.0	-382.0	223	-383	1
1.7	2015_Jul_21_1414	s	s	6	2	SIC	131	RC	1	2	23MD	1	0	0.623194932938	236.0	350.0	240	351	1
1.7	2015_Jul_21_1414	s	s	6	2	SIC	132	RC	2	1	23VO	1	0	0.50587105751	-281.0	345.0	-282	344	1
1.7	2015_Jul_21_1414	s	s	6	2	SIC	133	ABS	1	2	24MD	0	1	0.7879550457	None	None	None	None	1
1.7	2015_Jul_21_1414	s	s	6	2	SIC	134	RC	0	1	23RO	0	1	2.83335399628	439.0	37.0	None	None	0
1.7	2015_Jul_21_1414	s	s	6	2	SIC	135	ABS	2	0	24VC	0	1	0.523377895355	None	None	None	None	1
1.7	2015_Jul_21_1414	s	s	6	2	SIC	136	RC	2	2	23VD	1	0	0.576108932495	-103.0	-385.0	-98	-381	1
1.7	2015_Jul_21_1414	s	s	6	2	SIC	137	ABS	0	2	24RD	0	1	0.846888065338	None	None	None	None	1
1.7	2015_Jul_21_1414	s	s	6	2	SIC	138	RC	1	0	23MC	0	1	0.735702037811	7.0	-395.0	None	None	0
1.7	2015_Jul_21_1414	s	s	6	2	SIC	139	RC	0	2	23RD	1	0	0.682018995285	-360.0	-342.0	-362	-352	1
1.7	2015_Jul_21_1414	s	s	6	2	SIC	140	ABS	2	1	24VO	0	1	0.652734994888	None	None	None	None	1
1.7	2015_Jul_21_1414	s	s	6	2	SIC	141	RC	1	1	23MO	1	0	1.36474895477	-72.0	240.0	-66	242	1
1.7	2015_Jul_21_1414	s	s	6	2	SIC	142	ABS	1	1	24MO	0	1	2.95106697083	None	None	None	None	1
1.7	2015_Jul_21_1414	s	s	6	2	SIC	143	ABS	0	1	24RO	0	1	8.96345686913	None	None	None	None	1
1.7	2015_Jul_21_1414	s	s	6	2	SIC	144	ABS	1	0	24MC	0	1	4.06023716927	None	None	None	None	1
1.7	2015_Jul_21_1414	s	s	6	2	SIC	145	ABS	1	1	24MO	0	1	2.51383304596	None	None	None	None	1
1.7	2015_Jul_21_1414	s	s	6	2	SIC	146	RC	2	1	23VO	1	0	0.549556016922	-486.0	-56.0	-486	-59	1
1.7	2015_Jul_21_1414	s	s	6	2	SIC	147	ABS	1	0	24MC	0	1	1.60690999031	None	None	None	None	1
1.7	2015_Jul_21_1414	s	s	6	2	SIC	148	RC	2	2	23VD	1	0	0.535798072815	104.0	-11.0	118	-6	1
1.7	2015_Jul_21_1414	s	s	6	2	SIC	149	RC	1	2	23MD	1	0	0.517327070236	-317.0	-75.0	-309	-72	1
1.7	2015_Jul_21_1414	s	s	6	2	SIC	150	RC	0	2	23RD	1	0	0.717345952988	497.0	286.0	498	284	1
1.7	2015_Jul_21_1414	s	s	6	2	SIC	151	RC	2	0	23VC	1	0	0.512284994125	522.0	271.0	527	274	1
1.7	2015_Jul_21_1414	s	s	6	2	SIC	152	RC	1	1	23MO	1	0	1.76244521141	-61.0	81.0	-58	78	1
1.7	2015_Jul_21_1414	s	s	6	2	SIC	153	ABS	2	2	24VD	0	1	0.690259218216	None	None	None	None	1
1.7	2015_Jul_21_1414	s	s	6	2	SIC	154	ABS	0	2	24RD	0	1	0.717397212982	None	None	None	None	1
1.7	2015_Jul_21_1414	s	s	6	2	SIC	155	ABS	2	1	24VO	0	1	0.705715894699	None	None	None	None	1
1.7	2015_Jul_21_1414	s	s	6	2	SIC	156	ABS	1	2	24MD	0	1	0.764373779297	None	None	None	None	1
1.7	2015_Jul_21_1414	s	s	6	2	SIC	157	RC	0	1	23RO	0	1	2.16513991356	143.0	-133.0	None	None	0
1.7	2015_Jul_21_1414	s	s	6	2	SIC	158	ABS	0	1	24RO	0	1	3.90222191811	None	None	None	None	1
1.7	2015_Jul_21_1414	s	s	6	2	SIC	159	RC	1	0	23MC	0	1	2.81259608269	418.0	271.0	None	None	0
1.7	2015_Jul_21_1414	s	s	6	2	SIC	160	ABS	2	0	24VC	0	1	0.73764705658	None	None	None	None	1
1.7	2015_Jul_21_1414	s	s	6	2	SIC	161	ABS	1	2	24MD	0	1	0.608608007431	None	None	None	None	1
1.7	2015_Jul_21_1414	s	s	6	2	SIC	162	RC	2	2	23VD	1	0	0.576086997986	535.0	-41.0	539	-43	1
1.7	2015_Jul_21_1414	s	s	6	2	SIC	163	ABS	1	1	24MO	0	1	1.04729700089	None	None	None	None	1
1.7	2015_Jul_21_1414	s	s	6	2	SIC	164	ABS	0	2	24RD	0	1	0.691102981567	None	None	None	None	1
1.7	2015_Jul_21_1414	s	s	6	2	SIC	165	RC	0	1	23RO	0	1	2.18853211403	-498.0	-255.0	None	None	0
1.7	2015_Jul_21_1414	s	s	6	2	SIC	166	RC	1	2	23MD	1	0	0.573267936707	-16.0	150.0	-18	147	1
1.7	2015_Jul_21_1414	s	s	6	2	SIC	167	ABS	1	0	24MC	0	1	2.03567790985	None	None	None	None	1
1.7	2015_Jul_21_1414	s	s	6	2	SIC	168	ABS	0	1	24RO	0	1	3.31860899925	None	None	None	None	1
1.7	2015_Jul_21_1414	s	s	6	2	SIC	169	RC	2	0	23VC	1	0	0.500519037247	174.0	381.0	174	379	1
1.7	2015_Jul_21_1414	s	s	6	2	SIC	170	ABS	2	2	24VD	0	1	0.77064204216	None	None	None	None	1
1.7	2015_Jul_21_1414	s	s	6	2	SIC	171	RC	2	1	23VO	1	0	0.564410209656	380.0	-88.0	385	-85	1
1.7	2015_Jul_21_1414	s	s	6	2	SIC	172	RC	1	0	23MC	0	1	4.09067583084	-197.0	320.0	None	None	0
1.7	2015_Jul_21_1414	s	s	6	2	SIC	173	RC	0	2	23RD	1	0	0.873907804489	168.0	-354.0	156	-346	1
1.7	2015_Jul_21_1414	s	s	6	2	SIC	174	RC	1	1	23MO	1	0	1.55301308632	-329.0	264.0	-332	267	1
1.7	2015_Jul_21_1414	s	s	6	2	SIC	175	ABS	2	0	24VC	0	1	0.564386844635	None	None	None	None	1
1.7	2015_Jul_21_1414	s	s	6	2	SIC	176	ABS	2	1	24VO	0	1	0.682528972626	None	None	None	None	1
1.7	2015_Jul_21_1414	s	s	6	2	SIC	177	RC	2	1	23VO	1	0	1.99227905273	15.0	374.0	9	366	1
1.7	2015_Jul_21_1414	s	s	6	2	SIC	178	ABS	2	0	24VC	0	1	0.658570051193	None	None	None	None	1
1.7	2015_Jul_21_1414	s	s	6	2	SIC	179	RC	2	2	23VD	1	0	0.646710157394	485.0	87.0	484	86	1
1.7	2015_Jul_21_1414	s	s	6	2	SIC	180	ABS	1	0	24MC	0	1	1.03510904312	None	None	None	None	1
1.7	2015_Jul_21_1414	s	s	6	2	SIC	181	RC	0	2	23RD	1	0	0.723965883255	358.0	-75.0	354	-80	1
1.7	2015_Jul_21_1414	s	s	6	2	SIC	182	ABS	0	2	24RD	0	1	0.576113939285	None	None	None	None	1
1.7	2015_Jul_21_1414	s	s	6	2	SIC	183	RC	1	2	23MD	1	0	0.876500844955	405.0	403.0	409	401	1
1.7	2015_Jul_21_1414	s	s	6	2	SIC	184	RC	0	1	23RO	0	1	3.00079393387	-72.0	-217.0	None	None	0
1.7	2015_Jul_21_1414	s	s	6	2	SIC	185	ABS	0	1	24RO	0	1	4.13071107864	None	None	None	None	1
1.7	2015_Jul_21_1414	s	s	6	2	SIC	186	ABS	2	2	24VD	0	1	0.576094865799	None	None	None	None	1
1.7	2015_Jul_21_1414	s	s	6	2	SIC	187	RC	2	0	23VC	1	0	0.571032047272	359.0	-34.0	354	-24	1
1.7	2015_Jul_21_1414	s	s	6	2	SIC	188	ABS	1	1	24MO	0	1	0.853027105331	None	None	None	None	1
1.7	2015_Jul_21_1414	s	s	6	2	SIC	189	RC	1	0	23MC	1	0	1.01750898361	-167.0	-331.0	-161	-334	1
1.7	2015_Jul_21_1414	s	s	6	2	SIC	190	RC	1	1	23MO	1	0	0.7223341465	73.0	162.0	75	153	1
1.7	2015_Jul_21_1414	s	s	6	2	SIC	191	ABS	1	2	24MD	0	1	0.69386100769	None	None	None	None	1
1.7	2015_Jul_21_1414	s	s	6	2	SIC	192	ABS	2	1	24VO	0	1	0.517272949219	None	None	None	None	1
1.7	2015_Jul_21_1414	s	s	6	2	SIC	193	RC	2	0	23VC	1	0	0.594707012177	483.0	-190.0	487	-193	1
1.7	2015_Jul_21_1414	s	s	6	2	SIC	194	RC	1	2	23MD	1	0	0.465615987778	-29.0	256.0	-16	259	1
1.7	2015_Jul_21_1414	s	s	6	2	SIC	195	ABS	1	1	24MO	0	1	1.0306429863	None	None	None	None	1
1.7	2015_Jul_21_1414	s	s	6	2	SIC	196	ABS	2	1	24VO	0	1	0.693794965744	None	None	None	None	1
1.7	2015_Jul_21_1414	s	s	6	2	SIC	197	RC	0	1	23RO	0	1	0.787900924683	-458.0	-411.0	None	None	0
1.7	2015_Jul_21_1414	s	s	6	2	SIC	198	RC	0	2	23RD	1	0	0.867321014404	-440.0	-208.0	-439	-207	1
1.7	2015_Jul_21_1414	s	s	6	2	SIC	199	ABS	1	0	24MC	0	1	1.50230407715	None	None	None	None	1
1.7	2015_Jul_21_1414	s	s	6	2	SIC	200	ABS	0	1	24RO	0	1	1.41187810898	None	None	None	None	1
1.7	2015_Jul_21_1414	s	s	6	2	SIC	201	RC	2	2	23VD	1	0	0.528976917267	-167.0	169.0	-157	169	1
1.7	2015_Jul_21_1414	s	s	6	2	SIC	202	ABS	2	2	24VD	0	1	0.576103210449	None	None	None	None	1
1.7	2015_Jul_21_1414	s	s	6	2	SIC	203	RC	1	1	23MO	0	1	2.57711100578	-19.0	18.0	None	None	0
1.7	2015_Jul_21_1414	s	s	6	2	SIC	204	RC	1	0	23MC	0	1	1.71389722824	401.0	283.0	None	None	0
1.7	2015_Jul_21_1414	s	s	6	2	SIC	205	ABS	1	2	24MD	0	1	0.68998003006	None	None	None	None	1
1.7	2015_Jul_21_1414	s	s	6	2	SIC	206	ABS	2	0	24VC	0	1	1.0198328495	None	None	None	None	1
1.7	2015_Jul_21_1414	s	s	6	2	SIC	207	RC	2	1	23VO	1	0	0.540816068649	-31.0	-384.0	-31	-389	1
1.7	2015_Jul_21_1414	s	s	6	2	SIC	208	ABS	0	2	24RD	0	1	0.952756881714	None	None	None	None	1
1.7	2015_Jul_21_1414	s	s	6	2	SIC	209	RC	0	1	23RO	0	1	0.867692947388	344.0	363.0	None	None	0
1.7	2015_Jul_21_1414	s	s	6	2	SIC	210	RC	2	1	23VO	1	0	0.479319095612	-17.0	153.0	-12	160	1
1.7	2015_Jul_21_1414	s	s	6	2	SIC	211	RC	2	2	23VD	1	0	0.458426952362	-480.0	-108.0	-483	-111	1
1.7	2015_Jul_21_1414	s	s	6	2	SIC	212	RC	1	2	23MD	1	0	0.435271978378	-276.0	369.0	-274	362	1
1.7	2015_Jul_21_1414	s	s	6	2	SIC	213	ABS	1	1	24MO	0	1	1.07070589066	None	None	None	None	1
1.7	2015_Jul_21_1414	s	s	6	2	SIC	214	ABS	2	2	24VD	0	1	0.623215913773	None	None	None	None	1
1.7	2015_Jul_21_1414	s	s	6	2	SIC	215	ABS	0	2	24RD	0	1	0.72919011116	None	None	None	None	1
1.7	2015_Jul_21_1414	s	s	6	2	SIC	216	ABS	0	1	24RO	0	1	2.6685988903	None	None	None	None	1
1.7	2015_Jul_21_1414	s	s	6	2	SIC	217	ABS	1	2	24MD	0	1	0.587949991226	None	None	None	None	1
1.7	2015_Jul_21_1414	s	s	6	2	SIC	218	ABS	2	1	24VO	0	1	0.579786062241	None	None	None	None	1
1.7	2015_Jul_21_1414	s	s	6	2	SIC	219	ABS	1	0	24MC	0	1	1.18009519577	None	None	None	None	1
1.7	2015_Jul_21_1414	s	s	6	2	SIC	220	RC	2	0	23VC	1	0	0.54768705368	323.0	-110.0	321	-110	1
1.7	2015_Jul_21_1414	s	s	6	2	SIC	221	RC	1	1	23MO	1	0	0.914086103439	-329.0	137.0	-326	146	1
1.7	2015_Jul_21_1414	s	s	6	2	SIC	222	ABS	2	0	24VC	0	1	0.608963012695	None	None	None	None	1
1.7	2015_Jul_21_1414	s	s	6	2	SIC	223	RC	0	2	23RD	1	0	1.34791898727	343.0	-403.0	350	-398	1
1.7	2015_Jul_21_1414	s	s	6	2	SIC	224	RC	1	0	23MC	1	0	0.900816917419	-527.0	193.0	-142	-63	0
1.7	2015_Jul_21_1414	s	s	6	2	SIC	225	ABS	1	0	24MC	0	1	0.85354590416	None	None	None	None	1
1.7	2015_Jul_21_1414	s	s	6	2	SIC	226	RC	2	1	23VO	1	0	0.502014875412	-432.0	409.0	-424	415	1
1.7	2015_Jul_21_1414	s	s	6	2	SIC	227	RC	2	2	23VD	1	0	0.477087020874	418.0	110.0	422	113	1
1.7	2015_Jul_21_1414	s	s	6	2	SIC	228	RC	2	0	23VC	1	0	0.458425045013	-395.0	91.0	-399	91	1
1.7	2015_Jul_21_1414	s	s	6	2	SIC	229	ABS	0	1	24RO	0	1	0.717409849167	None	None	None	None	1
1.7	2015_Jul_21_1414	s	s	6	2	SIC	230	ABS	1	2	24MD	0	1	0.666879892349	None	None	None	None	1
1.7	2015_Jul_21_1414	s	s	6	2	SIC	231	ABS	2	1	24VO	0	1	0.623231887817	None	None	None	None	1
1.7	2015_Jul_21_1414	s	s	6	2	SIC	232	ABS	1	1	24MO	0	1	0.682056903839	None	None	None	None	1
1.7	2015_Jul_21_1414	s	s	6	2	SIC	233	ABS	2	0	24VC	0	1	0.524083852768	None	None	None	None	1
1.7	2015_Jul_21_1414	s	s	6	2	SIC	234	RC	0	2	23RD	1	0	0.688705921173	360.0	330.0	363	330	1
1.7	2015_Jul_21_1414	s	s	6	2	SIC	235	RC	1	2	23MD	1	0	0.658437013626	466.0	340.0	472	341	1
1.7	2015_Jul_21_1414	s	s	6	2	SIC	236	ABS	0	2	24RD	0	1	0.855906009674	None	None	None	None	1
1.7	2015_Jul_21_1414	s	s	6	2	SIC	237	RC	0	1	23RO	0	1	0.706044912338	-375.0	-72.0	None	None	0
1.7	2015_Jul_21_1414	s	s	6	2	SIC	238	ABS	2	2	24VD	0	1	0.570515155792	None	None	None	None	1
1.7	2015_Jul_21_1414	s	s	6	2	SIC	239	RC	1	0	23MC	0	1	2.37491607666	282.0	313.0	None	None	0
1.7	2015_Jul_21_1414	s	s	6	2	SIC	240	RC	1	1	23MO	0	1	1.16463303566	-89.0	-408.0	None	None	0
1.7	2015_Jul_21_1414	s	s	6	2	SIC	241	RC	1	2	23MD	1	0	0.752722024918	368.0	-401.0	373	-394	1
1.7	2015_Jul_21_1414	s	s	6	2	SIC	242	RC	2	2	23VD	1	0	0.423033952713	208.0	126.0	208	122	1
1.7	2015_Jul_21_1414	s	s	6	2	SIC	243	ABS	1	0	24MC	1	0	1.18851900101	None	None	-98	111	0
1.7	2015_Jul_21_1414	s	s	6	2	SIC	244	RC	0	2	23RD	1	0	0.559215068817	249.0	320.0	249	324	1
1.7	2015_Jul_21_1414	s	s	6	2	SIC	245	RC	0	1	23RO	0	1	1.25868391991	-86.0	75.0	None	None	0
1.7	2015_Jul_21_1414	s	s	6	2	SIC	246	RC	1	1	23MO	0	1	0.947589874268	157.0	-412.0	None	None	0
1.7	2015_Jul_21_1414	s	s	6	2	SIC	247	ABS	2	2	24VD	0	1	0.485902786255	None	None	None	None	1
1.7	2015_Jul_21_1414	s	s	6	2	SIC	248	ABS	2	0	24VC	0	1	0.61187505722	None	None	None	None	1
1.7	2015_Jul_21_1414	s	s	6	2	SIC	249	ABS	1	1	24MO	0	1	0.732848882675	None	None	None	None	1
1.7	2015_Jul_21_1414	s	s	6	2	SIC	250	ABS	0	2	24RD	0	1	0.670320987701	None	None	None	None	1
1.7	2015_Jul_21_1414	s	s	6	2	SIC	251	ABS	1	2	24MD	0	1	0.62317109108	None	None	None	None	1
1.7	2015_Jul_21_1414	s	s	6	2	SIC	252	ABS	0	1	24RO	0	1	1.35950016975	None	None	None	None	1
1.7	2015_Jul_21_1414	s	s	6	2	SIC	253	ABS	2	1	24VO	0	1	0.476816892624	None	None	None	None	1
1.7	2015_Jul_21_1414	s	s	6	2	SIC	254	RC	2	1	23VO	1	0	0.665506124496	423.0	-398.0	433	-395	1
1.7	2015_Jul_21_1414	s	s	6	2	SIC	255	RC	1	0	23MC	0	1	2.52381205559	537.0	251.0	None	None	0
1.7	2015_Jul_21_1414	s	s	6	2	SIC	256	RC	2	0	23VC	1	0	0.729162931442	504.0	-268.0	505	-259	1
1.7	2015_Jul_21_1414	s	s	6	2	SIC	257	RC	1	2	23MD	1	0	0.56432390213	-246.0	-92.0	-248	-95	1
1.7	2015_Jul_21_1414	s	s	6	2	SIC	258	ABS	1	2	24MD	0	1	0.909507036209	None	None	None	None	1
1.7	2015_Jul_21_1414	s	s	6	2	SIC	259	ABS	2	2	24VD	0	1	1.20663404465	None	None	None	None	1
1.7	2015_Jul_21_1414	s	s	6	2	SIC	260	ABS	1	0	24MC	0	1	0.712538957596	None	None	None	None	1
1.7	2015_Jul_21_1414	s	s	6	2	SIC	261	RC	2	0	23VC	1	0	0.513964891434	-258.0	107.0	-260	106	1
1.7	2015_Jul_21_1414	s	s	6	2	SIC	262	RC	1	0	23MC	0	1	1.84234714508	-284.0	-398.0	None	None	0
1.7	2015_Jul_21_1414	s	s	6	2	SIC	263	RC	0	1	23RO	0	1	1.10069513321	401.0	326.0	None	None	0
1.7	2015_Jul_21_1414	s	s	6	2	SIC	264	ABS	2	0	24VC	0	1	0.618375062943	None	None	None	None	1
1.7	2015_Jul_21_1414	s	s	6	2	SIC	265	RC	2	2	23VD	1	0	0.537636041641	-12.0	118.0	-9	114	1
1.7	2015_Jul_21_1414	s	s	6	2	SIC	266	RC	1	1	23MO	0	1	1.32518291473	-309.0	184.0	None	None	0
1.7	2015_Jul_21_1414	s	s	6	2	SIC	267	ABS	1	1	24MO	0	1	0.726161956787	None	None	None	None	1
1.7	2015_Jul_21_1414	s	s	6	2	SIC	268	RC	0	2	23RD	1	0	0.517264127731	-275.0	30.0	-272	33	1
1.7	2015_Jul_21_1414	s	s	6	2	SIC	269	RC	2	1	23VO	1	0	0.52414393425	201.0	-334.0	203	-329	1
1.7	2015_Jul_21_1414	s	s	6	2	SIC	270	ABS	2	1	24VO	0	1	0.500350952148	None	None	None	None	1
1.7	2015_Jul_21_1414	s	s	6	2	SIC	271	ABS	0	2	24RD	0	1	0.72656416893	None	None	None	None	1
1.7	2015_Jul_21_1414	s	s	6	2	SIC	272	ABS	0	1	24RO	0	1	2.04155993462	None	None	None	None	1
1.7	2015_Jul_21_1414	s	s	6	2	SIC	273	RC	1	1	23MO	0	1	0.712312936783	-458.0	248.0	None	None	0
1.7	2015_Jul_21_1414	s	s	6	2	SIC	274	RC	1	2	23MD	1	0	0.488492965698	-198.0	60.0	-205	60	1
1.7	2015_Jul_21_1414	s	s	6	2	SIC	275	ABS	2	1	24VO	0	1	0.540823936462	None	None	None	None	1
1.7	2015_Jul_21_1414	s	s	6	2	SIC	276	ABS	2	2	24VD	0	1	0.405655145645	None	None	None	None	1
1.7	2015_Jul_21_1414	s	s	6	2	SIC	277	ABS	1	0	24MC	0	1	0.988155126572	None	None	None	None	1
1.7	2015_Jul_21_1414	s	s	6	2	SIC	278	ABS	1	1	24MO	0	1	1.77225995064	None	None	None	None	1
1.7	2015_Jul_21_1414	s	s	6	2	SIC	279	ABS	0	1	24RO	0	1	3.0596370697	None	None	None	None	1
1.7	2015_Jul_21_1414	s	s	6	2	SIC	280	RC	2	0	23VC	1	0	0.571241140366	503.0	-112.0	504	-107	1
1.7	2015_Jul_21_1414	s	s	6	2	SIC	281	ABS	2	0	24VC	0	1	0.552558898926	None	None	None	None	1
1.7	2015_Jul_21_1414	s	s	6	2	SIC	282	ABS	1	2	24MD	0	1	0.623250007629	None	None	None	None	1
1.7	2015_Jul_21_1414	s	s	6	2	SIC	283	RC	0	2	23RD	1	0	0.470299005508	91.0	211.0	90	214	1
1.7	2015_Jul_21_1414	s	s	6	2	SIC	284	ABS	0	2	24RD	0	1	0.690711975098	None	None	None	None	1
1.7	2015_Jul_21_1414	s	s	6	2	SIC	285	RC	2	1	23VO	1	0	0.773512125015	-328.0	176.0	-337	183	1
1.7	2015_Jul_21_1414	s	s	6	2	SIC	286	RC	2	2	23VD	1	0	0.43025803566	26.0	-196.0	19	-198	1
1.7	2015_Jul_21_1414	s	s	6	2	SIC	287	RC	0	1	23RO	0	1	2.14162397385	-204.0	-252.0	None	None	0
1.7	2015_Jul_21_1414	s	s	6	2	SIC	288	RC	1	0	23MC	0	1	1.03520894051	-5.0	374.0	None	None	0
1.7	2015_Jul_21_1414	s	s	6	2	SIC	289	ABS	0	1	24RO	0	1	1.29416394234	None	None	None	None	1
1.7	2015_Jul_21_1414	s	s	6	2	SIC	290	ABS	0	2	24RD	0	1	0.581449985504	None	None	None	None	1
1.7	2015_Jul_21_1414	s	s	6	2	SIC	291	RC	0	1	23RO	0	1	2.20927214622	-291.0	-310.0	None	None	0
1.7	2015_Jul_21_1414	s	s	6	2	SIC	292	RC	2	0	23VC	1	0	0.855134010315	280.0	-89.0	274	-83	1
1.7	2015_Jul_21_1414	s	s	6	2	SIC	293	RC	2	1	23VO	1	0	0.619888067245	-316.0	177.0	-311	172	1
1.7	2015_Jul_21_1414	s	s	6	2	SIC	294	ABS	1	1	24MO	0	1	1.17154097557	None	None	None	None	1
1.7	2015_Jul_21_1414	s	s	6	2	SIC	295	RC	0	2	23RD	0	1	0.587870836258	379.0	-387.0	None	None	0
1.7	2015_Jul_21_1414	s	s	6	2	SIC	296	ABS	2	0	24VC	0	1	0.587934017181	None	None	None	None	1
1.7	2015_Jul_21_1414	s	s	6	2	SIC	297	ABS	2	2	24VD	0	1	4.97837281227	None	None	None	None	1
1.7	2015_Jul_21_1414	s	s	6	2	SIC	298	RC	1	2	23MD	1	0	1.58843994141	-334.0	-112.0	-331	-119	1
1.7	2015_Jul_21_1414	s	s	6	2	SIC	299	RC	2	2	23VD	1	0	1.03512501717	-70.0	-56.0	-70	-59	1
1.7	2015_Jul_21_1414	s	s	6	2	SIC	300	RC	1	1	23MO	1	0	0.888285160065	-292.0	-221.0	-295	-225	1
1.7	2015_Jul_21_1414	s	s	6	2	SIC	301	ABS	1	0	24MC	0	1	0.740916967392	None	None	None	None	1
1.7	2015_Jul_21_1414	s	s	6	2	SIC	302	ABS	1	2	24MD	0	1	0.576083898544	None	None	None	None	1
1.7	2015_Jul_21_1414	s	s	6	2	SIC	303	RC	1	0	23MC	0	1	0.893934965134	229.0	298.0	None	None	0
1.7	2015_Jul_21_1414	s	s	6	2	SIC	304	ABS	2	1	24VO	0	1	0.505492925644	None	None	None	None	1
1.7	2015_Jul_21_1414	s	s	6	2	SIC	305	RC	1	0	23MC	0	1	0.676093101501	413.0	301.0	None	None	0
1.7	2015_Jul_21_1414	s	s	6	2	SIC	306	ABS	1	1	24MO	0	1	1.38825893402	None	None	None	None	1
1.7	2015_Jul_21_1414	s	s	6	2	SIC	307	RC	1	1	23MO	0	1	1.24698710442	268.0	-327.0	None	None	0
1.7	2015_Jul_21_1414	s	s	6	2	SIC	308	RC	2	1	23VO	1	0	0.559381008148	-289.0	-324.0	-296	-328	1
1.7	2015_Jul_21_1414	s	s	6	2	SIC	309	RC	2	2	23VD	1	0	0.48860502243	447.0	-14.0	448	-15	1
1.7	2015_Jul_21_1414	s	s	6	2	SIC	310	RC	0	2	23RD	1	0	1.13746595383	-414.0	333.0	-413	328	1
1.7	2015_Jul_21_1414	s	s	6	2	SIC	311	ABS	2	2	24VD	0	1	0.629119873047	None	None	None	None	1
1.7	2015_Jul_21_1414	s	s	6	2	SIC	312	RC	1	2	23MD	1	0	0.453715085983	225.0	85.0	227	82	1
1.7	2015_Jul_21_1414	s	s	6	2	SIC	313	ABS	0	1	24RO	0	1	1.68910694122	None	None	None	None	1
1.7	2015_Jul_21_1414	s	s	6	2	SIC	314	ABS	0	2	24RD	0	1	0.747376918793	None	None	None	None	1
1.7	2015_Jul_21_1414	s	s	6	2	SIC	315	RC	0	1	23RO	0	1	2.83038210869	-239.0	-401.0	None	None	0
1.7	2015_Jul_21_1414	s	s	6	2	SIC	316	ABS	2	1	24VO	0	1	0.537511110306	None	None	None	None	1
1.7	2015_Jul_21_1414	s	s	6	2	SIC	317	ABS	1	2	24MD	0	1	0.635009050369	None	None	None	None	1
1.7	2015_Jul_21_1414	s	s	6	2	SIC	318	ABS	2	0	24VC	0	1	0.870403051376	None	None	None	None	1
1.7	2015_Jul_21_1414	s	s	6	2	SIC	319	ABS	1	0	24MC	0	1	2.5721681118	None	None	None	None	1
1.7	2015_Jul_21_1414	s	s	6	2	SIC	320	RC	2	0	23VC	1	0	0.580472946167	-451.0	-41.0	-443	-43	1
1.7	2015_Jul_21_1414	s	s	6	2	SIC	321	ABS	1	2	24MD	0	1	0.594654083252	None	None	None	None	1
1.7	2015_Jul_21_1414	s	s	6	2	SIC	322	RC	2	1	23VO	1	0	0.517228126526	-388.0	-104.0	-390	-105	1
1.7	2015_Jul_21_1414	s	s	6	2	SIC	323	ABS	2	1	24VO	0	1	0.559236049652	None	None	None	None	1
1.7	2015_Jul_21_1414	s	s	6	2	SIC	324	ABS	2	2	24VD	0	1	0.490506887436	None	None	None	None	1
1.7	2015_Jul_21_1414	s	s	6	2	SIC	325	ABS	2	0	24VC	0	1	0.525801897049	None	None	None	None	1
1.7	2015_Jul_21_1414	s	s	6	2	SIC	326	RC	2	0	23VC	1	0	0.53570318222	360.0	53.0	364	48	1
1.7	2015_Jul_21_1414	s	s	6	2	SIC	327	RC	1	0	23MC	0	1	1.94153594971	-138.0	-142.0	None	None	0
1.7	2015_Jul_21_1414	s	s	6	2	SIC	328	ABS	1	1	24MO	0	1	0.890202045441	None	None	None	None	1
1.7	2015_Jul_21_1414	s	s	6	2	SIC	329	RC	1	1	23MO	0	1	1.28235387802	197.0	-119.0	None	None	0
1.7	2015_Jul_21_1414	s	s	6	2	SIC	330	ABS	1	0	24MC	0	1	1.15285301208	None	None	None	None	1
1.7	2015_Jul_21_1414	s	s	6	2	SIC	331	RC	0	1	23RO	0	1	2.24287295341	145.0	384.0	None	None	0
1.7	2015_Jul_21_1414	s	s	6	2	SIC	332	RC	0	2	23RD	1	0	0.71254491806	85.0	301.0	82	303	1
1.7	2015_Jul_21_1414	s	s	6	2	SIC	333	RC	2	2	23VD	0	1	0.5121281147	519.0	-69.0	None	None	0
1.7	2015_Jul_21_1414	s	s	6	2	SIC	334	RC	1	2	23MD	1	0	0.453960895538	-54.0	34.0	-52	30	1
1.7	2015_Jul_21_1414	s	s	6	2	SIC	335	ABS	0	2	24RD	0	1	0.783091068268	None	None	None	None	1
1.7	2015_Jul_21_1414	s	s	6	2	SIC	336	ABS	0	1	24RO	0	1	0.782343149185	None	None	None	None	1
1.7	2015_Jul_21_1414	s	s	6	2	SIC	337	RC	0	1	23RO	0	1	1.62412714958	-116.0	-104.0	None	None	0
1.7	2015_Jul_21_1414	s	s	6	2	SIC	338	RC	1	2	23MD	1	0	0.552504062653	-99.0	165.0	-91	160	1
1.7	2015_Jul_21_1414	s	s	6	2	SIC	339	ABS	2	2	24VD	0	1	0.700606107712	None	None	None	None	1
1.7	2015_Jul_21_1414	s	s	6	2	SIC	340	RC	2	2	23VD	1	0	0.641139030457	-136.0	-63.0	-126	-60	1
1.7	2015_Jul_21_1414	s	s	6	2	SIC	341	RC	2	1	23VO	1	0	0.512305021286	-413.0	86.0	-408	84	1
1.7	2015_Jul_21_1414	s	s	6	2	SIC	342	ABS	1	0	24MC	0	1	2.14848399162	None	None	None	None	1
1.7	2015_Jul_21_1414	s	s	6	2	SIC	343	RC	1	1	23MO	1	0	1.0469520092	235.0	-38.0	230	-42	1
1.7	2015_Jul_21_1414	s	s	6	2	SIC	344	ABS	0	2	24RD	0	1	0.776232004166	None	None	None	None	1
1.7	2015_Jul_21_1414	s	s	6	2	SIC	345	ABS	1	2	24MD	0	1	0.490602016449	None	None	None	None	1
1.7	2015_Jul_21_1414	s	s	6	2	SIC	346	RC	0	2	23RD	1	0	0.776339054108	455.0	-97.0	460	-94	1
1.7	2015_Jul_21_1414	s	s	6	2	SIC	347	RC	1	0	23MC	1	0	1.04362416267	-69.0	-1.0	-67	-2	1
1.7	2015_Jul_21_1414	s	s	6	2	SIC	348	ABS	1	1	24MO	0	1	0.653714895248	None	None	None	None	1
1.7	2015_Jul_21_1414	s	s	6	2	SIC	349	ABS	0	1	24RO	0	1	1.74771285057	None	None	None	None	1
1.7	2015_Jul_21_1414	s	s	6	2	SIC	350	ABS	2	1	24VO	1	0	0.573485136032	None	None	155	114	0
1.7	2015_Jul_21_1414	s	s	6	2	SIC	351	ABS	2	0	24VC	0	1	0.618093013763	None	None	None	None	1
1.7	2015_Jul_21_1414	s	s	6	2	SIC	352	RC	2	0	23VC	1	0	0.630257129669	-250.0	-41.0	-249	-43	1
1.7	2015_Jul_21_1414	s	s	6	2	SIC	353	RC	1	2	23MD	1	0	0.858620166779	489.0	198.0	483	196	1
1.7	2015_Jul_21_1414	s	s	6	2	SIC	354	RC	1	1	23MO	0	1	1.28237104416	314.0	324.0	None	None	0
1.7	2015_Jul_21_1414	s	s	6	2	SIC	355	ABS	0	1	24RO	0	1	0.935983896255	None	None	None	None	1
1.7	2015_Jul_21_1414	s	s	6	2	SIC	356	RC	0	2	23RD	1	0	0.594656944275	236.0	220.0	234	225	1
1.7	2015_Jul_21_1414	s	s	6	2	SIC	357	ABS	1	1	24MO	0	1	0.952794790268	None	None	None	None	1
1.7	2015_Jul_21_1414	s	s	6	2	SIC	358	ABS	2	2	24VD	0	1	0.482248067856	None	None	None	None	1
1.7	2015_Jul_21_1414	s	s	6	2	SIC	359	ABS	1	2	24MD	0	1	0.535774946213	None	None	None	None	1
1.7	2015_Jul_21_1414	s	s	6	2	SIC	360	RC	1	0	23MC	1	0	2.9655919075	-391.0	-3.0	-385	-6	1
1.7	2015_Jul_21_1414	s	s	6	2	SIC	361	ABS	2	1	24VO	0	1	0.858901023865	None	None	None	None	1
1.7	2015_Jul_21_1414	s	s	6	2	SIC	362	RC	2	0	23VC	1	0	0.936007976532	111.0	-345.0	115	-336	1
1.7	2015_Jul_21_1414	s	s	6	2	SIC	363	RC	2	2	23VD	1	0	0.592509031296	111.0	376.0	116	371	1
1.7	2015_Jul_21_1414	s	s	6	2	SIC	364	ABS	1	0	24MC	0	1	1.19997596741	None	None	None	None	1
1.7	2015_Jul_21_1414	s	s	6	2	SIC	365	RC	2	1	23VO	1	0	0.490719079971	-209.0	28.0	-205	21	1
1.7	2015_Jul_21_1414	s	s	6	2	SIC	366	ABS	2	0	24VC	0	1	0.611363887787	None	None	None	None	1
1.7	2015_Jul_21_1414	s	s	6	2	SIC	367	RC	0	1	23RO	0	1	0.91433596611	377.0	307.0	None	None	0
1.7	2015_Jul_21_1414	s	s	6	2	SIC	368	ABS	0	2	24RD	0	1	0.658581972122	None	None	None	None	1
1.7	2015_Jul_21_1414	s	s	6	2	SIC	369	RC	1	0	23MC	1	0	0.893930912018	232.0	367.0	88	41	0
1.7	2015_Jul_21_1414	s	s	6	2	SIC	370	ABS	2	0	24VC	0	1	0.582853078842	None	None	None	None	1
1.7	2015_Jul_21_1414	s	s	6	2	SIC	371	ABS	2	2	24VD	0	1	0.561602115631	None	None	None	None	1
1.7	2015_Jul_21_1414	s	s	6	2	SIC	372	RC	2	2	23VD	1	0	0.579787015915	-362.0	-254.0	-360	-250	1
1.7	2015_Jul_21_1414	s	s	6	2	SIC	373	RC	1	1	23MO	1	0	2.59470915794	-309.0	-271.0	-312	-265	1
1.7	2015_Jul_21_1414	s	s	6	2	SIC	374	ABS	1	1	24MO	0	1	1.60015201569	None	None	None	None	1
1.7	2015_Jul_21_1414	s	s	6	2	SIC	375	RC	1	2	23MD	1	0	0.570441007614	-472.0	328.0	-470	320	1
1.7	2015_Jul_21_1414	s	s	6	2	SIC	376	ABS	1	0	24MC	0	1	1.43528795242	None	None	None	None	1
1.7	2015_Jul_21_1414	s	s	6	2	SIC	377	ABS	0	1	24RO	0	1	1.08224987984	None	None	None	None	1
1.7	2015_Jul_21_1414	s	s	6	2	SIC	378	ABS	1	2	24MD	0	1	0.63499212265	None	None	None	None	1
1.7	2015_Jul_21_1414	s	s	6	2	SIC	379	ABS	0	2	24RD	0	1	0.787992954254	None	None	None	None	1
1.7	2015_Jul_21_1414	s	s	6	2	SIC	380	RC	2	1	23VO	1	0	0.674663066864	420.0	187.0	413	192	1
1.7	2015_Jul_21_1414	s	s	6	2	SIC	381	RC	0	2	23RD	1	0	0.714335203171	30.0	-305.0	37	-303	1
1.7	2015_Jul_21_1414	s	s	6	2	SIC	382	RC	0	1	23RO	0	1	1.18166708946	-110.0	206.0	None	None	0
1.7	2015_Jul_21_1414	s	s	6	2	SIC	383	ABS	2	1	24VO	0	1	0.582754850388	None	None	None	None	1
1.7	2015_Jul_21_1414	s	s	6	2	SIC	384	RC	2	0	23VC	1	0	0.723965883255	4.0	-330.0	3	-328	1
1.7	2015_Jul_21_1414	s	s	6	2	SIC	385	ABS	0	1	24RO	0	1	2.43097019196	None	None	None	None	1
1.7	2015_Jul_21_1414	s	s	6	2	SIC	386	RC	2	1	23VO	1	0	0.465161800385	342.0	-274.0	337	-275	1
1.7	2015_Jul_21_1414	s	s	6	2	SIC	387	ABS	2	2	24VD	0	1	0.458443880081	None	None	None	None	1
1.7	2015_Jul_21_1414	s	s	6	2	SIC	388	RC	1	0	23MC	0	1	2.23121094704	-438.0	-298.0	None	None	0
1.7	2015_Jul_21_1414	s	s	6	2	SIC	389	RC	2	0	23VC	1	0	0.559947967529	-11.0	-263.0	-10	-258	1
1.7	2015_Jul_21_1414	s	s	6	2	SIC	390	ABS	0	2	24RD	0	1	0.697395086288	None	None	None	None	1
1.7	2015_Jul_21_1414	s	s	6	2	SIC	391	RC	0	1	23RO	0	1	0.900696992874	-74.0	409.0	None	None	0
1.7	2015_Jul_21_1414	s	s	6	2	SIC	392	ABS	1	0	24MC	0	1	2.01211309433	None	None	None	None	1
1.7	2015_Jul_21_1414	s	s	6	2	SIC	393	ABS	2	1	24VO	0	1	0.564346075058	None	None	None	None	1
1.7	2015_Jul_21_1414	s	s	6	2	SIC	394	ABS	1	1	24MO	0	1	2.35361003876	None	None	None	None	1
1.7	2015_Jul_21_1414	s	s	6	2	SIC	395	RC	1	1	23MO	1	0	1.07048201561	-250.0	-210.0	-256	-209	1
1.7	2015_Jul_21_1414	s	s	6	2	SIC	396	RC	2	2	23VD	1	0	0.47019982338	-182.0	-248.0	-187	-257	1
1.7	2015_Jul_21_1414	s	s	6	2	SIC	397	ABS	1	2	24MD	0	1	0.536710977554	None	None	None	None	1
1.7	2015_Jul_21_1414	s	s	6	2	SIC	398	ABS	2	0	24VC	0	1	0.585410118103	None	None	None	None	1
1.7	2015_Jul_21_1414	s	s	6	2	SIC	399	RC	0	2	23RD	1	0	0.606083869934	-320.0	197.0	-313	200	1
1.7	2015_Jul_21_1414	s	s	6	2	SIC	400	RC	1	2	23MD	1	0	0.587895870209	-499.0	15.0	-491	21	1
1.7	2015_Jul_21_1414	s	s	6	2	SIC	401	RC	2	0	23VC	1	0	0.493731975555	-273.0	172.0	-265	181	1
1.7	2015_Jul_21_1414	s	s	6	2	SIC	402	ABS	0	1	24RO	0	1	1.06516313553	None	None	None	None	1
1.7	2015_Jul_21_1414	s	s	6	2	SIC	403	RC	1	2	23MD	1	0	0.641765117645	-371.0	-351.0	-369	-353	1
1.7	2015_Jul_21_1414	s	s	6	2	SIC	404	ABS	1	2	24MD	0	1	0.902616024017	None	None	None	None	1
1.7	2015_Jul_21_1414	s	s	6	2	SIC	405	RC	0	2	23RD	1	0	0.548110961914	-59.0	-394.0	-57	-387	1
1.7	2015_Jul_21_1414	s	s	6	2	SIC	406	ABS	0	2	24RD	0	1	0.712268829346	None	None	None	None	1
1.7	2015_Jul_21_1414	s	s	6	2	SIC	407	ABS	2	2	24VD	1	0	0.470288991928	None	None	-17	109	0
1.7	2015_Jul_21_1414	s	s	6	2	SIC	408	RC	1	1	23MO	0	1	1.58350300789	-185.0	189.0	None	None	0
1.7	2015_Jul_21_1414	s	s	6	2	SIC	409	RC	2	1	23VO	1	0	0.446574926376	-234.0	72.0	-234	65	1
1.7	2015_Jul_21_1414	s	s	6	2	SIC	410	RC	0	1	23RO	0	1	0.905694961548	434.0	279.0	None	None	0
1.7	2015_Jul_21_1414	s	s	6	2	SIC	411	RC	1	0	23MC	0	1	1.11300706863	-199.0	199.0	None	None	0
1.7	2015_Jul_21_1414	s	s	6	2	SIC	412	ABS	2	0	24VC	0	1	0.592815160751	None	None	None	None	1
1.7	2015_Jul_21_1414	s	s	6	2	SIC	413	RC	2	2	23VD	1	0	0.478548049927	191.0	-288.0	188	-281	1
1.7	2015_Jul_21_1414	s	s	6	2	SIC	414	ABS	2	1	24VO	0	1	0.611504077911	None	None	None	None	1
1.7	2015_Jul_21_1414	s	s	6	2	SIC	415	ABS	1	1	24MO	0	1	0.917279005051	None	None	None	None	1
1.7	2015_Jul_21_1414	s	s	6	2	SIC	416	ABS	1	0	24MC	0	1	1.58841109276	None	None	None	None	1
1.7	2015_Jul_21_1414	s	s	6	2	SIC	417	RC	1	1	23MO	1	0	0.971491098404	-263.0	-25.0	-259	-19	1
1.7	2015_Jul_21_1414	s	s	6	2	SIC	418	RC	0	1	23RO	0	1	1.0669760704	-250.0	393.0	None	None	0
1.7	2015_Jul_21_1414	s	s	6	2	SIC	419	RC	2	1	23VO	1	0	0.46572804451	-220.0	-111.0	-219	-111	1
1.7	2015_Jul_21_1414	s	s	6	2	SIC	420	RC	2	0	23VC	1	0	0.5407538414	-438.0	151.0	-437	149	1
1.7	2015_Jul_21_1414	s	s	6	2	SIC	421	ABS	2	2	24VD	0	1	0.572622060776	None	None	None	None	1
1.7	2015_Jul_21_1414	s	s	6	2	SIC	422	RC	2	2	23VD	1	0	0.517259120941	-245.0	219.0	-249	213	1
1.7	2015_Jul_21_1414	s	s	6	2	SIC	423	ABS	0	1	24RO	0	1	0.958373069763	None	None	None	None	1
1.7	2015_Jul_21_1414	s	s	6	2	SIC	424	RC	1	2	23MD	1	0	0.759558916092	445.0	-156.0	432	-150	1
1.7	2015_Jul_21_1414	s	s	6	2	SIC	425	ABS	2	1	24VO	0	1	0.500514030457	None	None	None	None	1
1.7	2015_Jul_21_1414	s	s	6	2	SIC	426	ABS	0	2	24RD	0	1	0.599683046341	None	None	None	None	1
1.7	2015_Jul_21_1414	s	s	6	2	SIC	427	ABS	1	2	24MD	0	1	0.693838834763	None	None	None	None	1
1.7	2015_Jul_21_1414	s	s	6	2	SIC	428	ABS	1	1	24MO	0	1	0.700524091721	None	None	None	None	1
1.7	2015_Jul_21_1414	s	s	6	2	SIC	429	RC	0	2	23RD	1	0	0.917477846146	525.0	361.0	520	359	1
1.7	2015_Jul_21_1414	s	s	6	2	SIC	430	ABS	1	0	24MC	1	0	0.882130861282	None	None	-37	137	0
1.7	2015_Jul_21_1414	s	s	6	2	SIC	431	RC	1	0	23MC	1	0	0.717780828476	-315.0	81.0	-35	63	0
1.7	2015_Jul_21_1414	s	s	6	2	SIC	432	ABS	2	0	24VC	0	1	0.570292949677	None	None	None	None	1
1.7	2015_Jul_21_1414	s	s	6	2	SIC	433	RC	1	0	23MC	0	1	2.01826000214	518.0	148.0	None	None	0
1.7	2015_Jul_21_1414	s	s	6	2	SIC	434	RC	2	1	23VO	1	0	0.776226043701	-529.0	174.0	-522	175	1
1.7	2015_Jul_21_1414	s	s	6	2	SIC	435	RC	0	1	23RO	0	1	1.2352848053	532.0	54.0	None	None	0
1.7	2015_Jul_21_1414	s	s	6	2	SIC	436	RC	2	2	23VD	1	0	0.43167090416	46.0	341.0	51	339	1
1.7	2015_Jul_21_1414	s	s	6	2	SIC	437	ABS	2	2	24VD	0	1	0.855891942978	None	None	None	None	1
1.7	2015_Jul_21_1414	s	s	6	2	SIC	438	ABS	2	1	24VO	0	1	0.500462055206	None	None	None	None	1
1.7	2015_Jul_21_1414	s	s	6	2	SIC	439	ABS	1	0	24MC	0	1	1.04690885544	None	None	None	None	1
1.7	2015_Jul_21_1414	s	s	6	2	SIC	440	RC	1	2	23MD	1	0	0.533349990845	205.0	192.0	206	192	1
1.7	2015_Jul_21_1414	s	s	6	2	SIC	441	RC	2	0	23VC	1	0	0.423157215118	55.0	-25.0	61	-28	1
1.7	2015_Jul_21_1414	s	s	6	2	SIC	442	ABS	1	1	24MO	0	1	0.634965896606	None	None	None	None	1
1.7	2015_Jul_21_1414	s	s	6	2	SIC	443	ABS	0	1	24RO	0	1	1.52449893951	None	None	None	None	1
1.7	2015_Jul_21_1414	s	s	6	2	SIC	444	RC	1	1	23MO	1	0	0.697537899017	319.0	136.0	331	145	1
1.7	2015_Jul_21_1414	s	s	6	2	SIC	445	ABS	2	0	24VC	0	1	0.493752002716	None	None	None	None	1
1.7	2015_Jul_21_1414	s	s	6	2	SIC	446	ABS	1	2	24MD	0	1	0.517272949219	None	None	None	None	1
1.7	2015_Jul_21_1414	s	s	6	2	SIC	447	ABS	0	2	24RD	0	1	0.465135097504	None	None	None	None	1
1.7	2015_Jul_21_1414	s	s	6	2	SIC	448	RC	0	2	23RD	1	0	0.823693990707	-269.0	411.0	-275	407	1
1.7	2015_Jul_21_1414	s	s	6	2	SIC	449	RC	1	1	23MO	1	0	0.535665035248	-251.0	-286.0	-47	195	0
1.7	2015_Jul_21_1414	s	s	6	2	SIC	450	RC	1	0	23MC	1	0	1.69041109085	281.0	114.0	282	124	1
1.7	2015_Jul_21_1414	s	s	6	2	SIC	451	RC	2	1	23VO	1	0	0.465301036835	-192.0	-152.0	-197	-152	1
1.7	2015_Jul_21_1414	s	s	6	2	SIC	452	RC	0	2	23RD	1	0	0.446627855301	215.0	59.0	225	57	1
1.7	2015_Jul_21_1414	s	s	6	2	SIC	453	ABS	1	1	24MO	0	1	1.16468501091	None	None	None	None	1
1.7	2015_Jul_21_1414	s	s	6	2	SIC	454	RC	2	2	23VD	1	0	0.446624040604	-173.0	184.0	-174	185	1
1.7	2015_Jul_21_1414	s	s	6	2	SIC	455	RC	2	0	23VC	1	0	0.418123960495	-3.0	336.0	-3	332	1
1.7	2015_Jul_21_1414	s	s	6	2	SIC	456	RC	0	1	23RO	0	1	1.04204201698	345.0	-239.0	None	None	0
1.7	2015_Jul_21_1414	s	s	6	2	SIC	457	ABS	2	0	24VC	0	1	0.572850942612	None	None	None	None	1
1.7	2015_Jul_21_1414	s	s	6	2	SIC	458	ABS	2	2	24VD	0	1	0.481900930405	None	None	None	None	1
1.7	2015_Jul_21_1414	s	s	6	2	SIC	459	RC	1	2	23MD	1	0	0.514528989792	-282.0	120.0	-272	122	1
1.7	2015_Jul_21_1414	s	s	6	2	SIC	460	ABS	0	1	24RO	0	1	0.99486207962	None	None	None	None	1
1.7	2015_Jul_21_1414	s	s	6	2	SIC	461	ABS	1	0	24MC	1	0	1.21212601662	None	None	141	18	0
1.7	2015_Jul_21_1414	s	s	6	2	SIC	462	ABS	1	2	24MD	0	1	1.14102292061	None	None	None	None	1
1.7	2015_Jul_21_1414	s	s	6	2	SIC	463	ABS	2	1	24VO	0	1	0.587867021561	None	None	None	None	1
1.7	2015_Jul_21_1414	s	s	6	2	SIC	464	ABS	0	2	24RD	0	1	0.646707057953	None	None	None	None	1
1.7	2015_Jul_21_1414	s	s	6	2	SIC	465	RC	2	1	23VO	1	0	0.540843963623	402.0	-143.0	404	-148	1
1.7	2015_Jul_21_1414	s	s	6	2	SIC	466	ABS	1	1	24MO	0	1	0.618204832077	None	None	None	None	1
1.7	2015_Jul_21_1414	s	s	6	2	SIC	467	RC	0	1	23RO	0	1	0.664427042007	-141.0	-83.0	None	None	0
1.7	2015_Jul_21_1414	s	s	6	2	SIC	468	ABS	0	2	24RD	0	1	0.658528089523	None	None	None	None	1
1.7	2015_Jul_21_1414	s	s	6	2	SIC	469	RC	2	2	23VD	1	0	0.458447933197	297.0	-110.0	285	-105	1
1.7	2015_Jul_21_1414	s	s	6	2	SIC	470	RC	1	0	23MC	1	0	0.823225975037	-201.0	105.0	-208	99	1
1.7	2015_Jul_21_1414	s	s	6	2	SIC	471	RC	2	0	23VC	1	0	0.481920957565	-512.0	-333.0	-507	-329	1
1.7	2015_Jul_21_1414	s	s	6	2	SIC	472	ABS	0	1	24RO	0	1	0.700522184372	None	None	None	None	1
1.7	2015_Jul_21_1414	s	s	6	2	SIC	473	RC	0	2	23RD	1	0	0.584161996841	-354.0	357.0	-356	355	1
1.7	2015_Jul_21_1414	s	s	6	2	SIC	474	ABS	1	2	24MD	0	1	0.81153011322	None	None	None	None	1
1.7	2015_Jul_21_1414	s	s	6	2	SIC	475	ABS	2	0	24VC	1	0	0.517287969589	None	None	73	101	0
1.7	2015_Jul_21_1414	s	s	6	2	SIC	476	ABS	1	0	24MC	0	1	0.835064888	None	None	None	None	1
1.7	2015_Jul_21_1414	s	s	6	2	SIC	477	ABS	2	2	24VD	0	1	0.435251951218	None	None	None	None	1
1.7	2015_Jul_21_1414	s	s	6	2	SIC	478	RC	1	1	23MO	1	0	1.11252784729	-206.0	-131.0	-210	-131	1
1.7	2015_Jul_21_1414	s	s	6	2	SIC	479	ABS	2	1	24VO	0	1	0.53580904007	None	None	None	None	1
1.7	2015_Jul_21_1414	s	s	6	2	SIC	480	RC	1	2	23MD	1	0	0.599526882172	-83.0	200.0	-84	191	1
1.7	2015_Jul_21_1414	s	s	6	2	SIC	481	ABS	1	1	24MO	0	1	0.693652153015	None	None	None	None	1
1.7	2015_Jul_21_1414	s	s	6	2	SIC	482	ABS	1	0	24MC	1	0	0.783344984055	None	None	15	-9	0
1.7	2015_Jul_21_1414	s	s	6	2	SIC	483	ABS	0	1	24RO	0	1	1.65391397476	None	None	None	None	1
1.7	2015_Jul_21_1414	s	s	6	2	SIC	484	ABS	2	2	24VD	0	1	0.712323904037	None	None	None	None	1
1.7	2015_Jul_21_1414	s	s	6	2	SIC	485	ABS	2	1	24VO	0	1	0.560429096222	None	None	None	None	1
1.7	2015_Jul_21_1414	s	s	6	2	SIC	486	RC	2	1	23VO	1	0	0.576478004456	349.0	362.0	356	363	1
1.7	2015_Jul_21_1414	s	s	6	2	SIC	487	RC	0	1	23RO	1	0	0.917536020279	-242.0	187.0	-244	186	1
1.7	2015_Jul_21_1414	s	s	6	2	SIC	488	RC	1	2	23MD	1	0	0.702219009399	-387.0	-262.0	-387	-271	1
1.7	2015_Jul_21_1414	s	s	6	2	SIC	489	RC	1	1	23MO	1	0	2.21264004707	136.0	396.0	124	404	1
1.7	2015_Jul_21_1414	s	s	6	2	SIC	490	RC	2	2	23VD	1	0	0.523957014084	71.0	-93.0	73	-86	1
1.7	2015_Jul_21_1414	s	s	6	2	SIC	491	ABS	2	0	24VC	0	1	0.936334848404	None	None	None	None	1
1.7	2015_Jul_21_1414	s	s	6	2	SIC	492	RC	0	2	23RD	1	0	0.517271995544	-502.0	118.0	-502	117	1
1.7	2015_Jul_21_1414	s	s	6	2	SIC	493	ABS	0	2	24RD	0	1	1.09399604797	None	None	None	None	1
1.7	2015_Jul_21_1414	s	s	6	2	SIC	494	RC	1	0	23MC	1	0	0.737571001053	21.0	-217.0	25	-215	1
1.7	2015_Jul_21_1414	s	s	6	2	SIC	495	RC	2	0	23VC	1	0	0.470174074173	12.0	8.0	14	8	1
1.7	2015_Jul_21_1414	s	s	6	2	SIC	496	ABS	1	2	24MD	0	1	0.799890995026	None	None	None	None	1
1.7	2015_Jul_21_1414	s	s	6	2	SIC	497	ABS	1	1	24MO	0	1	0.752645969391	None	None	None	None	1
1.7	2015_Jul_21_1414	s	s	6	2	SIC	498	RC	2	2	23VD	1	0	0.582205057144	98.0	-404.0	98	-403	1
1.7	2015_Jul_21_1414	s	s	6	2	SIC	499	ABS	0	1	24RO	0	1	0.843835115433	None	None	None	None	1
1.7	2015_Jul_21_1414	s	s	6	2	SIC	500	RC	2	1	23VO	1	0	0.882062196732	-309.0	-343.0	-311	-336	1
1.7	2015_Jul_21_1414	s	s	6	2	SIC	501	ABS	1	0	24MC	0	1	0.900400161743	None	None	None	None	1
1.7	2015_Jul_21_1414	s	s	6	2	SIC	502	ABS	2	1	24VO	0	1	0.500410079956	None	None	None	None	1
1.7	2015_Jul_21_1414	s	s	6	2	SIC	503	ABS	0	2	24RD	0	1	0.599683046341	None	None	None	None	1
1.7	2015_Jul_21_1414	s	s	6	2	SIC	504	RC	1	1	23MO	1	0	2.90397882462	-467.0	145.0	-467	144	1
1.7	2015_Jul_21_1414	s	s	6	2	SIC	505	RC	0	2	23RD	1	0	0.700613975525	212.0	167.0	217	173	1
1.7	2015_Jul_21_1414	s	s	6	2	SIC	506	RC	1	0	23MC	0	1	1.79764795303	-333.0	70.0	None	None	0
1.7	2015_Jul_21_1414	s	s	6	2	SIC	507	RC	0	1	23RO	0	1	2.30152797699	106.0	-97.0	None	None	0
1.7	2015_Jul_21_1414	s	s	6	2	SIC	508	ABS	1	2	24MD	0	1	0.784343957901	None	None	None	None	1
1.7	2015_Jul_21_1414	s	s	6	2	SIC	509	RC	1	2	23MD	1	0	0.835042953491	317.0	-331.0	328	-322	1
1.7	2015_Jul_21_1414	s	s	6	2	SIC	510	ABS	2	2	24VD	0	1	0.502635002136	None	None	None	None	1
1.7	2015_Jul_21_1414	s	s	6	2	SIC	511	ABS	2	0	24VC	0	1	0.52389216423	None	None	None	None	1
1.7	2015_Jul_21_1414	s	s	6	2	SIC	512	RC	2	0	23VC	1	0	0.678445100784	115.0	-187.0	112	-179	1
1.7	2015_Jul_21_1414	s	s	6	2	SIC	513	RC	2	0	23VC	1	0	0.443771123886	335.0	256.0	334	249	1
1.7	2015_Jul_21_1414	s	s	6	2	SIC	514	ABS	0	2	24RD	0	1	0.70561003685	None	None	None	None	1
1.7	2015_Jul_21_1414	s	s	6	2	SIC	515	ABS	2	2	24VD	0	1	0.463741064072	None	None	None	None	1
1.7	2015_Jul_21_1414	s	s	6	2	SIC	516	RC	2	2	23VD	1	0	0.493628978729	-339.0	183.0	-341	187	1
1.7	2015_Jul_21_1414	s	s	6	2	SIC	517	RC	1	0	23MC	1	0	1.19998216629	-286.0	-195.0	-282	-191	1
1.7	2015_Jul_21_1414	s	s	6	2	SIC	518	ABS	1	0	24MC	0	1	1.44712400436	None	None	None	None	1
1.7	2015_Jul_21_1414	s	s	6	2	SIC	519	ABS	0	1	24RO	0	1	1.70311021805	None	None	None	None	1
1.7	2015_Jul_21_1414	s	s	6	2	SIC	520	ABS	2	1	24VO	0	1	0.470202922821	None	None	None	None	1
1.7	2015_Jul_21_1414	s	s	6	2	SIC	521	ABS	2	0	24VC	0	1	0.540884017944	None	None	None	None	1
1.7	2015_Jul_21_1414	s	s	6	2	SIC	522	RC	1	2	23MD	0	1	0.882216930389	-150.0	-305.0	None	None	0
1.7	2015_Jul_21_1414	s	s	6	2	SIC	523	RC	1	1	23MO	1	0	0.725452899933	-62.0	-38.0	-60	-31	1
1.7	2015_Jul_21_1414	s	s	6	2	SIC	524	ABS	1	1	24MO	1	0	0.453871965408	None	None	102	175	0
1.7	2015_Jul_21_1414	s	s	6	2	SIC	525	RC	0	2	23RD	1	0	0.55947804451	-56.0	380.0	-49	380	1
1.7	2015_Jul_21_1414	s	s	6	2	SIC	526	RC	0	1	23RO	0	1	1.74143004417	9.0	199.0	None	None	0
1.7	2015_Jul_21_1414	s	s	6	2	SIC	527	ABS	1	2	24MD	0	1	0.497381925583	None	None	None	None	1
1.7	2015_Jul_21_1414	s	s	6	2	SIC	528	RC	2	1	23VO	1	0	0.502002000809	-217.0	-219.0	-226	-212	1
1.7	2015_Jul_21_1414	s	s	6	2	SIC	529	ABS	2	0	24VC	0	1	0.544538021088	None	None	None	None	1
1.7	2015_Jul_21_1414	s	s	6	2	SIC	530	ABS	1	2	24MD	0	1	0.818065881729	None	None	None	None	1
1.7	2015_Jul_21_1414	s	s	6	2	SIC	531	ABS	2	2	24VD	0	1	0.485575199127	None	None	None	None	1
1.7	2015_Jul_21_1414	s	s	6	2	SIC	532	ABS	2	1	24VO	0	1	0.653475999832	None	None	None	None	1
1.7	2015_Jul_21_1414	s	s	6	2	SIC	533	ABS	0	2	24RD	0	1	0.478266954422	None	None	None	None	1
1.7	2015_Jul_21_1414	s	s	6	2	SIC	534	RC	0	2	23RD	1	0	0.729130029678	448.0	107.0	446	111	1
1.7	2015_Jul_21_1414	s	s	6	2	SIC	535	RC	2	0	23VC	1	0	0.481883049011	216.0	78.0	217	84	1
1.7	2015_Jul_21_1414	s	s	6	2	SIC	536	ABS	1	0	24MC	0	1	0.635068893433	None	None	None	None	1
1.7	2015_Jul_21_1414	s	s	6	2	SIC	537	ABS	0	1	24RO	0	1	0.677187919617	None	None	None	None	1
1.7	2015_Jul_21_1414	s	s	6	2	SIC	538	RC	2	2	23VD	1	0	0.454901218414	-45.0	-103.0	-43	-102	1
1.7	2015_Jul_21_1414	s	s	6	2	SIC	539	RC	1	0	23MC	1	0	0.512317895889	89.0	1.0	77	4	1
1.7	2015_Jul_21_1414	s	s	6	2	SIC	540	RC	0	1	23RO	0	1	0.646708965302	-89.0	-289.0	None	None	0
1.7	2015_Jul_21_1414	s	s	6	2	SIC	541	RC	2	1	23VO	1	0	0.446578979492	-357.0	-77.0	-356	-76	1
1.7	2015_Jul_21_1414	s	s	6	2	SIC	542	ABS	1	1	24MO	0	1	0.709249973297	None	None	None	None	1
1.7	2015_Jul_21_1414	s	s	6	2	SIC	543	RC	1	1	23MO	1	0	0.832505941391	-165.0	-2.0	-165	-2	1
1.7	2015_Jul_21_1414	s	s	6	2	SIC	544	RC	1	2	23MD	1	0	0.653548002243	289.0	-216.0	281	-208	1
1.7	2015_Jul_21_1414	s	s	6	2	SIC	545	RC	2	1	23VO	1	0	0.477181911469	81.0	181.0	89	177	1
1.7	2015_Jul_21_1414	s	s	6	2	SIC	546	ABS	1	2	24MD	0	1	0.576118946075	None	None	None	None	1
1.7	2015_Jul_21_1414	s	s	6	2	SIC	547	RC	2	0	23VC	1	0	0.547078132629	225.0	-382.0	230	-376	1
1.7	2015_Jul_21_1414	s	s	6	2	SIC	548	RC	2	2	23VD	1	0	0.500309944153	-89.0	370.0	-89	368	1
1.7	2015_Jul_21_1414	s	s	6	2	SIC	549	ABS	1	1	24MO	0	1	0.435055971146	None	None	None	None	1
1.7	2015_Jul_21_1414	s	s	6	2	SIC	550	RC	1	1	23MO	0	1	0.665481090546	460.0	239.0	None	None	0
1.7	2015_Jul_21_1414	s	s	6	2	SIC	551	RC	1	0	23MC	0	1	0.729202032089	142.0	331.0	None	None	0
1.7	2015_Jul_21_1414	s	s	6	2	SIC	552	ABS	2	2	24VD	0	1	0.477845907211	None	None	None	None	1
1.7	2015_Jul_21_1414	s	s	6	2	SIC	553	ABS	1	0	24MC	0	1	0.823286056519	None	None	None	None	1
1.7	2015_Jul_21_1414	s	s	6	2	SIC	554	RC	0	1	23RO	0	1	1.39642620087	-483.0	314.0	None	None	0
1.7	2015_Jul_21_1414	s	s	6	2	SIC	555	ABS	2	1	24VO	0	1	0.535785913467	None	None	None	None	1
1.7	2015_Jul_21_1414	s	s	6	2	SIC	556	RC	0	2	23RD	1	0	0.5172560215	367.0	-277.0	372	-275	1
1.7	2015_Jul_21_1414	s	s	6	2	SIC	557	RC	1	2	23MD	1	0	0.417969942093	-294.0	-9.0	-292	-10	1
1.7	2015_Jul_21_1414	s	s	6	2	SIC	558	ABS	0	1	24RO	0	1	1.15018701553	None	None	None	None	1
1.7	2015_Jul_21_1414	s	s	6	2	SIC	559	ABS	2	0	24VC	0	1	0.499897003174	None	None	None	None	1
1.7	2015_Jul_21_1414	s	s	6	2	SIC	560	ABS	0	2	24RD	0	1	0.547785997391	None	None	None	None	1
1.7	2015_Jul_21_1414	s	s	6	2	SIC	561	RC	2	0	23VC	1	0	0.641733169556	448.0	-367.0	459	-363	1
1.7	2015_Jul_21_1414	s	s	6	2	SIC	562	ABS	1	1	24MO	0	1	0.799735069275	None	None	None	None	1
1.7	2015_Jul_21_1414	s	s	6	2	SIC	563	ABS	2	2	24VD	0	1	0.429975032806	None	None	None	None	1
1.7	2015_Jul_21_1414	s	s	6	2	SIC	564	ABS	0	2	24RD	0	1	0.470149040222	None	None	None	None	1
1.7	2015_Jul_21_1414	s	s	6	2	SIC	565	ABS	2	1	24VO	0	1	0.490426063538	None	None	None	None	1
1.7	2015_Jul_21_1414	s	s	6	2	SIC	566	RC	1	2	23MD	1	0	0.476903915405	-111.0	-21.0	-111	-20	1
1.7	2015_Jul_21_1414	s	s	6	2	SIC	567	RC	0	1	23RO	0	1	1.08229780197	521.0	279.0	None	None	0
1.7	2015_Jul_21_1414	s	s	6	2	SIC	568	RC	1	0	23MC	1	0	1.20679497719	351.0	-74.0	347	-79	1
1.7	2015_Jul_21_1414	s	s	6	2	SIC	569	RC	1	1	23MO	0	1	1.01854109764	368.0	70.0	None	None	0
1.7	2015_Jul_21_1414	s	s	6	2	SIC	570	RC	2	2	23VD	1	0	0.490047931671	44.0	-117.0	49	-116	1
1.7	2015_Jul_21_1414	s	s	6	2	SIC	571	ABS	2	0	24VC	0	1	0.522999048233	None	None	None	None	1
1.7	2015_Jul_21_1414	s	s	6	2	SIC	572	RC	0	2	23RD	1	0	0.559348106384	203.0	-201.0	208	-197	1
1.7	2015_Jul_21_1414	s	s	6	2	SIC	573	ABS	1	2	24MD	0	1	0.642081022263	None	None	None	None	1
1.7	2015_Jul_21_1414	s	s	6	2	SIC	574	ABS	1	0	24MC	0	1	1.11761379242	None	None	None	None	1
1.7	2015_Jul_21_1414	s	s	6	2	SIC	575	RC	2	1	23VO	1	0	0.523118972778	49.0	120.0	42	124	1
1.7	2015_Jul_21_1414	s	s	6	2	SIC	576	ABS	0	1	24RO	0	1	0.658468008041	None	None	None	None	1
1.7	2015_Jul_21_1414	s	s	6	2	SIC	577	ABS	1	2	24MD	0	1	0.724097967148	None	None	None	None	1
1.7	2015_Jul_21_1414	s	s	6	2	SIC	578	RC	1	0	23MC	1	0	1.18820285797	-112.0	-15.0	-121	-15	1
1.7	2015_Jul_21_1414	s	s	6	2	SIC	579	RC	0	2	23RD	1	0	0.529069900513	339.0	216.0	332	210	1
1.7	2015_Jul_21_1414	s	s	6	2	SIC	580	ABS	2	1	24VO	0	1	0.458375930786	None	None	None	None	1
1.7	2015_Jul_21_1414	s	s	6	2	SIC	581	RC	0	1	23RO	0	1	0.988117933273	-124.0	119.0	None	None	0
1.7	2015_Jul_21_1414	s	s	6	2	SIC	582	ABS	0	1	24RO	0	1	0.924149990082	None	None	None	None	1
1.7	2015_Jul_21_1414	s	s	6	2	SIC	583	RC	1	1	23MO	1	0	0.587855815887	-56.0	69.0	-46	73	1
1.7	2015_Jul_21_1414	s	s	6	2	SIC	584	RC	2	2	23VD	1	0	0.441283941269	389.0	294.0	390	290	1
1.7	2015_Jul_21_1414	s	s	6	2	SIC	585	RC	2	0	23VC	1	0	0.423094987869	271.0	139.0	269	144	1
1.7	2015_Jul_21_1414	s	s	6	2	SIC	586	ABS	2	2	24VD	1	0	0.446651935577	None	None	-35	19	0
1.7	2015_Jul_21_1414	s	s	6	2	SIC	587	ABS	2	0	24VC	0	1	0.505564928055	None	None	None	None	1
1.7	2015_Jul_21_1414	s	s	6	2	SIC	588	ABS	1	1	24MO	0	1	0.7244617939	None	None	None	None	1
1.7	2015_Jul_21_1414	s	s	6	2	SIC	589	RC	2	1	23VO	1	0	0.752634048462	-519.0	-365.0	-513	-366	1
1.7	2015_Jul_21_1414	s	s	6	2	SIC	590	ABS	1	0	24MC	0	1	0.940966844559	None	None	None	None	1
1.7	2015_Jul_21_1414	s	s	6	2	SIC	591	ABS	0	2	24RD	0	1	0.477715969086	None	None	None	None	1
1.7	2015_Jul_21_1414	s	s	6	2	SIC	592	RC	1	2	23MD	1	0	0.635014057159	-201.0	-353.0	-200	-349	1
