Version	Date	Stimuli	Method	Subject	Session	Condition	Trial	Target	Channel1	Channel2	Distractors	LMouseButton	RMouseButton	RT	TargetX	TargetY	ResponseX	ResponseY	Correct
1.7	2015_Jul_20_1437	s	s	6	1	Capacity	1	RC	0	1	23RO	0	1	16.3923821449	-98.0	234.0	None	None	0
1.7	2015_Jul_20_1437	s	s	6	1	Capacity	2	ABS	0	1	24RO	0	1	16.8547868729	None	None	None	None	1
1.7	2015_Jul_20_1437	s	s	6	1	Capacity	3	RC	0	2	23RD	1	0	3.61289811134	57.0	-317.0	57	-319	1
1.7	2015_Jul_20_1437	s	s	6	1	Capacity	4	ABS	0	2	24RD	0	1	10.0280139446	None	None	None	None	1
1.7	2015_Jul_20_1437	s	s	6	1	Capacity	5	RC	0	2	23RD	1	0	6.46824598312	515.0	210.0	518	213	1
1.7	2015_Jul_20_1437	s	s	6	1	Capacity	6	ABS	0	1	24RO	0	1	16.0023739338	None	None	None	None	1
1.7	2015_Jul_20_1437	s	s	6	1	Capacity	7	RC	0	1	23RO	1	0	8.6505959034	93.0	-96.0	100	-95	1
1.7	2015_Jul_20_1437	s	s	6	1	Capacity	8	ABS	0	2	24RD	0	1	4.69582104683	None	None	None	None	1
1.7	2015_Jul_20_1437	s	s	6	1	Capacity	9	ABS	0	1	24RO	0	1	12.2735080719	None	None	None	None	1
1.7	2015_Jul_20_1437	s	s	6	1	Capacity	10	ABS	0	2	24RD	0	1	4.9156601429	None	None	None	None	1
1.7	2015_Jul_20_1437	s	s	6	1	Capacity	11	RC	0	2	23RD	1	0	1.44719219208	219.0	-262.0	226	-258	1
1.7	2015_Jul_20_1437	s	s	6	1	Capacity	12	RC	0	1	23RO	1	0	7.46857714653	382.0	-124.0	391	-127	1
1.7	2015_Jul_20_1437	s	s	6	1	Capacity	13	ABS	0	2	24RD	0	1	9.92897605896	None	None	None	None	1
1.7	2015_Jul_20_1437	s	s	6	1	Capacity	14	ABS	0	1	24RO	0	1	15.936716795	None	None	None	None	1
1.7	2015_Jul_20_1437	s	s	6	1	Capacity	15	RC	0	1	23RO	1	0	7.65883302689	6.0	226.0	9	219	1
1.7	2015_Jul_20_1437	s	s	6	1	Capacity	16	RC	0	2	23RD	1	0	5.0313410759	-181.0	-155.0	-175	-158	1
1.7	2015_Jul_20_1437	s	s	6	1	Capacity	17	RC	0	2	23RD	1	0	2.00929713249	-519.0	307.0	-512	302	1
1.7	2015_Jul_20_1437	s	s	6	1	Capacity	18	RC	0	1	23RO	1	0	8.81215810776	-337.0	-60.0	-338	-62	1
1.7	2015_Jul_20_1437	s	s	6	1	Capacity	19	ABS	0	1	24RO	0	1	13.358959198	None	None	None	None	1
1.7	2015_Jul_20_1437	s	s	6	1	Capacity	20	ABS	0	2	24RD	0	1	9.3098731041	None	None	None	None	1
1.7	2015_Jul_20_1437	s	s	6	1	Capacity	21	ABS	0	1	24RO	0	1	11.6521790028	None	None	None	None	1
1.7	2015_Jul_20_1437	s	s	6	1	Capacity	22	ABS	0	2	24RD	0	1	5.44911313057	None	None	None	None	1
1.7	2015_Jul_20_1437	s	s	6	1	Capacity	23	RC	0	1	23RO	1	0	4.18972301483	326.0	-54.0	333	-48	1
1.7	2015_Jul_20_1437	s	s	6	1	Capacity	24	RC	0	2	23RD	1	0	2.48294186592	181.0	183.0	190	179	1
1.7	2015_Jul_20_1437	s	s	6	1	Capacity	25	ABS	0	2	24RD	0	1	5.26612210274	None	None	None	None	1
1.7	2015_Jul_20_1437	s	s	6	1	Capacity	26	ABS	0	1	24RO	0	1	13.2882452011	None	None	None	None	1
1.7	2015_Jul_20_1437	s	s	6	1	Capacity	27	RC	0	1	23RO	1	0	9.94534993172	285.0	-319.0	288	-317	1
1.7	2015_Jul_20_1437	s	s	6	1	Capacity	28	RC	0	2	23RD	1	0	1.83055877686	432.0	100.0	437	97	1
1.7	2015_Jul_20_1437	s	s	6	1	Capacity	29	RC	0	2	23RD	1	0	1.12940216064	459.0	330.0	448	335	1
1.7	2015_Jul_20_1437	s	s	6	1	Capacity	30	ABS	0	1	24RO	0	1	15.0014410019	None	None	None	None	1
1.7	2015_Jul_20_1437	s	s	6	1	Capacity	31	ABS	0	2	24RD	0	1	5.93174791336	None	None	None	None	1
1.7	2015_Jul_20_1437	s	s	6	1	Capacity	32	RC	0	1	23RO	1	0	7.5626809597	-506.0	205.0	-504	193	1
1.7	2015_Jul_20_1437	s	s	6	1	Capacity	33	RC	0	2	23RD	1	0	1.7332239151	-93.0	-355.0	-94	-354	1
1.7	2015_Jul_20_1437	s	s	6	1	Capacity	34	ABS	0	2	24RD	0	1	5.82578802109	None	None	None	None	1
1.7	2015_Jul_20_1437	s	s	6	1	Capacity	35	ABS	0	1	24RO	0	1	10.8282940388	None	None	None	None	1
1.7	2015_Jul_20_1437	s	s	6	1	Capacity	36	RC	0	1	23RO	1	0	10.3662159443	-378.0	115.0	-377	121	1
1.7	2015_Jul_20_1437	s	s	6	1	Capacity	37	ABS	0	1	24RO	0	1	11.0472857952	None	None	None	None	1
1.7	2015_Jul_20_1437	s	s	6	1	Capacity	38	ABS	0	2	24RD	0	1	4.06913995743	None	None	None	None	1
1.7	2015_Jul_20_1437	s	s	6	1	Capacity	39	RC	0	2	23RD	1	0	1.30088305473	-277.0	-364.0	-276	-364	1
1.7	2015_Jul_20_1437	s	s	6	1	Capacity	40	RC	0	1	23RO	1	0	9.663022995	232.0	120.0	229	128	1
1.7	2015_Jul_20_1437	s	s	6	1	Capacity	41	RC	0	2	23RD	1	0	2.07095694542	94.0	-376.0	100	-375	1
1.7	2015_Jul_20_1437	s	s	6	1	Capacity	42	ABS	0	2	24RD	0	1	3.81930589676	None	None	None	None	1
1.7	2015_Jul_20_1437	s	s	6	1	Capacity	43	ABS	0	1	24RO	0	1	12.064207077	None	None	None	None	1
1.7	2015_Jul_20_1437	s	s	6	1	Capacity	44	RC	0	1	23RO	1	0	3.33089089394	-455.0	316.0	-453	319	1
1.7	2015_Jul_20_1437	s	s	6	1	Capacity	45	RC	0	1	23RO	1	0	4.05458593369	382.0	-37.0	378	-32	1
1.7	2015_Jul_20_1437	s	s	6	1	Capacity	46	ABS	0	2	24RD	0	1	4.40156602859	None	None	None	None	1
1.7	2015_Jul_20_1437	s	s	6	1	Capacity	47	ABS	0	1	24RO	0	1	12.4381148815	None	None	None	None	1
1.7	2015_Jul_20_1437	s	s	6	1	Capacity	48	RC	0	2	23RD	1	0	2.46573781967	289.0	93.0	291	89	1
1.7	2015_Jul_20_1437	s	s	6	1	Capacity	49	RC	0	1	23RO	1	0	4.37804293633	249.0	-206.0	258	-205	1
1.7	2015_Jul_20_1437	s	s	6	1	Capacity	50	RC	0	2	23RD	1	0	1.21174693108	-286.0	-85.0	-294	-83	1
1.7	2015_Jul_20_1437	s	s	6	1	Capacity	51	ABS	0	1	24RO	0	1	8.46241402626	None	None	None	None	1
1.7	2015_Jul_20_1437	s	s	6	1	Capacity	52	ABS	0	2	24RD	0	1	4.5427441597	None	None	None	None	1
1.7	2015_Jul_20_1437	s	s	6	1	Capacity	53	ABS	0	2	24RD	0	1	3.5139029026	None	None	None	None	1
1.7	2015_Jul_20_1437	s	s	6	1	Capacity	54	RC	0	2	23RD	1	0	1.27736902237	533.0	-159.0	538	-155	1
1.7	2015_Jul_20_1437	s	s	6	1	Capacity	55	RC	0	1	23RO	1	0	6.05731201172	-39.0	280.0	-33	278	1
1.7	2015_Jul_20_1437	s	s	6	1	Capacity	56	ABS	0	1	24RO	0	1	9.13338708878	None	None	None	None	1
1.7	2015_Jul_20_1437	s	s	6	1	Capacity	57	RC	0	2	23RD	1	0	0.835104942322	-267.0	-83.0	-272	-94	1
1.7	2015_Jul_20_1437	s	s	6	1	Capacity	58	RC	0	1	23RO	1	0	6.98756408691	-292.0	-290.0	-299	-283	1
1.7	2015_Jul_20_1437	s	s	6	1	Capacity	59	ABS	0	1	24RO	0	1	9.30987405777	None	None	None	None	1
1.7	2015_Jul_20_1437	s	s	6	1	Capacity	60	ABS	0	2	24RD	0	1	3.45994997025	None	None	None	None	1
1.7	2015_Jul_20_1437	s	s	6	1	Capacity	61	RC	0	1	23RO	1	0	8.00373387337	474.0	276.0	478	277	1
1.7	2015_Jul_20_1437	s	s	6	1	Capacity	62	RC	0	2	23RD	1	0	1.37655186653	-206.0	357.0	-204	355	1
1.7	2015_Jul_20_1437	s	s	6	1	Capacity	63	ABS	0	1	24RO	0	1	9.03462195396	None	None	None	None	1
1.7	2015_Jul_20_1437	s	s	6	1	Capacity	64	ABS	0	2	24RD	0	1	3.34900522232	None	None	None	None	1
1.7	2015_Jul_20_1437	s	s	6	1	Capacity	65	RC	0	2	23RD	1	0	1.24740886688	123.0	-315.0	127	-320	1
1.7	2015_Jul_20_1437	s	s	6	1	Capacity	66	RC	0	1	23RO	1	0	6.06896996498	-103.0	40.0	-97	35	1
1.7	2015_Jul_20_1437	s	s	6	1	Capacity	67	ABS	0	2	24RD	0	1	3.03115797043	None	None	None	None	1
1.7	2015_Jul_20_1437	s	s	6	1	Capacity	68	ABS	0	1	24RO	0	1	11.6707241535	None	None	None	None	1
1.7	2015_Jul_20_1437	s	s	6	1	Capacity	69	ABS	0	2	24RD	0	1	2.96557497978	None	None	None	None	1
1.7	2015_Jul_20_1437	s	s	6	1	Capacity	70	RC	0	2	23RD	1	0	1.37130403519	-378.0	140.0	-382	139	1
1.7	2015_Jul_20_1437	s	s	6	1	Capacity	71	ABS	0	1	24RO	0	1	7.89754509926	None	None	None	None	1
1.7	2015_Jul_20_1437	s	s	6	1	Capacity	72	RC	0	1	23RO	1	0	2.64769816399	-79.0	-88.0	-75	-87	1
1.7	2015_Jul_20_1437	s	s	6	1	Capacity	73	RC	0	1	23RO	1	0	2.38880515099	-396.0	374.0	-397	382	1
1.7	2015_Jul_20_1437	s	s	6	1	Capacity	74	ABS	0	1	24RO	0	1	8.53299689293	None	None	None	None	1
1.7	2015_Jul_20_1437	s	s	6	1	Capacity	75	ABS	0	2	24RD	0	1	2.95376110077	None	None	None	None	1
1.7	2015_Jul_20_1437	s	s	6	1	Capacity	76	RC	0	2	23RD	1	0	1.32438492775	-245.0	-133.0	-246	-125	1
1.7	2015_Jul_20_1437	s	s	6	1	Capacity	77	ABS	0	2	24RD	0	1	3.31368398666	None	None	None	None	1
1.7	2015_Jul_20_1437	s	s	6	1	Capacity	78	RC	0	2	23RD	1	0	2.53593206406	267.0	-268.0	276	-269	1
1.7	2015_Jul_20_1437	s	s	6	1	Capacity	79	RC	0	1	23RO	1	0	9.22286009789	384.0	-320.0	384	-323	1
1.7	2015_Jul_20_1437	s	s	6	1	Capacity	80	ABS	0	1	24RO	0	1	9.47470808029	None	None	None	None	1
1.7	2015_Jul_20_1437	s	s	6	1	Capacity	81	RC	0	1	23RO	1	0	2.71349716187	-468.0	258.0	-461	258	1
1.7	2015_Jul_20_1437	s	s	6	1	Capacity	82	RC	0	2	23RD	1	0	2.7839910984	388.0	-247.0	393	-241	1
1.7	2015_Jul_20_1437	s	s	6	1	Capacity	83	ABS	0	2	24RD	0	1	3.27156877518	None	None	None	None	1
1.7	2015_Jul_20_1437	s	s	6	1	Capacity	84	ABS	0	1	24RO	0	1	7.11572003365	None	None	None	None	1
1.7	2015_Jul_20_1437	s	s	6	1	Capacity	85	ABS	0	2	24RD	0	1	3.0074160099	None	None	None	None	1
1.7	2015_Jul_20_1437	s	s	6	1	Capacity	86	ABS	0	1	24RO	0	1	9.20391392708	None	None	None	None	1
1.7	2015_Jul_20_1437	s	s	6	1	Capacity	87	RC	0	2	23RD	1	0	1.13613915443	210.0	-26.0	208	-33	1
1.7	2015_Jul_20_1437	s	s	6	1	Capacity	88	RC	0	1	23RO	1	0	6.82121801376	-45.0	-299.0	-42	-299	1
1.7	2015_Jul_20_1437	s	s	6	1	Capacity	89	RC	0	1	23RO	0	1	9.53976202011	-265.0	289.0	None	None	0
1.7	2015_Jul_20_1437	s	s	6	1	Capacity	90	ABS	0	1	24RO	0	1	10.8697659969	None	None	None	None	1
1.7	2015_Jul_20_1437	s	s	6	1	Capacity	91	ABS	0	2	24RD	0	1	3.29519796371	None	None	None	None	1
1.7	2015_Jul_20_1437	s	s	6	1	Capacity	92	RC	0	2	23RD	1	0	1.70275115967	-191.0	404.0	-193	402	1
1.7	2015_Jul_20_1437	s	s	6	1	Capacity	1	ABS	1	0	24MC	1	0	11.5060381889	None	None	253	-70	0
1.7	2015_Jul_20_1437	s	s	6	1	Capacity	2	ABS	2	0	24VC	0	1	3.52646684647	None	None	None	None	1
1.7	2015_Jul_20_1437	s	s	6	1	Capacity	3	RC	1	0	23MC	1	0	7.14414811134	-499.0	-119.0	99	-51	0
1.7	2015_Jul_20_1437	s	s	6	1	Capacity	4	RC	2	0	23VC	1	0	0.988065958023	197.0	-140.0	199	-143	1
1.7	2015_Jul_20_1437	s	s	6	1	Capacity	5	RC	1	0	23MC	1	0	3.63151502609	-94.0	201.0	-151	-279	0
1.7	2015_Jul_20_1437	s	s	6	1	Capacity	6	ABS	2	0	24VC	0	1	1.81881380081	None	None	None	None	1
1.7	2015_Jul_20_1437	s	s	6	1	Capacity	7	ABS	1	0	24MC	1	0	8.17486310005	None	None	8	-3	0
1.7	2015_Jul_20_1437	s	s	6	1	Capacity	8	RC	2	0	23VC	1	0	1.15963196754	188.0	-205.0	176	-201	1
1.7	2015_Jul_20_1437	s	s	6	1	Capacity	9	ABS	1	0	24MC	1	0	1.17643690109	None	None	46	52	0
1.7	2015_Jul_20_1437	s	s	6	1	Capacity	10	ABS	2	0	24VC	0	1	1.73547101021	None	None	None	None	1
1.7	2015_Jul_20_1437	s	s	6	1	Capacity	11	RC	1	0	23MC	1	0	5.45591807365	-286.0	52.0	-503	350	0
1.7	2015_Jul_20_1437	s	s	6	1	Capacity	12	RC	2	0	23VC	1	0	1.35896682739	296.0	-207.0	302	-209	1
1.7	2015_Jul_20_1437	s	s	6	1	Capacity	13	RC	1	0	23MC	0	1	2.0676419735	252.0	-367.0	None	None	0
1.7	2015_Jul_20_1437	s	s	6	1	Capacity	14	ABS	2	0	24VC	0	1	1.2587659359	None	None	None	None	1
1.7	2015_Jul_20_1437	s	s	6	1	Capacity	15	ABS	1	0	24MC	0	1	5.9526040554	None	None	None	None	1
1.7	2015_Jul_20_1437	s	s	6	1	Capacity	16	RC	2	0	23VC	1	0	0.90064406395	214.0	-81.0	218	-88	1
1.7	2015_Jul_20_1437	s	s	6	1	Capacity	17	ABS	2	0	24VC	0	1	0.901202917099	None	None	None	None	1
1.7	2015_Jul_20_1437	s	s	6	1	Capacity	18	ABS	1	0	24MC	1	0	1.20674109459	None	None	245	118	0
1.7	2015_Jul_20_1437	s	s	6	1	Capacity	19	RC	1	0	23MC	0	1	1.52444291115	-67.0	387.0	None	None	0
1.7	2015_Jul_20_1437	s	s	6	1	Capacity	20	RC	2	0	23VC	1	0	0.976316928864	-77.0	-181.0	-79	-182	1
1.7	2015_Jul_20_1437	s	s	6	1	Capacity	21	RC	2	0	23VC	1	0	1.59520721436	-192.0	41.0	-195	35	1
1.7	2015_Jul_20_1437	s	s	6	1	Capacity	22	ABS	2	0	24VC	0	1	1.04384112358	None	None	None	None	1
1.7	2015_Jul_20_1437	s	s	6	1	Capacity	23	RC	1	0	23MC	1	0	3.1245059967	-220.0	179.0	152	341	0
1.7	2015_Jul_20_1437	s	s	6	1	Capacity	24	ABS	1	0	24MC	1	0	5.84934306145	None	None	51	69	0
1.7	2015_Jul_20_1437	s	s	6	1	Capacity	25	RC	1	0	23MC	0	1	8.95681095123	278.0	102.0	None	None	0
1.7	2015_Jul_20_1437	s	s	6	1	Capacity	26	ABS	2	0	24VC	0	1	1.75888800621	None	None	None	None	1
1.7	2015_Jul_20_1437	s	s	6	1	Capacity	27	RC	2	0	23VC	1	0	0.811619997025	135.0	250.0	135	252	1
1.7	2015_Jul_20_1437	s	s	6	1	Capacity	28	ABS	1	0	24MC	0	1	2.27112197876	None	None	None	None	1
1.7	2015_Jul_20_1437	s	s	6	1	Capacity	29	ABS	2	0	24VC	0	1	0.917371988297	None	None	None	None	1
1.7	2015_Jul_20_1437	s	s	6	1	Capacity	30	ABS	1	0	24MC	0	1	1.75328612328	None	None	None	None	1
1.7	2015_Jul_20_1437	s	s	6	1	Capacity	31	RC	1	0	23MC	0	1	0.749022960663	-233.0	121.0	None	None	0
1.7	2015_Jul_20_1437	s	s	6	1	Capacity	32	RC	2	0	23VC	1	0	1.29408311844	433.0	64.0	438	63	1
1.7	2015_Jul_20_1437	s	s	6	1	Capacity	33	ABS	1	0	24MC	0	1	1.19993805885	None	None	None	None	1
1.7	2015_Jul_20_1437	s	s	6	1	Capacity	34	RC	1	0	23MC	0	1	0.835544109344	-381.0	-286.0	None	None	0
1.7	2015_Jul_20_1437	s	s	6	1	Capacity	35	ABS	2	0	24VC	0	1	0.938438177109	None	None	None	None	1
1.7	2015_Jul_20_1437	s	s	6	1	Capacity	36	RC	2	0	23VC	1	0	0.807751893997	-141.0	-31.0	-139	-31	1
1.7	2015_Jul_20_1437	s	s	6	1	Capacity	37	RC	2	0	23VC	1	0	0.794708967209	376.0	281.0	383	287	1
1.7	2015_Jul_20_1437	s	s	6	1	Capacity	38	ABS	1	0	24MC	1	0	6.67329192162	None	None	116	322	0
1.7	2015_Jul_20_1437	s	s	6	1	Capacity	39	ABS	2	0	24VC	0	1	1.19497990608	None	None	None	None	1
1.7	2015_Jul_20_1437	s	s	6	1	Capacity	40	RC	1	0	23MC	1	0	10.8702938557	450.0	134.0	-315	-71	0
1.7	2015_Jul_20_1437	s	s	6	1	Capacity	41	ABS	2	0	24VC	0	1	0.687597036362	None	None	None	None	1
1.7	2015_Jul_20_1437	s	s	6	1	Capacity	42	RC	2	0	23VC	1	0	0.771191835403	-509.0	56.0	-504	57	1
1.7	2015_Jul_20_1437	s	s	6	1	Capacity	43	RC	1	0	23MC	1	0	3.26670098305	267.0	-2.0	-184	54	0
1.7	2015_Jul_20_1437	s	s	6	1	Capacity	44	ABS	1	0	24MC	0	1	0.99501490593	None	None	None	None	1
1.7	2015_Jul_20_1437	s	s	6	1	Capacity	45	ABS	2	0	24VC	0	1	0.714684009552	None	None	None	None	1
1.7	2015_Jul_20_1437	s	s	6	1	Capacity	46	RC	2	0	23VC	1	0	0.682023048401	-392.0	30.0	-397	20	1
1.7	2015_Jul_20_1437	s	s	6	1	Capacity	47	RC	1	0	23MC	0	1	1.1764588356	404.0	371.0	None	None	0
1.7	2015_Jul_20_1437	s	s	6	1	Capacity	48	ABS	1	0	24MC	1	0	5.62083792686	None	None	-155	143	0
1.7	2015_Jul_20_1437	s	s	6	1	Capacity	49	RC	1	0	23MC	0	1	0.735258102417	205.0	109.0	None	None	0
1.7	2015_Jul_20_1437	s	s	6	1	Capacity	50	ABS	1	0	24MC	1	0	2.12458777428	None	None	65	195	0
1.7	2015_Jul_20_1437	s	s	6	1	Capacity	51	ABS	2	0	24VC	0	1	1.04205608368	None	None	None	None	1
1.7	2015_Jul_20_1437	s	s	6	1	Capacity	52	RC	2	0	23VC	1	0	0.73735499382	107.0	-55.0	103	-48	1
1.7	2015_Jul_20_1437	s	s	6	1	Capacity	53	RC	1	0	23MC	1	0	3.47768187523	-395.0	326.0	247	319	0
1.7	2015_Jul_20_1437	s	s	6	1	Capacity	54	ABS	1	0	24MC	0	1	10.6635258198	None	None	None	None	1
1.7	2015_Jul_20_1437	s	s	6	1	Capacity	55	ABS	2	0	24VC	0	1	0.90293598175	None	None	None	None	1
1.7	2015_Jul_20_1437	s	s	6	1	Capacity	56	RC	2	0	23VC	1	0	0.737550973892	172.0	-364.0	165	-355	1
1.7	2015_Jul_20_1437	s	s	6	1	Capacity	57	ABS	1	0	24MC	0	1	1.018460989	None	None	None	None	1
1.7	2015_Jul_20_1437	s	s	6	1	Capacity	58	RC	1	0	23MC	0	1	2.06530094147	-509.0	346.0	None	None	0
1.7	2015_Jul_20_1437	s	s	6	1	Capacity	59	ABS	2	0	24VC	0	1	1.11759209633	None	None	None	None	1
1.7	2015_Jul_20_1437	s	s	6	1	Capacity	60	RC	2	0	23VC	1	0	0.682039022446	-485.0	247.0	-484	256	1
1.7	2015_Jul_20_1437	s	s	6	1	Capacity	61	ABS	2	0	24VC	0	1	1.12438392639	None	None	None	None	1
1.7	2015_Jul_20_1437	s	s	6	1	Capacity	62	ABS	1	0	24MC	1	0	1.48936390877	None	None	-229	-45	0
1.7	2015_Jul_20_1437	s	s	6	1	Capacity	63	RC	1	0	23MC	1	0	1.24698400497	63.0	272.0	-103	19	0
1.7	2015_Jul_20_1437	s	s	6	1	Capacity	64	RC	2	0	23VC	1	0	0.949188947678	-538.0	-211.0	-538	-203	1
1.7	2015_Jul_20_1437	s	s	6	1	Capacity	65	RC	2	0	23VC	1	0	0.764434099197	422.0	-252.0	421	-257	1
1.7	2015_Jul_20_1437	s	s	6	1	Capacity	66	RC	1	0	23MC	1	0	2.16207003593	-243.0	-343.0	-209	88	0
1.7	2015_Jul_20_1437	s	s	6	1	Capacity	67	ABS	1	0	24MC	1	0	6.44966292381	None	None	-246	-80	0
1.7	2015_Jul_20_1437	s	s	6	1	Capacity	68	ABS	2	0	24VC	0	1	1.05879282951	None	None	None	None	1
1.7	2015_Jul_20_1437	s	s	6	1	Capacity	69	RC	2	0	23VC	1	0	0.666584968567	-181.0	70.0	-174	67	1
1.7	2015_Jul_20_1437	s	s	6	1	Capacity	70	RC	1	0	23MC	0	1	3.0478849411	-279.0	-112.0	None	None	0
1.7	2015_Jul_20_1437	s	s	6	1	Capacity	71	ABS	2	0	24VC	0	1	0.682379007339	None	None	None	None	1
1.7	2015_Jul_20_1437	s	s	6	1	Capacity	72	ABS	1	0	24MC	0	1	1.2415189743	None	None	None	None	1
1.7	2015_Jul_20_1437	s	s	6	1	Capacity	73	RC	2	0	23VC	1	0	0.667549848557	307.0	-135.0	303	-132	1
1.7	2015_Jul_20_1437	s	s	6	1	Capacity	74	ABS	1	0	24MC	0	1	1.69454598427	None	None	None	None	1
1.7	2015_Jul_20_1437	s	s	6	1	Capacity	75	RC	1	0	23MC	1	0	3.833796978	9.0	157.0	-129	-32	0
1.7	2015_Jul_20_1437	s	s	6	1	Capacity	76	ABS	2	0	24VC	0	1	0.829946041107	None	None	None	None	1
1.7	2015_Jul_20_1437	s	s	6	1	Capacity	77	ABS	2	0	24VC	0	1	0.682062864304	None	None	None	None	1
1.7	2015_Jul_20_1437	s	s	6	1	Capacity	78	RC	2	0	23VC	1	0	0.988025903702	412.0	-289.0	416	-289	1
1.7	2015_Jul_20_1437	s	s	6	1	Capacity	79	ABS	1	0	24MC	1	0	1.09990406036	None	None	-499	-13	0
1.7	2015_Jul_20_1437	s	s	6	1	Capacity	80	RC	1	0	23MC	1	0	2.99589395523	85.0	-9.0	87	-4	1
1.7	2015_Jul_20_1437	s	s	6	1	Capacity	81	RC	1	0	23MC	1	0	3.55404496193	475.0	-67.0	173	347	0
1.7	2015_Jul_20_1437	s	s	6	1	Capacity	82	RC	2	0	23VC	1	0	1.00662493706	304.0	243.0	304	246	1
1.7	2015_Jul_20_1437	s	s	6	1	Capacity	83	ABS	2	0	24VC	0	1	0.846886873245	None	None	None	None	1
1.7	2015_Jul_20_1437	s	s	6	1	Capacity	84	ABS	1	0	24MC	0	1	1.45892691612	None	None	None	None	1
1.7	2015_Jul_20_1437	s	s	6	1	Capacity	85	ABS	1	0	24MC	1	0	1.38824987411	None	None	-266	133	0
1.7	2015_Jul_20_1437	s	s	6	1	Capacity	86	ABS	2	0	24VC	0	1	0.807672023773	None	None	None	None	1
1.7	2015_Jul_20_1437	s	s	6	1	Capacity	87	RC	2	0	23VC	1	0	0.773461103439	-82.0	298.0	-74	307	1
1.7	2015_Jul_20_1437	s	s	6	1	Capacity	88	RC	1	0	23MC	1	0	0.823329925537	-74.0	133.0	-72	140	1
1.7	2015_Jul_20_1437	s	s	6	1	Capacity	89	RC	1	0	23MC	1	0	4.36615204811	297.0	273.0	-469	-201	0
1.7	2015_Jul_20_1437	s	s	6	1	Capacity	90	ABS	1	0	24MC	0	1	5.37850093842	None	None	None	None	1
1.7	2015_Jul_20_1437	s	s	6	1	Capacity	91	ABS	2	0	24VC	0	1	1.32454991341	None	None	None	None	1
1.7	2015_Jul_20_1437	s	s	6	1	Capacity	92	RC	2	0	23VC	1	0	0.729240894318	281.0	350.0	276	351	1
1.7	2015_Jul_20_1437	s	s	6	1	SIC	1	ABS	0	2	24RD	0	1	2.2659060955	None	None	None	None	1
1.7	2015_Jul_20_1437	s	s	6	1	SIC	2	RC	2	1	23VO	1	0	0.517307043076	137.0	-7.0	137	-2	1
1.7	2015_Jul_20_1437	s	s	6	1	SIC	3	ABS	1	2	24MD	0	1	2.51329803467	None	None	None	None	1
1.7	2015_Jul_20_1437	s	s	6	1	SIC	4	ABS	1	0	24MC	1	0	2.10634803772	None	None	91	-11	0
1.7	2015_Jul_20_1437	s	s	6	1	SIC	5	ABS	1	1	24MO	0	1	6.19062304497	None	None	None	None	1
1.7	2015_Jul_20_1437	s	s	6	1	SIC	6	ABS	2	2	24VD	0	1	1.19402503967	None	None	None	None	1
1.7	2015_Jul_20_1437	s	s	6	1	SIC	7	ABS	2	1	24VO	0	1	1.47076296806	None	None	None	None	1
1.7	2015_Jul_20_1437	s	s	6	1	SIC	8	RC	2	2	23VD	1	0	0.852927207947	218.0	60.0	225	54	1
1.7	2015_Jul_20_1437	s	s	6	1	SIC	9	RC	2	0	23VC	1	0	0.946887969971	-444.0	-342.0	-443	-336	1
1.7	2015_Jul_20_1437	s	s	6	1	SIC	10	RC	1	0	23MC	1	0	7.15586018562	105.0	335.0	102	328	1
1.7	2015_Jul_20_1437	s	s	6	1	SIC	11	RC	0	1	23RO	1	0	7.03818011284	346.0	-224.0	349	-237	1
1.7	2015_Jul_20_1437	s	s	6	1	SIC	12	RC	1	2	23MD	1	0	0.846784830093	394.0	290.0	393	288	1
1.7	2015_Jul_20_1437	s	s	6	1	SIC	13	ABS	2	0	24VC	0	1	1.11753201485	None	None	None	None	1
1.7	2015_Jul_20_1437	s	s	6	1	SIC	14	ABS	0	1	24RO	0	1	8.05703401566	None	None	None	None	1
1.7	2015_Jul_20_1437	s	s	6	1	SIC	15	RC	1	1	23MO	1	0	1.37639093399	-476.0	-88.0	-476	-88	1
1.7	2015_Jul_20_1437	s	s	6	1	SIC	16	RC	0	2	23RD	1	0	0.91744017601	128.0	28.0	137	36	1
1.7	2015_Jul_20_1437	s	s	6	1	SIC	17	RC	2	0	23VC	1	0	0.634943008423	187.0	204.0	195	206	1
1.7	2015_Jul_20_1437	s	s	6	1	SIC	18	RC	0	1	23RO	0	1	5.56194496155	-496.0	50.0	None	None	0
1.7	2015_Jul_20_1437	s	s	6	1	SIC	19	RC	2	1	23VO	1	0	0.611424922943	-38.0	-20.0	-28	-18	1
1.7	2015_Jul_20_1437	s	s	6	1	SIC	20	RC	1	1	23MO	1	0	4.64873409271	279.0	55.0	277	59	1
1.7	2015_Jul_20_1437	s	s	6	1	SIC	21	ABS	2	0	24VC	0	1	0.99561882019	None	None	None	None	1
1.7	2015_Jul_20_1437	s	s	6	1	SIC	22	ABS	1	0	24MC	0	1	4.99714303017	None	None	None	None	1
1.7	2015_Jul_20_1437	s	s	6	1	SIC	23	ABS	2	1	24VO	0	1	0.677141904831	None	None	None	None	1
1.7	2015_Jul_20_1437	s	s	6	1	SIC	24	ABS	1	2	24MD	0	1	1.67881894112	None	None	None	None	1
1.7	2015_Jul_20_1437	s	s	6	1	SIC	25	RC	1	2	23MD	1	0	0.658443927765	-35.0	169.0	-34	162	1
1.7	2015_Jul_20_1437	s	s	6	1	SIC	26	RC	2	2	23VD	1	0	0.758308887482	505.0	401.0	504	397	1
1.7	2015_Jul_20_1437	s	s	6	1	SIC	27	ABS	0	1	24RO	0	1	8.72788190842	None	None	None	None	1
1.7	2015_Jul_20_1437	s	s	6	1	SIC	28	ABS	0	2	24RD	0	1	2.21879506111	None	None	None	None	1
1.7	2015_Jul_20_1437	s	s	6	1	SIC	29	ABS	2	2	24VD	0	1	1.25884389877	None	None	None	None	1
1.7	2015_Jul_20_1437	s	s	6	1	SIC	30	RC	1	0	23MC	1	0	3.77284407616	379.0	285.0	177	6	0
1.7	2015_Jul_20_1437	s	s	6	1	SIC	31	RC	0	2	23RD	1	0	1.70096898079	277.0	-377.0	272	-379	1
1.7	2015_Jul_20_1437	s	s	6	1	SIC	32	ABS	1	1	24MO	0	1	4.95477318764	None	None	None	None	1
1.7	2015_Jul_20_1437	s	s	6	1	SIC	33	ABS	0	2	24RD	0	1	1.80389404297	None	None	None	None	1
1.7	2015_Jul_20_1437	s	s	6	1	SIC	34	ABS	0	1	24RO	0	1	6.39081811905	None	None	None	None	1
1.7	2015_Jul_20_1437	s	s	6	1	SIC	35	ABS	2	1	24VO	0	1	0.794870853424	None	None	None	None	1
1.7	2015_Jul_20_1437	s	s	6	1	SIC	36	RC	2	0	23VC	1	0	0.712515830994	283.0	228.0	284	224	1
1.7	2015_Jul_20_1437	s	s	6	1	SIC	37	ABS	1	2	24MD	0	1	2.11812710762	None	None	None	None	1
1.7	2015_Jul_20_1437	s	s	6	1	SIC	38	RC	1	1	23MO	0	1	4.92618989944	-64.0	196.0	None	None	0
1.7	2015_Jul_20_1437	s	s	6	1	SIC	39	RC	0	1	23RO	0	1	6.43379402161	184.0	35.0	None	None	0
1.7	2015_Jul_20_1437	s	s	6	1	SIC	40	RC	0	2	23RD	1	0	0.799844026566	138.0	256.0	149	257	1
1.7	2015_Jul_20_1437	s	s	6	1	SIC	41	RC	2	1	23VO	1	0	0.717730998993	-313.0	-305.0	-301	-296	1
1.7	2015_Jul_20_1437	s	s	6	1	SIC	42	ABS	1	0	24MC	1	0	1.52601909637	None	None	140	115	0
1.7	2015_Jul_20_1437	s	s	6	1	SIC	43	ABS	2	2	24VD	0	1	0.999844074249	None	None	None	None	1
1.7	2015_Jul_20_1437	s	s	6	1	SIC	44	RC	1	0	23MC	1	0	1.59517192841	314.0	-203.0	-170	41	0
1.7	2015_Jul_20_1437	s	s	6	1	SIC	45	ABS	2	0	24VC	0	1	0.587913990021	None	None	None	None	1
1.7	2015_Jul_20_1437	s	s	6	1	SIC	46	ABS	1	1	24MO	0	1	5.87842202187	None	None	None	None	1
1.7	2015_Jul_20_1437	s	s	6	1	SIC	47	RC	1	2	23MD	1	0	0.900671005249	-182.0	363.0	-182	365	1
1.7	2015_Jul_20_1437	s	s	6	1	SIC	48	RC	2	2	23VD	1	0	0.559296131134	-131.0	135.0	-134	138	1
1.7	2015_Jul_20_1437	s	s	6	1	SIC	49	ABS	2	2	24VD	0	1	0.529022216797	None	None	None	None	1
1.7	2015_Jul_20_1437	s	s	6	1	SIC	50	RC	1	2	23MD	1	0	1.66583585739	118.0	-335.0	119	-330	1
1.7	2015_Jul_20_1437	s	s	6	1	SIC	51	RC	2	1	23VO	1	0	0.458415031433	-176.0	9.0	-178	10	1
1.7	2015_Jul_20_1437	s	s	6	1	SIC	52	ABS	1	1	24MO	0	1	6.63806605339	None	None	None	None	1
1.7	2015_Jul_20_1437	s	s	6	1	SIC	53	ABS	2	1	24VO	0	1	1.12937998772	None	None	None	None	1
1.7	2015_Jul_20_1437	s	s	6	1	SIC	54	ABS	1	2	24MD	0	1	2.36529588699	None	None	None	None	1
1.7	2015_Jul_20_1437	s	s	6	1	SIC	55	RC	2	0	23VC	1	0	0.67031788826	-409.0	-394.0	-396	-388	1
1.7	2015_Jul_20_1437	s	s	6	1	SIC	56	RC	2	2	23VD	1	0	0.512382030487	264.0	36.0	261	40	1
1.7	2015_Jul_20_1437	s	s	6	1	SIC	57	ABS	0	2	24RD	0	1	2.0632379055	None	None	None	None	1
1.7	2015_Jul_20_1437	s	s	6	1	SIC	58	RC	1	1	23MO	1	0	5.26828408241	485.0	-337.0	485	-330	1
1.7	2015_Jul_20_1437	s	s	6	1	SIC	59	ABS	1	0	24MC	1	0	5.89647006989	None	None	-63	158	0
1.7	2015_Jul_20_1437	s	s	6	1	SIC	60	ABS	0	1	24RO	0	1	7.11536002159	None	None	None	None	1
1.7	2015_Jul_20_1437	s	s	6	1	SIC	61	RC	1	0	23MC	1	0	10.7659270763	-310.0	-169.0	232	47	0
1.7	2015_Jul_20_1437	s	s	6	1	SIC	62	ABS	2	0	24VC	0	1	1.18818902969	None	None	None	None	1
1.7	2015_Jul_20_1437	s	s	6	1	SIC	63	RC	0	2	23RD	1	0	1.12936902046	436.0	117.0	431	116	1
1.7	2015_Jul_20_1437	s	s	6	1	SIC	64	RC	0	1	23RO	1	0	1.88257098198	-13.0	-133.0	-15	-127	1
1.7	2015_Jul_20_1437	s	s	6	1	SIC	65	RC	2	1	23VO	1	0	0.747662067413	152.0	379.0	145	374	1
1.7	2015_Jul_20_1437	s	s	6	1	SIC	66	ABS	2	2	24VD	0	1	1.13825106621	None	None	None	None	1
1.7	2015_Jul_20_1437	s	s	6	1	SIC	67	RC	1	0	23MC	1	0	3.33738708496	38.0	-262.0	119	348	0
1.7	2015_Jul_20_1437	s	s	6	1	SIC	68	RC	0	1	23RO	0	1	6.90054488182	229.0	36.0	None	None	0
1.7	2015_Jul_20_1437	s	s	6	1	SIC	69	RC	1	1	23MO	0	1	5.93200707436	-380.0	-395.0	None	None	0
1.7	2015_Jul_20_1437	s	s	6	1	SIC	70	ABS	1	1	24MO	0	1	3.16564297676	None	None	None	None	1
1.7	2015_Jul_20_1437	s	s	6	1	SIC	71	ABS	0	2	24RD	0	1	1.99459004402	None	None	None	None	1
1.7	2015_Jul_20_1437	s	s	6	1	SIC	72	RC	2	2	23VD	1	0	0.652757883072	135.0	-190.0	141	-197	1
1.7	2015_Jul_20_1437	s	s	6	1	SIC	73	ABS	2	0	24VC	0	1	1.04699707031	None	None	None	None	1
1.7	2015_Jul_20_1437	s	s	6	1	SIC	74	ABS	2	1	24VO	0	1	0.764490127563	None	None	None	None	1
1.7	2015_Jul_20_1437	s	s	6	1	SIC	75	ABS	1	2	24MD	0	1	2.41917514801	None	None	None	None	1
1.7	2015_Jul_20_1437	s	s	6	1	SIC	76	RC	1	2	23MD	1	0	1.08971500397	344.0	-329.0	339	-334	1
1.7	2015_Jul_20_1437	s	s	6	1	SIC	77	RC	0	2	23RD	1	0	0.688750982285	-267.0	44.0	-273	46	1
1.7	2015_Jul_20_1437	s	s	6	1	SIC	78	RC	2	0	23VC	1	0	0.653506994247	489.0	25.0	485	17	1
1.7	2015_Jul_20_1437	s	s	6	1	SIC	79	ABS	1	0	24MC	1	0	1.51780200005	None	None	321	-27	0
1.7	2015_Jul_20_1437	s	s	6	1	SIC	80	ABS	0	1	24RO	0	1	6.97631692886	None	None	None	None	1
1.7	2015_Jul_20_1437	s	s	6	1	SIC	81	RC	1	2	23MD	1	0	0.564785003662	192.0	38.0	197	45	1
1.7	2015_Jul_20_1437	s	s	6	1	SIC	82	ABS	1	1	24MO	0	1	6.97437405586	None	None	None	None	1
1.7	2015_Jul_20_1437	s	s	6	1	SIC	83	RC	0	2	23RD	1	0	1.11204195023	531.0	-291.0	530	-293	1
1.7	2015_Jul_20_1437	s	s	6	1	SIC	84	RC	2	1	23VO	1	0	1.13847994804	-282.0	183.0	-284	176	1
1.7	2015_Jul_20_1437	s	s	6	1	SIC	85	ABS	2	2	24VD	0	1	0.950169086456	None	None	None	None	1
1.7	2015_Jul_20_1437	s	s	6	1	SIC	86	ABS	1	0	24MC	1	0	1.52959895134	None	None	-226	151	0
1.7	2015_Jul_20_1437	s	s	6	1	SIC	87	RC	1	1	23MO	1	0	7.12870788574	-236.0	-94.0	-230	-86	1
1.7	2015_Jul_20_1437	s	s	6	1	SIC	88	RC	2	2	23VD	1	0	0.662016868591	264.0	208.0	256	209	1
1.7	2015_Jul_20_1437	s	s	6	1	SIC	89	ABS	2	0	24VC	0	1	1.47723007202	None	None	None	None	1
1.7	2015_Jul_20_1437	s	s	6	1	SIC	90	RC	1	0	23MC	1	0	1.46568608284	23.0	38.0	21	30	1
1.7	2015_Jul_20_1437	s	s	6	1	SIC	91	ABS	0	2	24RD	0	1	2.4437930584	None	None	None	None	1
1.7	2015_Jul_20_1437	s	s	6	1	SIC	92	ABS	0	1	24RO	0	1	10.1281590462	None	None	None	None	1
1.7	2015_Jul_20_1437	s	s	6	1	SIC	93	ABS	2	1	24VO	0	1	0.89976811409	None	None	None	None	1
1.7	2015_Jul_20_1437	s	s	6	1	SIC	94	ABS	1	2	24MD	0	1	1.76530599594	None	None	None	None	1
1.7	2015_Jul_20_1437	s	s	6	1	SIC	95	RC	0	1	23RO	0	1	6.92044591904	198.0	-181.0	None	None	0
1.7	2015_Jul_20_1437	s	s	6	1	SIC	96	RC	2	0	23VC	1	0	1.01880097389	477.0	68.0	470	67	1
1.7	2015_Jul_20_1437	s	s	6	1	SIC	97	ABS	1	0	24MC	1	0	1.51224088669	None	None	-159	107	0
1.7	2015_Jul_20_1437	s	s	6	1	SIC	98	RC	0	1	23RO	1	0	8.14465308189	214.0	132.0	202	136	1
1.7	2015_Jul_20_1437	s	s	6	1	SIC	99	ABS	2	2	24VD	0	1	1.26538395882	None	None	None	None	1
1.7	2015_Jul_20_1437	s	s	6	1	SIC	100	RC	1	2	23MD	1	0	0.547600030899	-159.0	66.0	-161	59	1
1.7	2015_Jul_20_1437	s	s	6	1	SIC	101	RC	2	0	23VC	1	0	0.638602018356	-203.0	-352.0	-200	-343	1
1.7	2015_Jul_20_1437	s	s	6	1	SIC	102	RC	1	0	23MC	1	0	0.846793889999	267.0	-286.0	47	2	0
1.7	2015_Jul_20_1437	s	s	6	1	SIC	103	RC	2	1	23VO	1	0	0.585316896439	390.0	240.0	384	236	1
1.7	2015_Jul_20_1437	s	s	6	1	SIC	104	RC	2	2	23VD	1	0	0.823330879211	234.0	-236.0	232	-233	1
1.7	2015_Jul_20_1437	s	s	6	1	SIC	105	RC	0	2	23RD	1	0	0.476855993271	387.0	254.0	396	259	1
1.7	2015_Jul_20_1437	s	s	6	1	SIC	106	ABS	2	0	24VC	0	1	0.972716093063	None	None	None	None	1
1.7	2015_Jul_20_1437	s	s	6	1	SIC	107	ABS	2	1	24VO	0	1	1.06786894798	None	None	None	None	1
1.7	2015_Jul_20_1437	s	s	6	1	SIC	108	ABS	1	1	24MO	0	1	7.81012296677	None	None	None	None	1
1.7	2015_Jul_20_1437	s	s	6	1	SIC	109	RC	1	1	23MO	1	0	2.0709939003	-182.0	-299.0	-175	-295	1
1.7	2015_Jul_20_1437	s	s	6	1	SIC	110	ABS	0	1	24RO	0	1	7.43563103676	None	None	None	None	1
1.7	2015_Jul_20_1437	s	s	6	1	SIC	111	ABS	1	2	24MD	0	1	2.05917596817	None	None	None	None	1
1.7	2015_Jul_20_1437	s	s	6	1	SIC	112	ABS	0	2	24RD	0	1	1.89486289024	None	None	None	None	1
1.7	2015_Jul_20_1437	s	s	6	1	SIC	113	ABS	2	1	24VO	0	1	1.25926184654	None	None	None	None	1
1.7	2015_Jul_20_1437	s	s	6	1	SIC	114	ABS	2	2	24VD	0	1	0.605375051498	None	None	None	None	1
1.7	2015_Jul_20_1437	s	s	6	1	SIC	115	RC	0	1	23RO	1	0	3.95425891876	-316.0	76.0	-315	66	1
1.7	2015_Jul_20_1437	s	s	6	1	SIC	116	ABS	1	2	24MD	0	1	1.57665109634	None	None	None	None	1
1.7	2015_Jul_20_1437	s	s	6	1	SIC	117	ABS	1	1	24MO	0	1	6.97931194305	None	None	None	None	1
1.7	2015_Jul_20_1437	s	s	6	1	SIC	118	ABS	0	1	24RO	0	1	8.77768301964	None	None	None	None	1
1.7	2015_Jul_20_1437	s	s	6	1	SIC	119	RC	2	1	23VO	1	0	0.658499002457	102.0	-168.0	100	-168	1
1.7	2015_Jul_20_1437	s	s	6	1	SIC	120	RC	2	2	23VD	1	0	0.658379077911	477.0	-33.0	483	-32	1
1.7	2015_Jul_20_1437	s	s	6	1	SIC	121	RC	1	1	23MO	0	1	1.34120512009	-55.0	338.0	None	None	0
1.7	2015_Jul_20_1437	s	s	6	1	SIC	122	ABS	1	0	24MC	1	0	1.51262807846	None	None	-117	-68	0
1.7	2015_Jul_20_1437	s	s	6	1	SIC	123	RC	2	0	23VC	1	0	0.717177152634	232.0	92.0	238	100	1
1.7	2015_Jul_20_1437	s	s	6	1	SIC	124	ABS	2	0	24VC	0	1	0.858666181564	None	None	None	None	1
1.7	2015_Jul_20_1437	s	s	6	1	SIC	125	RC	1	2	23MD	1	0	1.57673597336	469.0	-310.0	470	-317	1
1.7	2015_Jul_20_1437	s	s	6	1	SIC	126	ABS	0	2	24RD	0	1	1.60010910034	None	None	None	None	1
1.7	2015_Jul_20_1437	s	s	6	1	SIC	127	RC	0	2	23RD	1	0	0.499955892563	166.0	-98.0	160	-100	1
1.7	2015_Jul_20_1437	s	s	6	1	SIC	128	RC	1	0	23MC	1	0	0.807789802551	381.0	-122.0	145	-26	0
1.7	2015_Jul_20_1437	s	s	6	1	SIC	129	RC	1	2	23MD	1	0	0.658527851105	353.0	338.0	349	339	1
1.7	2015_Jul_20_1437	s	s	6	1	SIC	130	ABS	1	1	24MO	0	1	5.8914411068	None	None	None	None	1
1.7	2015_Jul_20_1437	s	s	6	1	SIC	131	ABS	0	1	24RO	0	1	9.43940782547	None	None	None	None	1
1.7	2015_Jul_20_1437	s	s	6	1	SIC	132	ABS	2	0	24VC	0	1	1.00595593452	None	None	None	None	1
1.7	2015_Jul_20_1437	s	s	6	1	SIC	133	ABS	0	2	24RD	0	1	1.31753802299	None	None	None	None	1
1.7	2015_Jul_20_1437	s	s	6	1	SIC	134	RC	2	2	23VD	1	0	0.714646100998	267.0	357.0	265	357	1
1.7	2015_Jul_20_1437	s	s	6	1	SIC	135	ABS	2	1	24VO	0	1	0.682348012924	None	None	None	None	1
1.7	2015_Jul_20_1437	s	s	6	1	SIC	136	RC	0	1	23RO	0	1	6.45569801331	482.0	-395.0	None	None	0
1.7	2015_Jul_20_1437	s	s	6	1	SIC	137	RC	0	2	23RD	1	0	0.700612068176	-143.0	-106.0	-139	-106	1
1.7	2015_Jul_20_1437	s	s	6	1	SIC	138	ABS	1	0	24MC	1	0	1.49189591408	None	None	116	-131	0
1.7	2015_Jul_20_1437	s	s	6	1	SIC	139	RC	2	0	23VC	1	0	0.559550046921	437.0	-262.0	444	-258	1
1.7	2015_Jul_20_1437	s	s	6	1	SIC	140	ABS	2	2	24VD	0	1	0.905647993088	None	None	None	None	1
1.7	2015_Jul_20_1437	s	s	6	1	SIC	141	RC	1	0	23MC	1	0	1.2588570118	-354.0	-353.0	-45	117	0
1.7	2015_Jul_20_1437	s	s	6	1	SIC	142	RC	1	1	23MO	0	1	5.20198988914	-383.0	383.0	None	None	0
1.7	2015_Jul_20_1437	s	s	6	1	SIC	143	RC	2	1	23VO	1	0	0.537412881851	-16.0	179.0	-21	186	1
1.7	2015_Jul_20_1437	s	s	6	1	SIC	144	ABS	1	2	24MD	0	1	1.36475110054	None	None	None	None	1
1.7	2015_Jul_20_1437	s	s	6	1	SIC	145	RC	0	1	23RO	1	0	2.87131714821	-508.0	34.0	-511	39	1
1.7	2015_Jul_20_1437	s	s	6	1	SIC	146	RC	0	2	23RD	1	0	0.776212930679	182.0	344.0	189	350	1
1.7	2015_Jul_20_1437	s	s	6	1	SIC	147	RC	1	1	23MO	1	0	1.0152759552	-62.0	43.0	-65	42	1
1.7	2015_Jul_20_1437	s	s	6	1	SIC	148	ABS	1	0	24MC	1	0	0.94940495491	None	None	-207	22	0
1.7	2015_Jul_20_1437	s	s	6	1	SIC	149	RC	2	0	23VC	1	0	0.513528823853	294.0	165.0	299	166	1
1.7	2015_Jul_20_1437	s	s	6	1	SIC	150	ABS	2	2	24VD	0	1	0.641834020615	None	None	None	None	1
1.7	2015_Jul_20_1437	s	s	6	1	SIC	151	RC	1	0	23MC	1	0	1.31769299507	209.0	272.0	86	158	0
1.7	2015_Jul_20_1437	s	s	6	1	SIC	152	ABS	1	2	24MD	0	1	2.12982797623	None	None	None	None	1
1.7	2015_Jul_20_1437	s	s	6	1	SIC	153	ABS	0	1	24RO	0	1	5.95528793335	None	None	None	None	1
1.7	2015_Jul_20_1437	s	s	6	1	SIC	154	RC	1	2	23MD	1	0	0.682206869125	-170.0	-261.0	-175	-262	1
1.7	2015_Jul_20_1437	s	s	6	1	SIC	155	ABS	2	0	24VC	0	1	0.670305013657	None	None	None	None	1
1.7	2015_Jul_20_1437	s	s	6	1	SIC	156	RC	2	1	23VO	1	0	0.643441200256	-427.0	-180.0	-427	-183	1
1.7	2015_Jul_20_1437	s	s	6	1	SIC	157	RC	2	2	23VD	1	0	0.564735889435	-270.0	-116.0	-272	-120	1
1.7	2015_Jul_20_1437	s	s	6	1	SIC	158	ABS	2	1	24VO	0	1	0.937486171722	None	None	None	None	1
1.7	2015_Jul_20_1437	s	s	6	1	SIC	159	ABS	0	2	24RD	0	1	1.48947501183	None	None	None	None	1
1.7	2015_Jul_20_1437	s	s	6	1	SIC	160	ABS	1	1	24MO	0	1	6.59742498398	None	None	None	None	1
1.7	2015_Jul_20_1437	s	s	6	1	SIC	161	ABS	1	1	24MO	0	1	2.15962100029	None	None	None	None	1
1.7	2015_Jul_20_1437	s	s	6	1	SIC	162	RC	0	1	23RO	1	0	2.74864983559	503.0	18.0	495	15	1
1.7	2015_Jul_20_1437	s	s	6	1	SIC	163	RC	2	2	23VD	1	0	0.576171875	243.0	205.0	242	207	1
1.7	2015_Jul_20_1437	s	s	6	1	SIC	164	RC	1	1	23MO	1	0	0.972980976105	-98.0	-70.0	-94	-71	1
1.7	2015_Jul_20_1437	s	s	6	1	SIC	165	RC	1	0	23MC	1	0	3.35397696495	-216.0	107.0	-221	109	1
1.7	2015_Jul_20_1437	s	s	6	1	SIC	166	ABS	2	2	24VD	0	1	0.794112920761	None	None	None	None	1
1.7	2015_Jul_20_1437	s	s	6	1	SIC	167	RC	2	0	23VC	1	0	0.540822029114	-44.0	296.0	-37	304	1
1.7	2015_Jul_20_1437	s	s	6	1	SIC	168	ABS	1	0	24MC	1	0	1.39472198486	None	None	-314	-148	0
1.7	2015_Jul_20_1437	s	s	6	1	SIC	169	ABS	2	1	24VO	0	1	0.799791097641	None	None	None	None	1
1.7	2015_Jul_20_1437	s	s	6	1	SIC	170	ABS	2	0	24VC	0	1	0.782711029053	None	None	None	None	1
1.7	2015_Jul_20_1437	s	s	6	1	SIC	171	RC	1	2	23MD	1	0	0.688699007034	382.0	240.0	382	244	1
1.7	2015_Jul_20_1437	s	s	6	1	SIC	172	ABS	0	2	24RD	0	1	1.71272206306	None	None	None	None	1
1.7	2015_Jul_20_1437	s	s	6	1	SIC	173	ABS	0	1	24RO	0	1	6.33876800537	None	None	None	None	1
1.7	2015_Jul_20_1437	s	s	6	1	SIC	174	ABS	1	2	24MD	0	1	1.62372088432	None	None	None	None	1
1.7	2015_Jul_20_1437	s	s	6	1	SIC	175	RC	2	1	23VO	1	0	0.634989976883	-509.0	-16.0	-499	-13	1
1.7	2015_Jul_20_1437	s	s	6	1	SIC	176	RC	0	2	23RD	1	0	1.38819694519	316.0	-260.0	326	-260	1
1.7	2015_Jul_20_1437	s	s	6	1	SIC	177	ABS	0	1	24RO	0	1	7.20978188515	None	None	None	None	1
1.7	2015_Jul_20_1437	s	s	6	1	SIC	178	ABS	1	0	24MC	1	0	1.11761808395	None	None	-24	-21	0
1.7	2015_Jul_20_1437	s	s	6	1	SIC	179	ABS	0	2	24RD	0	1	1.4421620369	None	None	None	None	1
1.7	2015_Jul_20_1437	s	s	6	1	SIC	180	ABS	2	2	24VD	0	1	0.747577190399	None	None	None	None	1
1.7	2015_Jul_20_1437	s	s	6	1	SIC	181	RC	0	2	23RD	1	0	0.929280042648	530.0	151.0	536	148	1
1.7	2015_Jul_20_1437	s	s	6	1	SIC	182	ABS	1	2	24MD	0	1	2.12482190132	None	None	None	None	1
1.7	2015_Jul_20_1437	s	s	6	1	SIC	183	ABS	2	1	24VO	0	1	1.17112398148	None	None	None	None	1
1.7	2015_Jul_20_1437	s	s	6	1	SIC	184	ABS	2	0	24VC	0	1	0.690293073654	None	None	None	None	1
1.7	2015_Jul_20_1437	s	s	6	1	SIC	185	RC	2	0	23VC	1	0	0.923814058304	50.0	-290.0	50	-289	1
1.7	2015_Jul_20_1437	s	s	6	1	SIC	186	ABS	1	1	24MO	0	1	4.21322703362	None	None	None	None	1
1.7	2015_Jul_20_1437	s	s	6	1	SIC	187	RC	1	2	23MD	1	0	1.03525400162	-528.0	99.0	-524	98	1
1.7	2015_Jul_20_1437	s	s	6	1	SIC	188	RC	2	2	23VD	1	0	0.540780067444	-330.0	406.0	-332	406	1
1.7	2015_Jul_20_1437	s	s	6	1	SIC	189	RC	1	1	23MO	1	0	0.740882873535	-192.0	316.0	-190	319	1
1.7	2015_Jul_20_1437	s	s	6	1	SIC	190	RC	0	1	23RO	0	1	5.81068682671	-48.0	251.0	None	None	0
1.7	2015_Jul_20_1437	s	s	6	1	SIC	191	RC	1	0	23MC	1	0	0.842396974564	-169.0	158.0	10	6	0
1.7	2015_Jul_20_1437	s	s	6	1	SIC	192	RC	2	1	23VO	1	0	0.572746038437	51.0	-133.0	57	-131	1
1.7	2015_Jul_20_1437	s	s	6	1	SIC	193	RC	2	2	23VD	1	0	0.488440990448	-417.0	-349.0	-421	-350	1
1.7	2015_Jul_20_1437	s	s	6	1	SIC	194	ABS	2	2	24VD	0	1	0.717643022537	None	None	None	None	1
1.7	2015_Jul_20_1437	s	s	6	1	SIC	195	RC	2	0	23VC	1	0	0.452963829041	394.0	274.0	395	275	1
1.7	2015_Jul_20_1437	s	s	6	1	SIC	196	RC	0	2	23RD	1	0	0.559453964233	-279.0	-356.0	-284	-363	1
1.7	2015_Jul_20_1437	s	s	6	1	SIC	197	RC	0	1	23RO	1	0	6.00910496712	347.0	253.0	339	259	1
1.7	2015_Jul_20_1437	s	s	6	1	SIC	198	ABS	1	0	24MC	1	0	0.759440898895	None	None	172	52	0
1.7	2015_Jul_20_1437	s	s	6	1	SIC	199	ABS	1	1	24MO	0	1	1.25387716293	None	None	None	None	1
1.7	2015_Jul_20_1437	s	s	6	1	SIC	200	ABS	0	1	24RO	0	1	4.57306599617	None	None	None	None	1
1.7	2015_Jul_20_1437	s	s	6	1	SIC	201	RC	2	1	23VO	1	0	0.552574872971	-34.0	-9.0	-28	-7	1
1.7	2015_Jul_20_1437	s	s	6	1	SIC	202	RC	1	1	23MO	0	1	2.65950512886	-381.0	-406.0	None	None	0
1.7	2015_Jul_20_1437	s	s	6	1	SIC	203	ABS	2	0	24VC	0	1	0.776236057281	None	None	None	None	1
1.7	2015_Jul_20_1437	s	s	6	1	SIC	204	ABS	1	2	24MD	0	1	1.79743480682	None	None	None	None	1
1.7	2015_Jul_20_1437	s	s	6	1	SIC	205	ABS	2	1	24VO	0	1	0.912478923798	None	None	None	None	1
1.7	2015_Jul_20_1437	s	s	6	1	SIC	206	ABS	0	2	24RD	0	1	1.17645287514	None	None	None	None	1
1.7	2015_Jul_20_1437	s	s	6	1	SIC	207	RC	1	0	23MC	1	0	2.39245986938	250.0	219.0	-370	330	0
1.7	2015_Jul_20_1437	s	s	6	1	SIC	208	RC	1	2	23MD	1	0	0.52388215065	-160.0	-15.0	-156	-11	1
1.7	2015_Jul_20_1437	s	s	6	1	SIC	209	ABS	2	1	24VO	0	1	0.768084049225	None	None	None	None	1
1.7	2015_Jul_20_1437	s	s	6	1	SIC	210	ABS	2	0	24VC	0	1	0.570149898529	None	None	None	None	1
1.7	2015_Jul_20_1437	s	s	6	1	SIC	211	ABS	0	2	24RD	0	1	0.599690914154	None	None	None	None	1
1.7	2015_Jul_20_1437	s	s	6	1	SIC	212	ABS	1	1	24MO	0	1	0.740978956223	None	None	None	None	1
1.7	2015_Jul_20_1437	s	s	6	1	SIC	213	RC	2	1	23VO	1	0	0.882063150406	389.0	-69.0	401	-67	1
1.7	2015_Jul_20_1437	s	s	6	1	SIC	214	RC	2	0	23VC	1	0	0.795258045197	-69.0	-283.0	-71	-287	1
1.7	2015_Jul_20_1437	s	s	6	1	SIC	215	RC	2	2	23VD	1	0	0.584814071655	-145.0	404.0	-142	405	1
1.7	2015_Jul_20_1437	s	s	6	1	SIC	216	RC	1	1	23MO	0	1	1.02349710464	-212.0	-241.0	None	None	0
1.7	2015_Jul_20_1437	s	s	6	1	SIC	217	ABS	1	2	24MD	0	1	1.94146704674	None	None	None	None	1
1.7	2015_Jul_20_1437	s	s	6	1	SIC	218	ABS	1	0	24MC	1	0	1.44317293167	None	None	-101	160	0
1.7	2015_Jul_20_1437	s	s	6	1	SIC	219	RC	0	1	23RO	1	0	2.10258197784	-513.0	-47.0	-517	-45	1
1.7	2015_Jul_20_1437	s	s	6	1	SIC	220	ABS	2	2	24VD	0	1	0.818962097168	None	None	None	None	1
1.7	2015_Jul_20_1437	s	s	6	1	SIC	221	RC	0	2	23RD	1	0	0.811510801315	327.0	-266.0	327	-264	1
1.7	2015_Jul_20_1437	s	s	6	1	SIC	222	ABS	0	1	24RO	0	1	4.91950201988	None	None	None	None	1
1.7	2015_Jul_20_1437	s	s	6	1	SIC	223	RC	1	2	23MD	1	0	0.665240049362	-338.0	-349.0	-341	-346	1
1.7	2015_Jul_20_1437	s	s	6	1	SIC	224	RC	1	0	23MC	1	0	1.04684996605	-62.0	-278.0	-69	-274	1
1.7	2015_Jul_20_1437	s	s	6	1	SIC	225	RC	1	1	23MO	1	0	0.729172945023	-5.0	127.0	-1	126	1
1.7	2015_Jul_20_1437	s	s	6	1	SIC	226	ABS	0	1	24RO	0	1	6.44495916367	None	None	None	None	1
1.7	2015_Jul_20_1437	s	s	6	1	SIC	227	RC	1	2	23MD	1	0	0.529080152512	-6.0	41.0	-10	37	1
1.7	2015_Jul_20_1437	s	s	6	1	SIC	228	ABS	1	1	24MO	0	1	4.29029011726	None	None	None	None	1
1.7	2015_Jul_20_1437	s	s	6	1	SIC	229	RC	2	0	23VC	1	0	0.535973787308	6.0	54.0	2	49	1
1.7	2015_Jul_20_1437	s	s	6	1	SIC	230	ABS	2	0	24VC	0	1	0.642325162888	None	None	None	None	1
1.7	2015_Jul_20_1437	s	s	6	1	SIC	231	RC	0	1	23RO	1	0	2.80076694489	-311.0	-168.0	-311	-173	1
1.7	2015_Jul_20_1437	s	s	6	1	SIC	232	ABS	1	0	24MC	0	1	5.1497900486	None	None	None	None	1
1.7	2015_Jul_20_1437	s	s	6	1	SIC	233	ABS	2	1	24VO	0	1	0.712459802628	None	None	None	None	1
1.7	2015_Jul_20_1437	s	s	6	1	SIC	234	ABS	2	2	24VD	0	1	0.582093000412	None	None	None	None	1
1.7	2015_Jul_20_1437	s	s	6	1	SIC	235	RC	2	1	23VO	1	0	0.75946688652	249.0	-370.0	260	-366	1
1.7	2015_Jul_20_1437	s	s	6	1	SIC	236	RC	1	0	23MC	1	0	3.3775370121	-443.0	-299.0	-440	-297	1
1.7	2015_Jul_20_1437	s	s	6	1	SIC	237	RC	2	2	23VD	1	0	0.653589010239	7.0	-394.0	8	-395	1
1.7	2015_Jul_20_1437	s	s	6	1	SIC	238	ABS	1	2	24MD	0	1	0.891105890274	None	None	None	None	1
1.7	2015_Jul_20_1437	s	s	6	1	SIC	239	RC	0	2	23RD	1	0	0.540848970413	74.0	-130.0	81	-130	1
1.7	2015_Jul_20_1437	s	s	6	1	SIC	240	ABS	0	2	24RD	0	1	1.45333003998	None	None	None	None	1
1.7	2015_Jul_20_1437	s	s	6	1	SIC	241	RC	2	2	23VD	1	0	0.587838888168	451.0	-291.0	447	-288	1
1.7	2015_Jul_20_1437	s	s	6	1	SIC	242	ABS	2	1	24VO	0	1	0.65478181839	None	None	None	None	1
1.7	2015_Jul_20_1437	s	s	6	1	SIC	243	ABS	0	1	24RO	0	1	1.37654590607	None	None	None	None	1
1.7	2015_Jul_20_1437	s	s	6	1	SIC	244	RC	1	0	23MC	1	0	5.16311097145	272.0	-80.0	-547	-202	0
1.7	2015_Jul_20_1437	s	s	6	1	SIC	245	RC	1	2	23MD	1	0	0.747265100479	-133.0	-319.0	-132	-321	1
1.7	2015_Jul_20_1437	s	s	6	1	SIC	246	ABS	2	0	24VC	0	1	0.999856948853	None	None	None	None	1
1.7	2015_Jul_20_1437	s	s	6	1	SIC	247	RC	0	2	23RD	1	0	0.748766183853	-209.0	-234.0	-205	-232	1
1.7	2015_Jul_20_1437	s	s	6	1	SIC	248	ABS	1	2	24MD	0	1	1.24704098701	None	None	None	None	1
1.7	2015_Jul_20_1437	s	s	6	1	SIC	249	RC	2	1	23VO	1	0	0.540827035904	-154.0	-159.0	-149	-156	1
1.7	2015_Jul_20_1437	s	s	6	1	SIC	250	RC	0	1	23RO	0	1	3.48350596428	-518.0	313.0	None	None	0
1.7	2015_Jul_20_1437	s	s	6	1	SIC	251	ABS	1	0	24MC	1	0	1.29037499428	None	None	21	-6	0
1.7	2015_Jul_20_1437	s	s	6	1	SIC	252	ABS	1	1	24MO	0	1	3.93060493469	None	None	None	None	1
1.7	2015_Jul_20_1437	s	s	6	1	SIC	253	RC	1	1	23MO	1	0	1.38571596146	-317.0	-318.0	-322	-320	1
1.7	2015_Jul_20_1437	s	s	6	1	SIC	254	ABS	2	2	24VD	0	1	0.641412973404	None	None	None	None	1
1.7	2015_Jul_20_1437	s	s	6	1	SIC	255	ABS	0	2	24RD	0	1	1.21808719635	None	None	None	None	1
1.7	2015_Jul_20_1437	s	s	6	1	SIC	256	RC	2	0	23VC	1	0	0.925554990768	-446.0	-50.0	-441	-48	1
1.7	2015_Jul_20_1437	s	s	6	1	SIC	257	RC	2	0	23VC	1	0	0.793669939041	-423.0	324.0	-424	331	1
1.7	2015_Jul_20_1437	s	s	6	1	SIC	258	RC	2	1	23VO	1	0	0.505578041077	173.0	353.0	167	344	1
1.7	2015_Jul_20_1437	s	s	6	1	SIC	259	RC	1	2	23MD	1	0	0.608456850052	-438.0	-112.0	-438	-119	1
1.7	2015_Jul_20_1437	s	s	6	1	SIC	260	ABS	0	2	24RD	0	1	1.32442092896	None	None	None	None	1
1.7	2015_Jul_20_1437	s	s	6	1	SIC	261	ABS	1	2	24MD	0	1	1.96509885788	None	None	None	None	1
1.7	2015_Jul_20_1437	s	s	6	1	SIC	262	ABS	1	0	24MC	1	0	1.07732892036	None	None	-188	-62	0
1.7	2015_Jul_20_1437	s	s	6	1	SIC	263	RC	1	0	23MC	1	0	0.799794912338	-320.0	297.0	-146	4	0
1.7	2015_Jul_20_1437	s	s	6	1	SIC	264	RC	2	2	23VD	1	0	0.493762969971	-458.0	-197.0	-460	-195	1
1.7	2015_Jul_20_1437	s	s	6	1	SIC	265	ABS	0	1	24RO	1	0	3.02146196365	None	None	532	156	0
1.7	2015_Jul_20_1437	s	s	6	1	SIC	266	ABS	1	1	24MO	0	1	4.64867091179	None	None	None	None	1
1.7	2015_Jul_20_1437	s	s	6	1	SIC	267	RC	0	2	23RD	1	0	0.490699052811	50.0	-17.0	46	-18	1
1.7	2015_Jul_20_1437	s	s	6	1	SIC	268	ABS	2	0	24VC	0	1	1.47675299644	None	None	None	None	1
1.7	2015_Jul_20_1437	s	s	6	1	SIC	269	ABS	2	1	24VO	0	1	0.941040039062	None	None	None	None	1
1.7	2015_Jul_20_1437	s	s	6	1	SIC	270	ABS	2	2	24VD	0	1	0.47626209259	None	None	None	None	1
1.7	2015_Jul_20_1437	s	s	6	1	SIC	271	RC	0	1	23RO	1	0	5.17860293388	110.0	-120.0	109	-128	1
1.7	2015_Jul_20_1437	s	s	6	1	SIC	272	RC	1	1	23MO	1	0	2.40055394173	-90.0	134.0	-89	129	1
1.7	2015_Jul_20_1437	s	s	6	1	SIC	273	ABS	0	1	24RO	0	1	4.97831106186	None	None	None	None	1
1.7	2015_Jul_20_1437	s	s	6	1	SIC	274	RC	0	2	23RD	1	0	1.1764190197	-167.0	-379.0	-161	-379	1
1.7	2015_Jul_20_1437	s	s	6	1	SIC	275	RC	1	0	23MC	1	0	1.07664299011	181.0	199.0	183	197	1
1.7	2015_Jul_20_1437	s	s	6	1	SIC	276	RC	2	0	23VC	1	0	0.740920066833	164.0	-327.0	163	-331	1
1.7	2015_Jul_20_1437	s	s	6	1	SIC	277	ABS	2	2	24VD	0	1	0.677006959915	None	None	None	None	1
1.7	2015_Jul_20_1437	s	s	6	1	SIC	278	ABS	2	1	24VO	0	1	0.582818984985	None	None	None	None	1
1.7	2015_Jul_20_1437	s	s	6	1	SIC	279	ABS	2	0	24VC	0	1	0.682095050812	None	None	None	None	1
1.7	2015_Jul_20_1437	s	s	6	1	SIC	280	ABS	0	2	24RD	0	1	1.7130420208	None	None	None	None	1
1.7	2015_Jul_20_1437	s	s	6	1	SIC	281	ABS	1	2	24MD	0	1	1.15291690826	None	None	None	None	1
1.7	2015_Jul_20_1437	s	s	6	1	SIC	282	ABS	1	0	24MC	1	0	1.33631205559	None	None	-116	71	0
1.7	2015_Jul_20_1437	s	s	6	1	SIC	283	RC	2	1	23VO	1	0	0.587927103043	-491.0	46.0	-490	41	1
1.7	2015_Jul_20_1437	s	s	6	1	SIC	284	RC	0	1	23RO	0	1	3.97780990601	-91.0	-368.0	None	None	0
1.7	2015_Jul_20_1437	s	s	6	1	SIC	285	ABS	1	1	24MO	0	1	4.23681688309	None	None	None	None	1
1.7	2015_Jul_20_1437	s	s	6	1	SIC	286	RC	1	1	23MO	1	0	2.95381712914	376.0	181.0	378	175	1
1.7	2015_Jul_20_1437	s	s	6	1	SIC	287	RC	1	2	23MD	1	0	0.646761894226	-227.0	-247.0	-216	-245	1
1.7	2015_Jul_20_1437	s	s	6	1	SIC	288	RC	2	2	23VD	1	0	0.441670179367	208.0	352.0	207	350	1
1.7	2015_Jul_20_1437	s	s	6	1	SIC	289	RC	1	1	23MO	1	0	1.87996602058	400.0	-52.0	394	-53	1
1.7	2015_Jul_20_1437	s	s	6	1	SIC	290	ABS	2	2	24VD	0	1	1.03264713287	None	None	None	None	1
1.7	2015_Jul_20_1437	s	s	6	1	SIC	291	RC	0	1	23RO	0	1	4.96658587456	45.0	246.0	None	None	0
1.7	2015_Jul_20_1437	s	s	6	1	SIC	292	RC	0	2	23RD	1	0	0.650373935699	533.0	47.0	542	44	1
1.7	2015_Jul_20_1437	s	s	6	1	SIC	293	ABS	0	1	24RO	0	1	4.80804300308	None	None	None	None	1
1.7	2015_Jul_20_1437	s	s	6	1	SIC	294	RC	1	0	23MC	1	0	1.36199378967	-327.0	218.0	14	116	0
1.7	2015_Jul_20_1437	s	s	6	1	SIC	295	RC	1	2	23MD	1	0	0.634992837906	-252.0	-287.0	-256	-281	1
1.7	2015_Jul_20_1437	s	s	6	1	SIC	296	RC	2	0	23VC	1	0	0.505537986755	221.0	-192.0	220	-193	1
1.7	2015_Jul_20_1437	s	s	6	1	SIC	297	ABS	0	2	24RD	0	1	1.70095586777	None	None	None	None	1
1.7	2015_Jul_20_1437	s	s	6	1	SIC	298	ABS	2	0	24VC	0	1	1.81208491325	None	None	None	None	1
1.7	2015_Jul_20_1437	s	s	6	1	SIC	299	ABS	1	0	24MC	1	0	1.98582696915	None	None	-78	-152	0
1.7	2015_Jul_20_1437	s	s	6	1	SIC	300	RC	2	1	23VO	1	0	0.759392976761	426.0	46.0	426	48	1
1.7	2015_Jul_20_1437	s	s	6	1	SIC	301	ABS	1	2	24MD	0	1	2.02399301529	None	None	None	None	1
1.7	2015_Jul_20_1437	s	s	6	1	SIC	302	RC	2	2	23VD	1	0	0.979967832565	-326.0	-315.0	-338	-314	1
1.7	2015_Jul_20_1437	s	s	6	1	SIC	303	ABS	1	1	24MO	0	1	1.32943177223	None	None	None	None	1
1.7	2015_Jul_20_1437	s	s	6	1	SIC	304	ABS	2	1	24VO	0	1	0.670293807983	None	None	None	None	1
1.7	2015_Jul_20_1437	s	s	6	1	SIC	305	ABS	0	2	24RD	0	1	0.959279060364	None	None	None	None	1
1.7	2015_Jul_20_1437	s	s	6	1	SIC	306	RC	1	2	23MD	1	0	0.549088001251	248.0	284.0	255	286	1
1.7	2015_Jul_20_1437	s	s	6	1	SIC	307	ABS	1	1	24MO	0	1	4.55442404747	None	None	None	None	1
1.7	2015_Jul_20_1437	s	s	6	1	SIC	308	RC	1	1	23MO	1	0	1.63915610313	-310.0	-376.0	-312	-387	1
1.7	2015_Jul_20_1437	s	s	6	1	SIC	309	ABS	0	1	24RO	0	1	4.62018084526	None	None	None	None	1
1.7	2015_Jul_20_1437	s	s	6	1	SIC	310	ABS	2	1	24VO	0	1	0.693870067596	None	None	None	None	1
1.7	2015_Jul_20_1437	s	s	6	1	SIC	311	ABS	2	2	24VD	0	1	0.582792043686	None	None	None	None	1
1.7	2015_Jul_20_1437	s	s	6	1	SIC	312	RC	0	1	23RO	1	0	1.25886106491	374.0	149.0	382	150	1
1.7	2015_Jul_20_1437	s	s	6	1	SIC	313	ABS	2	0	24VC	0	1	0.597261190414	None	None	None	None	1
1.7	2015_Jul_20_1437	s	s	6	1	SIC	314	RC	1	0	23MC	1	0	0.80890083313	437.0	-92.0	223	-36	0
1.7	2015_Jul_20_1437	s	s	6	1	SIC	315	ABS	1	2	24MD	0	1	1.90047979355	None	None	None	None	1
1.7	2015_Jul_20_1437	s	s	6	1	SIC	316	RC	0	2	23RD	1	0	0.787987947464	421.0	356.0	419	359	1
1.7	2015_Jul_20_1437	s	s	6	1	SIC	317	ABS	1	0	24MC	1	0	0.759261131287	None	None	91	42	0
1.7	2015_Jul_20_1437	s	s	6	1	SIC	318	RC	2	1	23VO	1	0	0.752686023712	90.0	-151.0	91	-156	1
1.7	2015_Jul_20_1437	s	s	6	1	SIC	319	RC	2	2	23VD	1	0	0.446500062943	64.0	-64.0	72	-56	1
1.7	2015_Jul_20_1437	s	s	6	1	SIC	320	RC	2	0	23VC	1	0	0.58794093132	-54.0	-297.0	-54	-298	1
1.7	2015_Jul_20_1437	s	s	6	1	SIC	321	ABS	0	1	24RO	0	1	5.81121516228	None	None	None	None	1
1.7	2015_Jul_20_1437	s	s	6	1	SIC	322	ABS	1	2	24MD	0	1	1.29067516327	None	None	None	None	1
1.7	2015_Jul_20_1437	s	s	6	1	SIC	323	RC	0	2	23RD	1	0	0.570829868317	154.0	-101.0	164	-102	1
1.7	2015_Jul_20_1437	s	s	6	1	SIC	324	RC	0	1	23RO	1	0	1.06525802612	-92.0	197.0	154	152	0
1.7	2015_Jul_20_1437	s	s	6	1	SIC	325	RC	2	0	23VC	1	0	0.488618850708	-286.0	188.0	-282	193	1
1.7	2015_Jul_20_1437	s	s	6	1	SIC	326	ABS	1	1	24MO	0	1	1.1957321167	None	None	None	None	1
1.7	2015_Jul_20_1437	s	s	6	1	SIC	327	RC	2	1	23VO	1	0	0.594621181488	-61.0	-387.0	-50	-387	1
1.7	2015_Jul_20_1437	s	s	6	1	SIC	328	ABS	2	2	24VD	0	1	0.52570605278	None	None	None	None	1
1.7	2015_Jul_20_1437	s	s	6	1	SIC	329	RC	2	2	23VD	1	0	0.611319065094	-347.0	216.0	-341	212	1
1.7	2015_Jul_20_1437	s	s	6	1	SIC	330	RC	1	1	23MO	1	0	0.618309020996	-207.0	75.0	-204	69	1
1.7	2015_Jul_20_1437	s	s	6	1	SIC	331	ABS	1	0	24MC	1	0	3.04228806496	None	None	-41	120	0
1.7	2015_Jul_20_1437	s	s	6	1	SIC	332	ABS	2	0	24VC	0	1	0.685748100281	None	None	None	None	1
1.7	2015_Jul_20_1437	s	s	6	1	SIC	333	RC	1	2	23MD	1	0	0.505688905716	204.0	216.0	212	215	1
1.7	2015_Jul_20_1437	s	s	6	1	SIC	334	ABS	2	1	24VO	0	1	0.599628210068	None	None	None	None	1
1.7	2015_Jul_20_1437	s	s	6	1	SIC	335	RC	1	0	23MC	1	0	0.81768488884	510.0	-183.0	1	-31	0
1.7	2015_Jul_20_1437	s	s	6	1	SIC	336	ABS	0	2	24RD	0	1	1.83189821243	None	None	None	None	1
1.7	2015_Jul_20_1437	s	s	6	1	SIC	337	ABS	1	0	24MC	1	0	0.490305900574	None	None	63	2	0
1.7	2015_Jul_20_1437	s	s	6	1	SIC	338	RC	0	2	23RD	1	0	0.465239048004	236.0	-105.0	231	-105	1
1.7	2015_Jul_20_1437	s	s	6	1	SIC	339	RC	1	1	23MO	0	1	4.02483701706	71.0	220.0	None	None	0
1.7	2015_Jul_20_1437	s	s	6	1	SIC	340	RC	2	0	23VC	1	0	0.820532083511	291.0	252.0	294	255	1
1.7	2015_Jul_20_1437	s	s	6	1	SIC	341	RC	1	2	23MD	1	0	0.623229980469	-254.0	277.0	-258	275	1
1.7	2015_Jul_20_1437	s	s	6	1	SIC	342	RC	0	1	23RO	1	0	0.45353102684	-80.0	138.0	-74	137	1
1.7	2015_Jul_20_1437	s	s	6	1	SIC	343	ABS	0	2	24RD	0	1	1.48943901062	None	None	None	None	1
1.7	2015_Jul_20_1437	s	s	6	1	SIC	344	ABS	1	1	24MO	0	1	3.57760596275	None	None	None	None	1
1.7	2015_Jul_20_1437	s	s	6	1	SIC	345	RC	2	1	23VO	1	0	0.593657016754	-358.0	-379.0	-357	-375	1
1.7	2015_Jul_20_1437	s	s	6	1	SIC	346	ABS	0	1	24RO	0	1	4.55447793007	None	None	None	None	1
1.7	2015_Jul_20_1437	s	s	6	1	SIC	347	ABS	2	2	24VD	0	1	0.587903022766	None	None	None	None	1
1.7	2015_Jul_20_1437	s	s	6	1	SIC	348	ABS	1	2	24MD	0	1	0.76439499855	None	None	None	None	1
1.7	2015_Jul_20_1437	s	s	6	1	SIC	349	RC	1	0	23MC	1	0	1.5373468399	-469.0	32.0	-170	-115	0
1.7	2015_Jul_20_1437	s	s	6	1	SIC	350	ABS	2	0	24VC	0	1	0.59957408905	None	None	None	None	1
1.7	2015_Jul_20_1437	s	s	6	1	SIC	351	RC	2	2	23VD	1	0	0.658514976501	-505.0	-387.0	-500	-389	1
1.7	2015_Jul_20_1437	s	s	6	1	SIC	352	ABS	2	1	24VO	0	1	0.50547504425	None	None	None	None	1
1.7	2015_Jul_20_1437	s	s	6	1	SIC	353	RC	1	0	23MC	1	0	0.936137914658	-325.0	-40.0	315	-10	0
1.7	2015_Jul_20_1437	s	s	6	1	SIC	354	ABS	1	2	24MD	0	1	1.023416996	None	None	None	None	1
1.7	2015_Jul_20_1437	s	s	6	1	SIC	355	ABS	2	2	24VD	0	1	0.52448797226	None	None	None	None	1
1.7	2015_Jul_20_1437	s	s	6	1	SIC	356	ABS	0	2	24RD	0	1	1.85522699356	None	None	None	None	1
1.7	2015_Jul_20_1437	s	s	6	1	SIC	357	RC	1	2	23MD	1	0	0.740904092789	-178.0	95.0	-186	97	1
1.7	2015_Jul_20_1437	s	s	6	1	SIC	358	RC	0	2	23RD	1	0	0.547607898712	162.0	-145.0	158	-140	1
1.7	2015_Jul_20_1437	s	s	6	1	SIC	359	RC	1	1	23MO	0	1	1.65897989273	57.0	363.0	None	None	0
1.7	2015_Jul_20_1437	s	s	6	1	SIC	360	RC	2	1	23VO	1	0	0.529117107391	78.0	-355.0	79	-351	1
1.7	2015_Jul_20_1437	s	s	6	1	SIC	361	ABS	1	1	24MO	0	1	2.79715108871	None	None	None	None	1
1.7	2015_Jul_20_1437	s	s	6	1	SIC	362	ABS	2	0	24VC	0	1	0.740936994553	None	None	None	None	1
1.7	2015_Jul_20_1437	s	s	6	1	SIC	363	ABS	2	1	24VO	0	1	0.594815969467	None	None	None	None	1
1.7	2015_Jul_20_1437	s	s	6	1	SIC	364	ABS	0	1	24RO	0	1	5.782351017	None	None	None	None	1
1.7	2015_Jul_20_1437	s	s	6	1	SIC	365	RC	0	1	23RO	0	1	0.865235090256	-317.0	-269.0	None	None	0
1.7	2015_Jul_20_1437	s	s	6	1	SIC	366	RC	2	0	23VC	1	0	0.458399057388	-72.0	-377.0	-69	-384	1
1.7	2015_Jul_20_1437	s	s	6	1	SIC	367	ABS	1	0	24MC	1	0	0.855260848999	None	None	155	-6	0
1.7	2015_Jul_20_1437	s	s	6	1	SIC	368	RC	2	2	23VD	1	0	0.572309017181	438.0	-406.0	438	-407	1
1.7	2015_Jul_20_1437	s	s	6	1	SIC	369	ABS	1	1	24MO	0	1	1.67741322517	None	None	None	None	1
1.7	2015_Jul_20_1437	s	s	6	1	SIC	370	RC	2	1	23VO	1	0	0.606606006622	300.0	-40.0	299	-36	1
1.7	2015_Jul_20_1437	s	s	6	1	SIC	371	ABS	2	1	24VO	0	1	0.615081071854	None	None	None	None	1
1.7	2015_Jul_20_1437	s	s	6	1	SIC	372	ABS	2	0	24VC	0	1	0.540874004364	None	None	None	None	1
1.7	2015_Jul_20_1437	s	s	6	1	SIC	373	RC	2	2	23VD	1	0	0.741027116776	-516.0	286.0	-515	278	1
1.7	2015_Jul_20_1437	s	s	6	1	SIC	374	RC	1	0	23MC	1	0	0.935914039612	-83.0	288.0	156	-38	0
1.7	2015_Jul_20_1437	s	s	6	1	SIC	375	RC	1	1	23MO	1	0	0.729114055634	-125.0	-91.0	-127	-89	1
1.7	2015_Jul_20_1437	s	s	6	1	SIC	376	ABS	1	0	24MC	0	1	4.02494716644	None	None	None	None	1
1.7	2015_Jul_20_1437	s	s	6	1	SIC	377	RC	1	2	23MD	1	0	0.458359003067	154.0	43.0	160	41	1
1.7	2015_Jul_20_1437	s	s	6	1	SIC	378	ABS	1	2	24MD	0	1	1.63548588753	None	None	None	None	1
1.7	2015_Jul_20_1437	s	s	6	1	SIC	379	RC	0	1	23RO	0	1	5.39681601524	346.0	-218.0	None	None	0
1.7	2015_Jul_20_1437	s	s	6	1	SIC	380	RC	0	2	23RD	1	0	0.664546966553	364.0	266.0	361	268	1
1.7	2015_Jul_20_1437	s	s	6	1	SIC	381	RC	2	0	23VC	1	0	0.605781078339	-534.0	160.0	-532	154	1
1.7	2015_Jul_20_1437	s	s	6	1	SIC	382	ABS	0	2	24RD	0	1	0.688685178757	None	None	None	None	1
1.7	2015_Jul_20_1437	s	s	6	1	SIC	383	ABS	2	2	24VD	0	1	0.429699897766	None	None	None	None	1
1.7	2015_Jul_20_1437	s	s	6	1	SIC	384	ABS	0	1	24RO	0	1	3.19605302811	None	None	None	None	1
1.7	2015_Jul_20_1437	s	s	6	1	SIC	385	RC	0	1	23RO	0	1	1.33612704277	-3.0	-359.0	None	None	0
1.7	2015_Jul_20_1437	s	s	6	1	SIC	386	ABS	2	2	24VD	0	1	0.517257213593	None	None	None	None	1
1.7	2015_Jul_20_1437	s	s	6	1	SIC	387	RC	2	0	23VC	1	0	1.02954792976	523.0	-159.0	521	-155	1
1.7	2015_Jul_20_1437	s	s	6	1	SIC	388	RC	1	1	23MO	1	0	0.818266868591	-73.0	-171.0	-73	-166	1
1.7	2015_Jul_20_1437	s	s	6	1	SIC	389	ABS	2	1	24VO	0	1	0.811460018158	None	None	None	None	1
1.7	2015_Jul_20_1437	s	s	6	1	SIC	390	ABS	1	1	24MO	0	1	5.57336401939	None	None	None	None	1
1.7	2015_Jul_20_1437	s	s	6	1	SIC	391	ABS	1	0	24MC	1	0	1.9532520771	None	None	202	-401	0
1.7	2015_Jul_20_1437	s	s	6	1	SIC	392	ABS	1	2	24MD	0	1	2.00895595551	None	None	None	None	1
1.7	2015_Jul_20_1437	s	s	6	1	SIC	393	RC	2	1	23VO	1	0	0.632256984711	-459.0	-326.0	-464	-323	1
1.7	2015_Jul_20_1437	s	s	6	1	SIC	394	RC	1	0	23MC	1	0	1.95336699486	-212.0	-26.0	-139	-175	0
1.7	2015_Jul_20_1437	s	s	6	1	SIC	395	ABS	0	1	24RO	0	1	4.22506284714	None	None	None	None	1
1.7	2015_Jul_20_1437	s	s	6	1	SIC	396	RC	0	2	23RD	1	0	1.1590821743	-455.0	-6.0	-458	-1	1
1.7	2015_Jul_20_1437	s	s	6	1	SIC	397	RC	1	2	23MD	1	0	0.717362880707	316.0	247.0	314	245	1
1.7	2015_Jul_20_1437	s	s	6	1	SIC	398	ABS	2	0	24VC	1	0	0.629863977432	None	None	64	14	0
1.7	2015_Jul_20_1437	s	s	6	1	SIC	399	ABS	0	2	24RD	0	1	1.37653899193	None	None	None	None	1
1.7	2015_Jul_20_1437	s	s	6	1	SIC	400	RC	2	2	23VD	1	0	0.811554908752	371.0	-101.0	365	-104	1
1.7	2015_Jul_20_1437	s	s	6	1	SIC	401	ABS	1	2	24MD	0	1	1.07051897049	None	None	None	None	1
1.7	2015_Jul_20_1437	s	s	6	1	SIC	402	ABS	0	2	24RD	0	1	0.976449966431	None	None	None	None	1
1.7	2015_Jul_20_1437	s	s	6	1	SIC	403	RC	2	2	23VD	1	0	0.535750150681	125.0	-10.0	121	-14	1
1.7	2015_Jul_20_1437	s	s	6	1	SIC	404	ABS	2	2	24VD	0	1	0.611405849457	None	None	None	None	1
1.7	2015_Jul_20_1437	s	s	6	1	SIC	405	ABS	1	1	24MO	0	1	4.12513780594	None	None	None	None	1
1.7	2015_Jul_20_1437	s	s	6	1	SIC	406	ABS	1	0	24MC	1	0	3.16064596176	None	None	25	192	0
1.7	2015_Jul_20_1437	s	s	6	1	SIC	407	ABS	2	1	24VO	0	1	0.64191699028	None	None	None	None	1
1.7	2015_Jul_20_1437	s	s	6	1	SIC	408	RC	2	0	23VC	1	0	0.571001052856	354.0	297.0	358	303	1
1.7	2015_Jul_20_1437	s	s	6	1	SIC	409	RC	0	2	23RD	1	0	0.623214960098	-273.0	-90.0	-271	-96	1
1.7	2015_Jul_20_1437	s	s	6	1	SIC	410	RC	2	1	23VO	1	0	0.653536081314	-269.0	-7.0	-272	-7	1
1.7	2015_Jul_20_1437	s	s	6	1	SIC	411	ABS	2	0	24VC	0	1	0.587908029556	None	None	None	None	1
1.7	2015_Jul_20_1437	s	s	6	1	SIC	412	RC	1	1	23MO	0	1	1.03520989418	-182.0	147.0	None	None	0
1.7	2015_Jul_20_1437	s	s	6	1	SIC	413	RC	1	2	23MD	1	0	0.535868883133	3.0	146.0	-3	145	1
1.7	2015_Jul_20_1437	s	s	6	1	SIC	414	RC	0	1	23RO	1	0	1.07054805756	-72.0	115.0	-76	111	1
1.7	2015_Jul_20_1437	s	s	6	1	SIC	415	RC	1	0	23MC	1	0	1.46564006805	167.0	64.0	165	67	1
1.7	2015_Jul_20_1437	s	s	6	1	SIC	416	ABS	0	1	24RO	0	1	4.8568379879	None	None	None	None	1
1.7	2015_Jul_20_1437	s	s	6	1	SIC	417	ABS	1	2	24MD	0	1	0.787975072861	None	None	None	None	1
1.7	2015_Jul_20_1437	s	s	6	1	SIC	418	RC	0	2	23RD	1	0	0.634969949722	-113.0	-13.0	-105	-13	1
1.7	2015_Jul_20_1437	s	s	6	1	SIC	419	RC	1	1	23MO	1	0	0.658439874649	116.0	98.0	119	105	1
1.7	2015_Jul_20_1437	s	s	6	1	SIC	420	ABS	0	1	24RO	0	1	4.97824788094	None	None	None	None	1
1.7	2015_Jul_20_1437	s	s	6	1	SIC	421	RC	2	2	23VD	1	0	0.747753858566	-433.0	298.0	-431	288	1
1.7	2015_Jul_20_1437	s	s	6	1	SIC	422	ABS	1	0	24MC	1	0	1.32445120811	None	None	-66	-23	0
1.7	2015_Jul_20_1437	s	s	6	1	SIC	423	ABS	0	2	24RD	0	1	1.08578395844	None	None	None	None	1
1.7	2015_Jul_20_1437	s	s	6	1	SIC	424	ABS	2	1	24VO	0	1	0.737488985062	None	None	None	None	1
1.7	2015_Jul_20_1437	s	s	6	1	SIC	425	ABS	2	0	24VC	0	1	0.631475925446	None	None	None	None	1
1.7	2015_Jul_20_1437	s	s	6	1	SIC	426	RC	0	1	23RO	0	1	4.74284505844	3.0	55.0	None	None	0
1.7	2015_Jul_20_1437	s	s	6	1	SIC	427	RC	1	2	23MD	1	0	0.585336208344	170.0	161.0	162	162	1
1.7	2015_Jul_20_1437	s	s	6	1	SIC	428	ABS	1	1	24MO	0	1	0.864530086517	None	None	None	None	1
1.7	2015_Jul_20_1437	s	s	6	1	SIC	429	RC	2	1	23VO	1	0	0.936032056808	-409.0	399.0	-416	407	1
1.7	2015_Jul_20_1437	s	s	6	1	SIC	430	RC	2	0	23VC	1	0	0.658456087112	-48.0	327.0	-48	331	1
1.7	2015_Jul_20_1437	s	s	6	1	SIC	431	RC	1	0	23MC	1	0	0.618722915649	340.0	223.0	10	66	0
1.7	2015_Jul_20_1437	s	s	6	1	SIC	432	ABS	2	2	24VD	0	1	0.630910158157	None	None	None	None	1
1.7	2015_Jul_20_1437	s	s	6	1	SIC	433	ABS	1	2	24MD	0	1	1.31272101402	None	None	None	None	1
1.7	2015_Jul_20_1437	s	s	6	1	SIC	434	RC	1	0	23MC	1	0	1.23529911041	-2.0	304.0	269	69	0
1.7	2015_Jul_20_1437	s	s	6	1	SIC	435	ABS	1	0	24MC	1	0	0.830608844757	None	None	-16	10	0
1.7	2015_Jul_20_1437	s	s	6	1	SIC	436	RC	1	1	23MO	1	0	2.48290514946	198.0	171.0	205	180	1
1.7	2015_Jul_20_1437	s	s	6	1	SIC	437	RC	2	2	23VD	1	0	0.465152978897	115.0	-15.0	124	-19	1
1.7	2015_Jul_20_1437	s	s	6	1	SIC	438	ABS	1	1	24MO	1	0	3.20801496506	None	None	-71	-62	0
1.7	2015_Jul_20_1437	s	s	6	1	SIC	439	ABS	0	1	24RO	0	1	5.04638910294	None	None	None	None	1
1.7	2015_Jul_20_1437	s	s	6	1	SIC	440	ABS	2	1	24VO	0	1	0.593384981155	None	None	None	None	1
1.7	2015_Jul_20_1437	s	s	6	1	SIC	441	RC	0	1	23RO	1	0	0.738152980804	126.0	-308.0	-455	395	0
1.7	2015_Jul_20_1437	s	s	6	1	SIC	442	ABS	0	2	24RD	0	1	1.12419199944	None	None	None	None	1
1.7	2015_Jul_20_1437	s	s	6	1	SIC	443	RC	2	1	23VO	1	0	0.579756975174	265.0	-95.0	256	-98	1
1.7	2015_Jul_20_1437	s	s	6	1	SIC	444	RC	0	2	23RD	1	0	0.564404010773	-452.0	-88.0	-459	-88	1
1.7	2015_Jul_20_1437	s	s	6	1	SIC	445	ABS	2	0	24VC	0	1	0.631629943848	None	None	None	None	1
1.7	2015_Jul_20_1437	s	s	6	1	SIC	446	RC	2	0	23VC	1	0	0.552573919296	61.0	-259.0	61	-259	1
1.7	2015_Jul_20_1437	s	s	6	1	SIC	447	ABS	2	2	24VD	0	1	0.571085214615	None	None	None	None	1
1.7	2015_Jul_20_1437	s	s	6	1	SIC	448	RC	1	2	23MD	1	0	0.418037176132	-28.0	200.0	-37	197	1
1.7	2015_Jul_20_1437	s	s	6	1	SIC	449	RC	1	2	23MD	1	0	0.761721849442	12.0	404.0	13	403	1
1.7	2015_Jul_20_1437	s	s	6	1	SIC	450	ABS	0	2	24RD	0	1	0.772282123566	None	None	None	None	1
1.7	2015_Jul_20_1437	s	s	6	1	SIC	451	RC	1	1	23MO	0	1	1.39498901367	-355.0	364.0	None	None	0
1.7	2015_Jul_20_1437	s	s	6	1	SIC	452	RC	2	0	23VC	1	0	0.59959602356	-531.0	-198.0	-532	-200	1
1.7	2015_Jul_20_1437	s	s	6	1	SIC	453	ABS	0	1	24RO	0	1	5.91735816002	None	None	None	None	1
1.7	2015_Jul_20_1437	s	s	6	1	SIC	454	RC	0	2	23RD	1	0	0.752674102783	253.0	-178.0	249	-177	1
1.7	2015_Jul_20_1437	s	s	6	1	SIC	455	RC	2	2	23VD	1	0	0.446640968323	49.0	206.0	56	212	1
1.7	2015_Jul_20_1437	s	s	6	1	SIC	456	RC	2	1	23VO	1	0	0.440394878387	-344.0	-62.0	-342	-55	1
1.7	2015_Jul_20_1437	s	s	6	1	SIC	457	ABS	1	2	24MD	0	1	1.23015117645	None	None	None	None	1
1.7	2015_Jul_20_1437	s	s	6	1	SIC	458	RC	1	0	23MC	1	0	2.24756979942	505.0	64.0	136	-64	0
1.7	2015_Jul_20_1437	s	s	6	1	SIC	459	RC	0	1	23RO	1	0	1.47074484825	215.0	-178.0	217	-183	1
1.7	2015_Jul_20_1437	s	s	6	1	SIC	460	ABS	2	0	24VC	0	1	0.717386960983	None	None	None	None	1
1.7	2015_Jul_20_1437	s	s	6	1	SIC	461	ABS	2	2	24VD	0	1	0.728975057602	None	None	None	None	1
1.7	2015_Jul_20_1437	s	s	6	1	SIC	462	ABS	1	1	24MO	0	1	6.09652900696	None	None	None	None	1
1.7	2015_Jul_20_1437	s	s	6	1	SIC	463	ABS	1	0	24MC	1	0	1.49426102638	None	None	-413	-92	0
1.7	2015_Jul_20_1437	s	s	6	1	SIC	464	ABS	2	1	24VO	0	1	0.670217037201	None	None	None	None	1
1.7	2015_Jul_20_1437	s	s	6	1	SIC	465	RC	1	2	23MD	1	0	0.75952911377	252.0	315.0	252	319	1
1.7	2015_Jul_20_1437	s	s	6	1	SIC	466	ABS	1	1	24MO	0	1	3.58938002586	None	None	None	None	1
1.7	2015_Jul_20_1437	s	s	6	1	SIC	467	RC	0	2	23RD	1	0	1.0233631134	537.0	-200.0	526	-196	1
1.7	2015_Jul_20_1437	s	s	6	1	SIC	468	ABS	2	2	24VD	0	1	0.587872028351	None	None	None	None	1
1.7	2015_Jul_20_1437	s	s	6	1	SIC	469	ABS	1	0	24MC	1	0	0.540843009949	None	None	216	6	0
1.7	2015_Jul_20_1437	s	s	6	1	SIC	470	ABS	2	0	24VC	0	1	0.700580120087	None	None	None	None	1
1.7	2015_Jul_20_1437	s	s	6	1	SIC	471	RC	1	1	23MO	1	0	0.999893188477	85.0	-398.0	94	-400	1
1.7	2015_Jul_20_1437	s	s	6	1	SIC	472	RC	2	0	23VC	1	0	0.477415084839	-78.0	-226.0	-76	-220	1
1.7	2015_Jul_20_1437	s	s	6	1	SIC	473	ABS	0	2	24RD	0	1	1.02335619926	None	None	None	None	1
1.7	2015_Jul_20_1437	s	s	6	1	SIC	474	RC	1	0	23MC	1	0	1.2301928997	-143.0	-50.0	-139	-50	1
1.7	2015_Jul_20_1437	s	s	6	1	SIC	475	ABS	1	2	24MD	0	1	1.40686893463	None	None	None	None	1
1.7	2015_Jul_20_1437	s	s	6	1	SIC	476	RC	2	2	23VD	1	0	0.488845825195	70.0	134.0	65	132	1
1.7	2015_Jul_20_1437	s	s	6	1	SIC	477	ABS	2	1	24VO	0	1	0.547607898712	None	None	None	None	1
1.7	2015_Jul_20_1437	s	s	6	1	SIC	478	RC	0	1	23RO	1	0	0.679290056229	148.0	1.0	153	10	1
1.7	2015_Jul_20_1437	s	s	6	1	SIC	479	RC	2	1	23VO	1	0	0.511986970901	-235.0	-302.0	-226	-299	1
1.7	2015_Jul_20_1437	s	s	6	1	SIC	480	ABS	0	1	24RO	0	1	5.2556040287	None	None	None	None	1
1.7	2015_Jul_20_1437	s	s	6	1	SIC	481	ABS	1	2	24MD	0	1	0.745970010757	None	None	None	None	1
1.7	2015_Jul_20_1437	s	s	6	1	SIC	482	ABS	2	2	24VD	0	1	0.55255317688	None	None	None	None	1
1.7	2015_Jul_20_1437	s	s	6	1	SIC	483	RC	1	1	23MO	1	0	0.587962865829	-194.0	-390.0	115	-65	0
1.7	2015_Jul_20_1437	s	s	6	1	SIC	484	RC	0	1	23RO	0	1	4.06725311279	168.0	102.0	None	None	0
1.7	2015_Jul_20_1437	s	s	6	1	SIC	485	RC	2	0	23VC	1	0	0.493803977966	-258.0	-372.0	-269	-372	1
1.7	2015_Jul_20_1437	s	s	6	1	SIC	486	RC	0	2	23RD	1	0	0.667135000229	-433.0	-363.0	-435	-364	1
1.7	2015_Jul_20_1437	s	s	6	1	SIC	487	RC	1	2	23MD	1	0	0.77619600296	-170.0	392.0	-173	388	1
1.7	2015_Jul_20_1437	s	s	6	1	SIC	488	RC	2	1	23VO	1	0	0.44295501709	-47.0	-8.0	-48	-3	1
1.7	2015_Jul_20_1437	s	s	6	1	SIC	489	RC	2	2	23VD	1	0	0.399533987045	-132.0	44.0	-143	44	1
1.7	2015_Jul_20_1437	s	s	6	1	SIC	490	ABS	2	1	24VO	0	1	0.764590978622	None	None	None	None	1
1.7	2015_Jul_20_1437	s	s	6	1	SIC	491	ABS	1	0	24MC	0	1	0.988049983978	None	None	None	None	1
1.7	2015_Jul_20_1437	s	s	6	1	SIC	492	ABS	1	1	24MO	0	1	4.0012819767	None	None	None	None	1
1.7	2015_Jul_20_1437	s	s	6	1	SIC	493	ABS	0	2	24RD	0	1	0.905697822571	None	None	None	None	1
1.7	2015_Jul_20_1437	s	s	6	1	SIC	494	RC	1	0	23MC	1	0	1.16128087044	244.0	-139.0	255	-135	1
1.7	2015_Jul_20_1437	s	s	6	1	SIC	495	ABS	2	0	24VC	0	1	0.773508071899	None	None	None	None	1
1.7	2015_Jul_20_1437	s	s	6	1	SIC	496	ABS	0	1	24RO	0	1	3.81671500206	None	None	None	None	1
1.7	2015_Jul_20_1437	s	s	6	1	SIC	497	ABS	2	0	24VC	0	1	0.570981025696	None	None	None	None	1
1.7	2015_Jul_20_1437	s	s	6	1	SIC	498	RC	2	0	23VC	1	0	0.529093027115	-274.0	-58.0	-282	-58	1
1.7	2015_Jul_20_1437	s	s	6	1	SIC	499	ABS	0	2	24RD	0	1	0.823329925537	None	None	None	None	1
1.7	2015_Jul_20_1437	s	s	6	1	SIC	500	ABS	0	1	24RO	0	1	0.902591943741	None	None	None	None	1
1.7	2015_Jul_20_1437	s	s	6	1	SIC	501	ABS	1	1	24MO	0	1	0.853591918945	None	None	None	None	1
1.7	2015_Jul_20_1437	s	s	6	1	SIC	502	RC	1	1	23MO	1	0	4.67906594276	301.0	327.0	299	330	1
1.7	2015_Jul_20_1437	s	s	6	1	SIC	503	RC	1	0	23MC	1	0	0.688848018646	-478.0	404.0	29	-12	0
1.7	2015_Jul_20_1437	s	s	6	1	SIC	504	RC	1	2	23MD	1	0	0.529021978378	-234.0	-201.0	-232	-193	1
1.7	2015_Jul_20_1437	s	s	6	1	SIC	505	RC	0	2	23RD	1	0	0.618182182312	376.0	-159.0	370	-154	1
1.7	2015_Jul_20_1437	s	s	6	1	SIC	506	ABS	1	2	24MD	0	1	0.999874830246	None	None	None	None	1
1.7	2015_Jul_20_1437	s	s	6	1	SIC	507	ABS	2	1	24VO	0	1	0.540801048279	None	None	None	None	1
1.7	2015_Jul_20_1437	s	s	6	1	SIC	508	ABS	1	0	24MC	1	0	1.54134106636	None	None	188	-22	0
1.7	2015_Jul_20_1437	s	s	6	1	SIC	509	ABS	2	2	24VD	0	1	0.477364063263	None	None	None	None	1
1.7	2015_Jul_20_1437	s	s	6	1	SIC	510	RC	2	1	23VO	1	0	0.791617870331	-349.0	7.0	-347	5	1
1.7	2015_Jul_20_1437	s	s	6	1	SIC	511	RC	0	1	23RO	0	1	3.89574313164	-318.0	-375.0	None	None	0
1.7	2015_Jul_20_1437	s	s	6	1	SIC	512	RC	2	2	23VD	1	0	0.90013384819	418.0	-400.0	414	-407	1
1.7	2015_Jul_20_1437	s	s	6	1	SIC	513	ABS	0	2	24RD	0	1	0.823291063309	None	None	None	None	1
1.7	2015_Jul_20_1437	s	s	6	1	SIC	514	RC	1	0	23MC	1	0	0.717358112335	232.0	-77.0	5	-26	0
1.7	2015_Jul_20_1437	s	s	6	1	SIC	515	ABS	1	0	24MC	1	0	1.17382907867	None	None	48	-112	0
1.7	2015_Jul_20_1437	s	s	6	1	SIC	516	ABS	1	2	24MD	0	1	1.16196918488	None	None	None	None	1
1.7	2015_Jul_20_1437	s	s	6	1	SIC	517	ABS	1	1	24MO	0	1	1.20745706558	None	None	None	None	1
1.7	2015_Jul_20_1437	s	s	6	1	SIC	518	ABS	2	1	24VO	0	1	0.540812969208	None	None	None	None	1
1.7	2015_Jul_20_1437	s	s	6	1	SIC	519	ABS	2	0	24VC	0	1	0.529031038284	None	None	None	None	1
1.7	2015_Jul_20_1437	s	s	6	1	SIC	520	RC	1	1	23MO	1	0	1.74133682251	-303.0	-32.0	-300	-28	1
1.7	2015_Jul_20_1437	s	s	6	1	SIC	521	RC	0	1	23RO	0	1	3.54936313629	-83.0	162.0	None	None	0
1.7	2015_Jul_20_1437	s	s	6	1	SIC	522	RC	1	2	23MD	1	0	1.09398198128	317.0	-409.0	315	-413	1
1.7	2015_Jul_20_1437	s	s	6	1	SIC	523	RC	2	2	23VD	1	0	0.478593111038	-277.0	29.0	-273	35	1
1.7	2015_Jul_20_1437	s	s	6	1	SIC	524	ABS	2	2	24VD	1	0	0.77626991272	None	None	35	-38	0
1.7	2015_Jul_20_1437	s	s	6	1	SIC	525	RC	2	1	23VO	1	0	0.63195681572	321.0	-183.0	323	-180	1
1.7	2015_Jul_20_1437	s	s	6	1	SIC	526	ABS	0	1	24RO	0	1	5.09585189819	None	None	None	None	1
1.7	2015_Jul_20_1437	s	s	6	1	SIC	527	RC	0	2	23RD	1	0	0.453258991241	107.0	-48.0	108	-50	1
1.7	2015_Jul_20_1437	s	s	6	1	SIC	528	RC	2	0	23VC	1	0	0.53492307663	-97.0	403.0	-94	410	1
1.7	2015_Jul_20_1437	s	s	6	1	SIC	529	RC	2	2	23VD	1	0	0.481994867325	497.0	-90.0	509	-86	1
1.7	2015_Jul_20_1437	s	s	6	1	SIC	530	ABS	0	2	24RD	0	1	1.31759500504	None	None	None	None	1
1.7	2015_Jul_20_1437	s	s	6	1	SIC	531	RC	2	0	23VC	1	0	0.70571398735	-231.0	288.0	-227	290	1
1.7	2015_Jul_20_1437	s	s	6	1	SIC	532	RC	0	1	23RO	0	1	3.53724312782	-388.0	120.0	None	None	0
1.7	2015_Jul_20_1437	s	s	6	1	SIC	533	ABS	1	2	24MD	0	1	0.673960924149	None	None	None	None	1
1.7	2015_Jul_20_1437	s	s	6	1	SIC	534	ABS	1	1	24MO	0	1	0.76441693306	None	None	None	None	1
1.7	2015_Jul_20_1437	s	s	6	1	SIC	535	ABS	0	1	24RO	0	1	1.46793794632	None	None	None	None	1
1.7	2015_Jul_20_1437	s	s	6	1	SIC	536	ABS	2	0	24VC	0	1	0.559346199036	None	None	None	None	1
1.7	2015_Jul_20_1437	s	s	6	1	SIC	537	ABS	1	0	24MC	0	1	0.623646020889	None	None	None	None	1
1.7	2015_Jul_20_1437	s	s	6	1	SIC	538	RC	1	1	23MO	0	1	0.264758825302	-363.0	-332.0	None	None	0
1.7	2015_Jul_20_1437	s	s	6	1	SIC	539	RC	2	1	23VO	1	0	0.71235704422	-518.0	-171.0	-517	-167	1
1.7	2015_Jul_20_1437	s	s	6	1	SIC	540	RC	1	2	23MD	1	0	0.682032108307	-459.0	-283.0	-461	-279	1
1.7	2015_Jul_20_1437	s	s	6	1	SIC	541	ABS	2	2	24VD	1	0	0.434903144836	None	None	6	120	0
1.7	2015_Jul_20_1437	s	s	6	1	SIC	542	RC	1	0	23MC	1	0	2.71327495575	-343.0	-107.0	7	-80	0
1.7	2015_Jul_20_1437	s	s	6	1	SIC	543	RC	0	2	23RD	1	0	0.818894863129	-381.0	-184.0	-384	-183	1
1.7	2015_Jul_20_1437	s	s	6	1	SIC	544	ABS	2	1	24VO	0	1	0.548741102219	None	None	None	None	1
1.7	2015_Jul_20_1437	s	s	6	1	SIC	545	ABS	0	2	24RD	0	1	0.670325994492	None	None	None	None	1
1.7	2015_Jul_20_1437	s	s	6	1	SIC	546	ABS	1	0	24MC	0	1	1.0587220192	None	None	None	None	1
1.7	2015_Jul_20_1437	s	s	6	1	SIC	547	ABS	2	0	24VC	0	1	0.564382076263	None	None	None	None	1
1.7	2015_Jul_20_1437	s	s	6	1	SIC	548	RC	1	1	23MO	1	0	0.634990930557	-152.0	-201.0	-147	-210	1
1.7	2015_Jul_20_1437	s	s	6	1	SIC	549	ABS	2	1	24VO	0	1	0.526280164719	None	None	None	None	1
1.7	2015_Jul_20_1437	s	s	6	1	SIC	550	RC	1	2	23MD	1	0	0.523926019669	520.0	-66.0	515	-57	1
1.7	2015_Jul_20_1437	s	s	6	1	SIC	551	RC	0	2	23RD	1	0	0.923522949219	-221.0	380.0	-212	376	1
1.7	2015_Jul_20_1437	s	s	6	1	SIC	552	RC	2	2	23VD	1	0	0.584458112717	-304.0	-225.0	-303	-221	1
1.7	2015_Jul_20_1437	s	s	6	1	SIC	553	ABS	0	1	24RO	0	1	4.71937894821	None	None	None	None	1
1.7	2015_Jul_20_1437	s	s	6	1	SIC	554	RC	0	1	23RO	0	1	1.45891308784	-457.0	-91.0	None	None	0
1.7	2015_Jul_20_1437	s	s	6	1	SIC	555	RC	1	0	23MC	1	0	2.05967307091	-525.0	-17.0	-174	-413	0
1.7	2015_Jul_20_1437	s	s	6	1	SIC	556	ABS	1	2	24MD	0	1	0.882119894028	None	None	None	None	1
1.7	2015_Jul_20_1437	s	s	6	1	SIC	557	RC	2	1	23VO	1	0	0.618350028992	353.0	-324.0	358	-329	1
1.7	2015_Jul_20_1437	s	s	6	1	SIC	558	ABS	1	1	24MO	0	1	1.0234670639	None	None	None	None	1
1.7	2015_Jul_20_1437	s	s	6	1	SIC	559	ABS	2	2	24VD	0	1	1.24182105064	None	None	None	None	1
1.7	2015_Jul_20_1437	s	s	6	1	SIC	560	RC	2	0	23VC	1	0	0.6557970047	-398.0	-358.0	-410	-351	1
1.7	2015_Jul_20_1437	s	s	6	1	SIC	561	RC	1	2	23MD	1	0	0.735190153122	-273.0	-308.0	-272	-306	1
1.7	2015_Jul_20_1437	s	s	6	1	SIC	562	RC	0	2	23RD	1	0	0.571033000946	-274.0	342.0	-271	333	1
1.7	2015_Jul_20_1437	s	s	6	1	SIC	563	ABS	2	2	24VD	0	1	0.818264961243	None	None	None	None	1
1.7	2015_Jul_20_1437	s	s	6	1	SIC	564	RC	2	2	23VD	0	1	0.453322887421	-34.0	-409.0	None	None	0
1.7	2015_Jul_20_1437	s	s	6	1	SIC	565	ABS	0	2	24RD	0	1	0.95277094841	None	None	None	None	1
1.7	2015_Jul_20_1437	s	s	6	1	SIC	566	ABS	1	2	24MD	0	1	0.83163189888	None	None	None	None	1
1.7	2015_Jul_20_1437	s	s	6	1	SIC	567	ABS	2	1	24VO	0	1	0.952750921249	None	None	None	None	1
1.7	2015_Jul_20_1437	s	s	6	1	SIC	568	RC	0	1	23RO	0	1	5.50249099731	-90.0	107.0	None	None	0
1.7	2015_Jul_20_1437	s	s	6	1	SIC	569	RC	2	0	23VC	1	0	0.535825967789	-62.0	-223.0	-58	-230	1
1.7	2015_Jul_20_1437	s	s	6	1	SIC	570	ABS	2	0	24VC	0	1	0.652704000473	None	None	None	None	1
1.7	2015_Jul_20_1437	s	s	6	1	SIC	571	ABS	1	1	24MO	0	1	3.51373696327	None	None	None	None	1
1.7	2015_Jul_20_1437	s	s	6	1	SIC	572	RC	1	1	23MO	0	1	2.08640217781	-383.0	136.0	None	None	0
1.7	2015_Jul_20_1437	s	s	6	1	SIC	573	RC	1	0	23MC	1	0	1.35969400406	-343.0	-134.0	-332	-127	1
1.7	2015_Jul_20_1437	s	s	6	1	SIC	574	ABS	1	0	24MC	0	1	1.43261694908	None	None	None	None	1
1.7	2015_Jul_20_1437	s	s	6	1	SIC	575	RC	2	1	23VO	1	0	0.599509000778	287.0	-216.0	288	-219	1
1.7	2015_Jul_20_1437	s	s	6	1	SIC	576	ABS	0	1	24RO	0	1	3.45990586281	None	None	None	None	1
1.7	2015_Jul_20_1437	s	s	6	1	SIC	577	RC	0	2	23RD	1	0	0.882095098495	-409.0	-402.0	-411	-399	1
1.7	2015_Jul_20_1437	s	s	6	1	SIC	578	ABS	2	1	24VO	0	1	0.552567005157	None	None	None	None	1
1.7	2015_Jul_20_1437	s	s	6	1	SIC	579	ABS	0	1	24RO	0	1	2.6830098629	None	None	None	None	1
1.7	2015_Jul_20_1437	s	s	6	1	SIC	580	RC	2	0	23VC	1	0	0.94088602066	-314.0	388.0	-316	388	1
1.7	2015_Jul_20_1437	s	s	6	1	SIC	581	RC	1	1	23MO	1	0	0.79523396492	92.0	132.0	95	121	1
1.7	2015_Jul_20_1437	s	s	6	1	SIC	582	RC	2	1	23VO	1	0	0.599663972855	-532.0	110.0	-529	105	1
1.7	2015_Jul_20_1437	s	s	6	1	SIC	583	ABS	2	0	24VC	0	1	0.666882038116	None	None	None	None	1
1.7	2015_Jul_20_1437	s	s	6	1	SIC	584	ABS	1	0	24MC	1	0	0.571134090424	None	None	24	-40	0
1.7	2015_Jul_20_1437	s	s	6	1	SIC	585	ABS	1	1	24MO	0	1	2.7619869709	None	None	None	None	1
1.7	2015_Jul_20_1437	s	s	6	1	SIC	586	RC	1	0	23MC	1	0	0.752605199814	29.0	-155.0	31	-152	1
1.7	2015_Jul_20_1437	s	s	6	1	SIC	587	RC	0	1	23RO	0	1	1.12660884857	194.0	102.0	None	None	0
1.7	2015_Jul_20_1437	s	s	6	1	SIC	588	ABS	0	2	24RD	0	1	0.717342853546	None	None	None	None	1
1.7	2015_Jul_20_1437	s	s	6	1	SIC	589	RC	1	2	23MD	1	0	0.830145120621	507.0	-51.0	507	-46	1
1.7	2015_Jul_20_1437	s	s	6	1	SIC	590	RC	2	2	23VD	1	0	0.517358064651	300.0	324.0	297	325	1
1.7	2015_Jul_20_1437	s	s	6	1	SIC	591	ABS	1	2	24MD	0	1	0.799818992615	None	None	None	None	1
1.7	2015_Jul_20_1437	s	s	6	1	SIC	592	ABS	2	2	24VD	0	1	0.500341176987	None	None	None	None	1
