Version	Date	Stimuli	Method	Subject	Session	Condition	Trial	Target	Channel1	Channel2	Distractors	LMouseButton	RMouseButton	RT	TargetX	TargetY	ResponseX	ResponseY	Correct
1.7	2015_Jul_23_1100	s	s	6	3	Capacity	1	ABS	1	0	24MC	0	1	1.07713794708	None	None	None	None	1
1.7	2015_Jul_23_1100	s	s	6	3	Capacity	2	RC	1	0	23MC	0	1	1.01828408241	100.0	239.0	None	None	0
1.7	2015_Jul_23_1100	s	s	6	3	Capacity	3	RC	2	0	23VC	1	0	0.935358047485	313.0	-71.0	318	-64	1
1.7	2015_Jul_23_1100	s	s	6	3	Capacity	4	ABS	2	0	24VC	0	1	0.568003892899	None	None	None	None	1
1.7	2015_Jul_23_1100	s	s	6	3	Capacity	5	ABS	2	0	24VC	0	1	0.512717962265	None	None	None	None	1
1.7	2015_Jul_23_1100	s	s	6	3	Capacity	6	RC	1	0	23MC	0	1	0.693793058395	332.0	-366.0	None	None	0
1.7	2015_Jul_23_1100	s	s	6	3	Capacity	7	RC	2	0	23VC	1	0	0.529021978378	-347.0	281.0	-352	276	1
1.7	2015_Jul_23_1100	s	s	6	3	Capacity	8	ABS	1	0	24MC	0	1	0.537374019623	None	None	None	None	1
1.7	2015_Jul_23_1100	s	s	6	3	Capacity	9	RC	2	0	23VC	0	1	0.552608966827	138.0	130.0	None	None	0
1.7	2015_Jul_23_1100	s	s	6	3	Capacity	10	ABS	2	0	24VC	0	1	0.723459005356	None	None	None	None	1
1.7	2015_Jul_23_1100	s	s	6	3	Capacity	11	ABS	1	0	24MC	0	1	0.760759115219	None	None	None	None	1
1.7	2015_Jul_23_1100	s	s	6	3	Capacity	12	RC	1	0	23MC	0	1	0.623211860657	190.0	345.0	None	None	0
1.7	2015_Jul_23_1100	s	s	6	3	Capacity	13	RC	2	0	23VC	1	0	0.593845129013	128.0	-81.0	123	-78	1
1.7	2015_Jul_23_1100	s	s	6	3	Capacity	14	ABS	1	0	24MC	0	1	0.72586607933	None	None	None	None	1
1.7	2015_Jul_23_1100	s	s	6	3	Capacity	15	ABS	2	0	24VC	0	1	0.535418987274	None	None	None	None	1
1.7	2015_Jul_23_1100	s	s	6	3	Capacity	16	RC	1	0	23MC	0	1	0.811491012573	42.0	225.0	None	None	0
1.7	2015_Jul_23_1100	s	s	6	3	Capacity	17	ABS	1	0	24MC	0	1	0.811578035355	None	None	None	None	1
1.7	2015_Jul_23_1100	s	s	6	3	Capacity	18	ABS	2	0	24VC	0	1	0.505437850952	None	None	None	None	1
1.7	2015_Jul_23_1100	s	s	6	3	Capacity	19	RC	2	0	23VC	1	0	0.572911024094	118.0	-150.0	124	-142	1
1.7	2015_Jul_23_1100	s	s	6	3	Capacity	20	RC	1	0	23MC	1	0	1.01155614853	-381.0	171.0	-382	177	1
1.7	2015_Jul_23_1100	s	s	6	3	Capacity	21	RC	1	0	23MC	1	0	0.788005828857	2.0	45.0	9	46	1
1.7	2015_Jul_23_1100	s	s	6	3	Capacity	22	ABS	1	0	24MC	0	1	0.700788974762	None	None	None	None	1
1.7	2015_Jul_23_1100	s	s	6	3	Capacity	23	RC	2	0	23VC	1	0	0.582930088043	196.0	-213.0	198	-215	1
1.7	2015_Jul_23_1100	s	s	6	3	Capacity	24	ABS	2	0	24VC	0	1	0.747803926468	None	None	None	None	1
1.7	2015_Jul_23_1100	s	s	6	3	Capacity	25	ABS	1	0	24MC	0	1	0.732703924179	None	None	None	None	1
1.7	2015_Jul_23_1100	s	s	6	3	Capacity	26	RC	1	0	23MC	1	0	0.877474069595	526.0	-272.0	-82	-19	0
1.7	2015_Jul_23_1100	s	s	6	3	Capacity	27	ABS	2	0	24VC	0	1	0.629966974258	None	None	None	None	1
1.7	2015_Jul_23_1100	s	s	6	3	Capacity	28	RC	2	0	23VC	1	0	0.658392190933	275.0	264.0	271	257	1
1.7	2015_Jul_23_1100	s	s	6	3	Capacity	29	RC	2	0	23VC	1	0	0.509129047394	77.0	-83.0	81	-75	1
1.7	2015_Jul_23_1100	s	s	6	3	Capacity	30	RC	1	0	23MC	0	1	1.19479489326	-533.0	253.0	None	None	0
1.7	2015_Jul_23_1100	s	s	6	3	Capacity	31	ABS	1	0	24MC	0	1	0.717273950577	None	None	None	None	1
1.7	2015_Jul_23_1100	s	s	6	3	Capacity	32	ABS	2	0	24VC	0	1	1.10152602196	None	None	None	None	1
1.7	2015_Jul_23_1100	s	s	6	3	Capacity	33	RC	2	0	23VC	1	0	0.682157039642	262.0	-184.0	264	-176	1
1.7	2015_Jul_23_1100	s	s	6	3	Capacity	34	ABS	1	0	24MC	1	0	1.26553797722	None	None	204	-221	0
1.7	2015_Jul_23_1100	s	s	6	3	Capacity	35	RC	1	0	23MC	0	1	0.858675956726	-106.0	-103.0	None	None	0
1.7	2015_Jul_23_1100	s	s	6	3	Capacity	36	ABS	2	0	24VC	0	1	0.729244947433	None	None	None	None	1
1.7	2015_Jul_23_1100	s	s	6	3	Capacity	37	ABS	1	0	24MC	0	1	0.799788951874	None	None	None	None	1
1.7	2015_Jul_23_1100	s	s	6	3	Capacity	38	ABS	2	0	24VC	0	1	0.900387048721	None	None	None	None	1
1.7	2015_Jul_23_1100	s	s	6	3	Capacity	39	RC	1	0	23MC	1	0	1.31261610985	-271.0	199.0	-272	192	1
1.7	2015_Jul_23_1100	s	s	6	3	Capacity	40	RC	2	0	23VC	1	0	1.26553201675	519.0	-183.0	518	-182	1
1.7	2015_Jul_23_1100	s	s	6	3	Capacity	41	ABS	2	0	24VC	0	1	0.615046024323	None	None	None	None	1
1.7	2015_Jul_23_1100	s	s	6	3	Capacity	42	ABS	1	0	24MC	0	1	1.1360077858	None	None	None	None	1
1.7	2015_Jul_23_1100	s	s	6	3	Capacity	43	RC	1	0	23MC	1	0	0.803447008133	-308.0	-392.0	60	33	0
1.7	2015_Jul_23_1100	s	s	6	3	Capacity	44	RC	2	0	23VC	1	0	0.623152971268	-321.0	115.0	-326	108	1
1.7	2015_Jul_23_1100	s	s	6	3	Capacity	45	ABS	2	0	24VC	0	1	1.01760816574	None	None	None	None	1
1.7	2015_Jul_23_1100	s	s	6	3	Capacity	46	ABS	1	0	24MC	1	0	0.540791988373	None	None	87	-85	0
1.7	2015_Jul_23_1100	s	s	6	3	Capacity	47	RC	1	0	23MC	1	0	0.878383159637	140.0	165.0	137	160	1
1.7	2015_Jul_23_1100	s	s	6	3	Capacity	48	RC	2	0	23VC	1	0	0.517185211182	-500.0	44.0	-500	41	1
1.7	2015_Jul_23_1100	s	s	6	3	Capacity	49	ABS	1	0	24MC	1	0	0.912584066391	None	None	183	310	0
1.7	2015_Jul_23_1100	s	s	6	3	Capacity	50	RC	1	0	23MC	1	0	0.446670055389	188.0	272.0	191	267	1
1.7	2015_Jul_23_1100	s	s	6	3	Capacity	51	ABS	2	0	24VC	0	1	0.643699169159	None	None	None	None	1
1.7	2015_Jul_23_1100	s	s	6	3	Capacity	52	RC	2	0	23VC	1	0	0.523983001709	-49.0	-308.0	-49	-305	1
1.7	2015_Jul_23_1100	s	s	6	3	Capacity	53	RC	1	0	23MC	1	0	0.481955051422	39.0	154.0	46	158	1
1.7	2015_Jul_23_1100	s	s	6	3	Capacity	54	ABS	1	0	24MC	1	0	0.512965917587	None	None	-5	118	0
1.7	2015_Jul_23_1100	s	s	6	3	Capacity	55	ABS	2	0	24VC	0	1	1.11752986908	None	None	None	None	1
1.7	2015_Jul_23_1100	s	s	6	3	Capacity	56	RC	2	0	23VC	1	0	0.60644197464	457.0	360.0	454	352	1
1.7	2015_Jul_23_1100	s	s	6	3	Capacity	57	RC	2	0	23VC	1	0	0.43479180336	-227.0	-119.0	-227	-121	1
1.7	2015_Jul_23_1100	s	s	6	3	Capacity	58	ABS	2	0	24VC	0	1	0.79487490654	None	None	None	None	1
1.7	2015_Jul_23_1100	s	s	6	3	Capacity	59	RC	1	0	23MC	1	0	0.653803825378	190.0	167.0	192	168	1
1.7	2015_Jul_23_1100	s	s	6	3	Capacity	60	ABS	1	0	24MC	0	1	1.52956199646	None	None	None	None	1
1.7	2015_Jul_23_1100	s	s	6	3	Capacity	61	RC	2	0	23VC	1	0	0.752562999725	-442.0	332.0	-446	325	1
1.7	2015_Jul_23_1100	s	s	6	3	Capacity	62	ABS	1	0	24MC	0	1	0.996351003647	None	None	None	None	1
1.7	2015_Jul_23_1100	s	s	6	3	Capacity	63	RC	1	0	23MC	1	0	1.2588660717	318.0	274.0	316	269	1
1.7	2015_Jul_23_1100	s	s	6	3	Capacity	64	ABS	2	0	24VC	0	1	0.634936094284	None	None	None	None	1
1.7	2015_Jul_23_1100	s	s	6	3	Capacity	65	RC	1	0	23MC	1	0	0.524033069611	73.0	21.0	78	25	1
1.7	2015_Jul_23_1100	s	s	6	3	Capacity	66	ABS	1	0	24MC	0	1	1.02352786064	None	None	None	None	1
1.7	2015_Jul_23_1100	s	s	6	3	Capacity	67	ABS	2	0	24VC	0	1	0.700523138046	None	None	None	None	1
1.7	2015_Jul_23_1100	s	s	6	3	Capacity	68	RC	2	0	23VC	1	0	0.641701221466	341.0	167.0	350	164	1
1.7	2015_Jul_23_1100	s	s	6	3	Capacity	69	RC	1	0	23MC	1	0	2.35340499878	115.0	-271.0	115	-262	1
1.7	2015_Jul_23_1100	s	s	6	3	Capacity	70	ABS	1	0	24MC	1	0	1.18310499191	None	None	164	11	0
1.7	2015_Jul_23_1100	s	s	6	3	Capacity	71	ABS	2	0	24VC	0	1	0.717370986938	None	None	None	None	1
1.7	2015_Jul_23_1100	s	s	6	3	Capacity	72	RC	2	0	23VC	1	0	0.603374004364	489.0	364.0	489	363	1
1.7	2015_Jul_23_1100	s	s	6	3	Capacity	73	RC	2	0	23VC	1	0	0.501633882523	-431.0	358.0	-433	351	1
1.7	2015_Jul_23_1100	s	s	6	3	Capacity	74	RC	1	0	23MC	1	0	1.78036308289	293.0	73.0	299	73	1
1.7	2015_Jul_23_1100	s	s	6	3	Capacity	75	ABS	1	0	24MC	0	1	1.91806292534	None	None	None	None	1
1.7	2015_Jul_23_1100	s	s	6	3	Capacity	76	ABS	2	0	24VC	0	1	0.670325994492	None	None	None	None	1
1.7	2015_Jul_23_1100	s	s	6	3	Capacity	77	ABS	1	0	24MC	0	1	1.76498413086	None	None	None	None	1
1.7	2015_Jul_23_1100	s	s	6	3	Capacity	78	RC	1	0	23MC	1	0	0.929276943207	53.0	35.0	47	29	1
1.7	2015_Jul_23_1100	s	s	6	3	Capacity	79	RC	2	0	23VC	1	0	0.594676971436	525.0	-249.0	535	-250	1
1.7	2015_Jul_23_1100	s	s	6	3	Capacity	80	ABS	2	0	24VC	0	1	0.505500793457	None	None	None	None	1
1.7	2015_Jul_23_1100	s	s	6	3	Capacity	81	RC	1	0	23MC	1	0	0.794013023376	232.0	195.0	-7	140	0
1.7	2015_Jul_23_1100	s	s	6	3	Capacity	82	RC	2	0	23VC	1	0	0.477751970291	-411.0	-299.0	-407	-298	1
1.7	2015_Jul_23_1100	s	s	6	3	Capacity	83	ABS	1	0	24MC	1	0	0.435254096985	None	None	114	133	0
1.7	2015_Jul_23_1100	s	s	6	3	Capacity	84	ABS	2	0	24VC	0	1	0.559106826782	None	None	None	None	1
1.7	2015_Jul_23_1100	s	s	6	3	Capacity	85	ABS	1	0	24MC	1	0	0.823297023773	None	None	59	192	0
1.7	2015_Jul_23_1100	s	s	6	3	Capacity	86	RC	1	0	23MC	0	1	1.11759996414	433.0	389.0	None	None	0
1.7	2015_Jul_23_1100	s	s	6	3	Capacity	87	ABS	2	0	24VC	0	1	0.682101964951	None	None	None	None	1
1.7	2015_Jul_23_1100	s	s	6	3	Capacity	88	RC	2	0	23VC	1	0	0.512362957001	69.0	20.0	68	17	1
1.7	2015_Jul_23_1100	s	s	6	3	Capacity	89	RC	1	0	23MC	0	1	2.27112817764	-526.0	188.0	None	None	0
1.7	2015_Jul_23_1100	s	s	6	3	Capacity	90	ABS	1	0	24MC	1	0	0.540797948837	None	None	91	-42	0
1.7	2015_Jul_23_1100	s	s	6	3	Capacity	91	ABS	2	0	24VC	0	1	0.772608995438	None	None	None	None	1
1.7	2015_Jul_23_1100	s	s	6	3	Capacity	92	RC	2	0	23VC	1	0	0.488557100296	359.0	-12.0	350	-16	1
1.7	2015_Jul_23_1100	s	s	6	3	Capacity	1	RC	0	1	23RO	0	1	6.93587303162	371.0	-308.0	None	None	0
1.7	2015_Jul_23_1100	s	s	6	3	Capacity	2	RC	0	2	23RD	1	0	0.667530059814	429.0	-328.0	432	-329	1
1.7	2015_Jul_23_1100	s	s	6	3	Capacity	3	ABS	0	2	24RD	0	1	1.10277891159	None	None	None	None	1
1.7	2015_Jul_23_1100	s	s	6	3	Capacity	4	ABS	0	1	24RO	0	1	1.08904099464	None	None	None	None	1
1.7	2015_Jul_23_1100	s	s	6	3	Capacity	5	RC	0	1	23RO	0	1	0.846915960312	383.0	171.0	None	None	0
1.7	2015_Jul_23_1100	s	s	6	3	Capacity	6	ABS	0	1	24RO	0	1	0.587914943695	None	None	None	None	1
1.7	2015_Jul_23_1100	s	s	6	3	Capacity	7	ABS	0	2	24RD	0	1	1.21174192429	None	None	None	None	1
1.7	2015_Jul_23_1100	s	s	6	3	Capacity	8	RC	0	2	23RD	1	0	1.02341198921	314.0	279.0	320	273	1
1.7	2015_Jul_23_1100	s	s	6	3	Capacity	9	RC	0	1	23RO	1	0	2.18404006958	-280.0	-365.0	-274	-374	1
1.7	2015_Jul_23_1100	s	s	6	3	Capacity	10	ABS	0	1	24RO	0	1	2.04085302353	None	None	None	None	1
1.7	2015_Jul_23_1100	s	s	6	3	Capacity	11	ABS	0	2	24RD	1	0	1.56158304214	None	None	-113	57	0
1.7	2015_Jul_23_1100	s	s	6	3	Capacity	12	RC	0	2	23RD	1	0	0.799751996994	-504.0	191.0	-500	194	1
1.7	2015_Jul_23_1100	s	s	6	3	Capacity	13	ABS	0	1	24RO	0	1	1.30083703995	None	None	None	None	1
1.7	2015_Jul_23_1100	s	s	6	3	Capacity	14	ABS	0	2	24RD	0	1	1.34955596924	None	None	None	None	1
1.7	2015_Jul_23_1100	s	s	6	3	Capacity	15	RC	0	1	23RO	0	1	1.13649010658	-308.0	-318.0	None	None	0
1.7	2015_Jul_23_1100	s	s	6	3	Capacity	16	RC	0	2	23RD	1	0	0.670339107513	322.0	-92.0	315	-98	1
1.7	2015_Jul_23_1100	s	s	6	3	Capacity	17	ABS	0	1	24RO	0	1	3.75412511826	None	None	None	None	1
1.7	2015_Jul_23_1100	s	s	6	3	Capacity	18	ABS	0	2	24RD	1	0	2.66640901566	None	None	-81	47	0
1.7	2015_Jul_23_1100	s	s	6	3	Capacity	19	RC	0	2	23RD	1	0	2.76547598839	320.0	358.0	321	351	1
1.7	2015_Jul_23_1100	s	s	6	3	Capacity	20	RC	0	1	23RO	1	0	1.34788894653	266.0	-75.0	261	-70	1
1.7	2015_Jul_23_1100	s	s	6	3	Capacity	21	RC	0	2	23RD	1	0	0.564349889755	368.0	-113.0	370	-104	1
1.7	2015_Jul_23_1100	s	s	6	3	Capacity	22	ABS	0	2	24RD	0	1	1.28915596008	None	None	None	None	1
1.7	2015_Jul_23_1100	s	s	6	3	Capacity	23	RC	0	1	23RO	0	1	1.3001229763	-479.0	292.0	None	None	0
1.7	2015_Jul_23_1100	s	s	6	3	Capacity	24	ABS	0	1	24RO	0	1	0.952601909637	None	None	None	None	1
1.7	2015_Jul_23_1100	s	s	6	3	Capacity	25	RC	0	1	23RO	0	1	0.771181106567	-215.0	344.0	None	None	0
1.7	2015_Jul_23_1100	s	s	6	3	Capacity	26	ABS	0	2	24RD	0	1	1.31349992752	None	None	None	None	1
1.7	2015_Jul_23_1100	s	s	6	3	Capacity	27	RC	0	2	23RD	1	0	0.517297029495	147.0	2.0	137	3	1
1.7	2015_Jul_23_1100	s	s	6	3	Capacity	28	ABS	0	1	24RO	0	1	0.759931087494	None	None	None	None	1
1.7	2015_Jul_23_1100	s	s	6	3	Capacity	29	RC	0	2	23RD	1	0	0.623172044754	-51.0	245.0	-58	243	1
1.7	2015_Jul_23_1100	s	s	6	3	Capacity	30	RC	0	1	23RO	0	1	0.729157924652	-497.0	382.0	None	None	0
1.7	2015_Jul_23_1100	s	s	6	3	Capacity	31	ABS	0	2	24RD	0	1	1.33623981476	None	None	None	None	1
1.7	2015_Jul_23_1100	s	s	6	3	Capacity	32	ABS	0	1	24RO	0	1	6.72023820877	None	None	None	None	1
1.7	2015_Jul_23_1100	s	s	6	3	Capacity	33	ABS	0	1	24RO	0	1	2.67130088806	None	None	None	None	1
1.7	2015_Jul_23_1100	s	s	6	3	Capacity	34	RC	0	1	23RO	0	1	1.74142289162	276.0	78.0	None	None	0
1.7	2015_Jul_23_1100	s	s	6	3	Capacity	35	ABS	0	2	24RD	0	1	1.20838189125	None	None	None	None	1
1.7	2015_Jul_23_1100	s	s	6	3	Capacity	36	RC	0	2	23RD	1	0	0.688924074173	178.0	-221.0	173	-221	1
1.7	2015_Jul_23_1100	s	s	6	3	Capacity	37	ABS	0	1	24RO	0	1	2.49474716187	None	None	None	None	1
1.7	2015_Jul_23_1100	s	s	6	3	Capacity	38	RC	0	2	23RD	1	0	0.658495903015	-459.0	-308.0	-464	-306	1
1.7	2015_Jul_23_1100	s	s	6	3	Capacity	39	RC	0	1	23RO	0	1	2.44761800766	107.0	171.0	None	None	0
1.7	2015_Jul_23_1100	s	s	6	3	Capacity	40	ABS	0	2	24RD	0	1	1.78275990486	None	None	None	None	1
1.7	2015_Jul_23_1100	s	s	6	3	Capacity	41	RC	0	1	23RO	0	1	2.56023097038	448.0	74.0	None	None	0
1.7	2015_Jul_23_1100	s	s	6	3	Capacity	42	RC	0	2	23RD	1	0	0.500577926636	-96.0	-142.0	-97	-136	1
1.7	2015_Jul_23_1100	s	s	6	3	Capacity	43	ABS	0	1	24RO	0	1	0.811593055725	None	None	None	None	1
1.7	2015_Jul_23_1100	s	s	6	3	Capacity	44	ABS	0	2	24RD	0	1	1.48242306709	None	None	None	None	1
1.7	2015_Jul_23_1100	s	s	6	3	Capacity	45	RC	0	2	23RD	1	0	0.476760149002	61.0	-34.0	62	-26	1
1.7	2015_Jul_23_1100	s	s	6	3	Capacity	46	ABS	0	1	24RO	0	1	4.20814490318	None	None	None	None	1
1.7	2015_Jul_23_1100	s	s	6	3	Capacity	47	RC	0	1	23RO	0	1	0.493772983551	250.0	246.0	None	None	0
1.7	2015_Jul_23_1100	s	s	6	3	Capacity	48	ABS	0	2	24RD	0	1	1.01165103912	None	None	None	None	1
1.7	2015_Jul_23_1100	s	s	6	3	Capacity	49	ABS	0	1	24RO	0	1	0.970360994339	None	None	None	None	1
1.7	2015_Jul_23_1100	s	s	6	3	Capacity	50	ABS	0	2	24RD	0	1	1.37098002434	None	None	None	None	1
1.7	2015_Jul_23_1100	s	s	6	3	Capacity	51	RC	0	2	23RD	1	0	0.670294046402	406.0	28.0	400	27	1
1.7	2015_Jul_23_1100	s	s	6	3	Capacity	52	RC	0	1	23RO	0	1	1.04325008392	442.0	-157.0	None	None	0
1.7	2015_Jul_23_1100	s	s	6	3	Capacity	53	ABS	0	2	24RD	0	1	0.988045930862	None	None	None	None	1
1.7	2015_Jul_23_1100	s	s	6	3	Capacity	54	RC	0	1	23RO	0	1	0.829339027405	533.0	374.0	None	None	0
1.7	2015_Jul_23_1100	s	s	6	3	Capacity	55	ABS	0	1	24RO	0	1	1.05343198776	None	None	None	None	1
1.7	2015_Jul_23_1100	s	s	6	3	Capacity	56	RC	0	2	23RD	1	0	0.560781955719	179.0	-273.0	172	-265	1
1.7	2015_Jul_23_1100	s	s	6	3	Capacity	57	RC	0	2	23RD	1	0	0.488286972046	10.0	113.0	11	116	1
1.7	2015_Jul_23_1100	s	s	6	3	Capacity	58	ABS	0	1	24RO	0	1	0.641860961914	None	None	None	None	1
1.7	2015_Jul_23_1100	s	s	6	3	Capacity	59	RC	0	1	23RO	0	1	0.653512954712	-440.0	-49.0	None	None	0
1.7	2015_Jul_23_1100	s	s	6	3	Capacity	60	ABS	0	2	24RD	0	1	1.48997712135	None	None	None	None	1
1.7	2015_Jul_23_1100	s	s	6	3	Capacity	61	RC	0	1	23RO	0	1	6.06120204926	-289.0	-152.0	None	None	0
1.7	2015_Jul_23_1100	s	s	6	3	Capacity	62	RC	0	2	23RD	1	0	0.74093580246	303.0	-125.0	296	-124	1
1.7	2015_Jul_23_1100	s	s	6	3	Capacity	63	ABS	0	1	24RO	0	1	0.635025978088	None	None	None	None	1
1.7	2015_Jul_23_1100	s	s	6	3	Capacity	64	ABS	0	2	24RD	0	1	1.05877494812	None	None	None	None	1
1.7	2015_Jul_23_1100	s	s	6	3	Capacity	65	ABS	0	2	24RD	0	1	0.67918586731	None	None	None	None	1
1.7	2015_Jul_23_1100	s	s	6	3	Capacity	66	ABS	0	1	24RO	0	1	3.73746991158	None	None	None	None	1
1.7	2015_Jul_23_1100	s	s	6	3	Capacity	67	RC	0	2	23RD	1	0	0.670701980591	-368.0	221.0	-371	218	1
1.7	2015_Jul_23_1100	s	s	6	3	Capacity	68	RC	0	1	23RO	0	1	0.829408884048	-352.0	129.0	None	None	0
1.7	2015_Jul_23_1100	s	s	6	3	Capacity	69	ABS	0	2	24RD	0	1	0.726361036301	None	None	None	None	1
1.7	2015_Jul_23_1100	s	s	6	3	Capacity	70	ABS	0	1	24RO	0	1	0.929252147675	None	None	None	None	1
1.7	2015_Jul_23_1100	s	s	6	3	Capacity	71	RC	0	2	23RD	1	0	0.548098087311	499.0	216.0	501	219	1
1.7	2015_Jul_23_1100	s	s	6	3	Capacity	72	RC	0	1	23RO	0	1	0.98535990715	-272.0	-375.0	None	None	0
1.7	2015_Jul_23_1100	s	s	6	3	Capacity	73	RC	0	1	23RO	0	1	0.700654029846	93.0	343.0	None	None	0
1.7	2015_Jul_23_1100	s	s	6	3	Capacity	74	ABS	0	1	24RO	0	1	1.96128797531	None	None	None	None	1
1.7	2015_Jul_23_1100	s	s	6	3	Capacity	75	RC	0	2	23RD	1	0	0.717383861542	492.0	179.0	488	173	1
1.7	2015_Jul_23_1100	s	s	6	3	Capacity	76	ABS	0	2	24RD	0	1	0.665186882019	None	None	None	None	1
1.7	2015_Jul_23_1100	s	s	6	3	Capacity	77	RC	0	2	23RD	1	0	0.547484874725	-297.0	-393.0	-303	-395	1
1.7	2015_Jul_23_1100	s	s	6	3	Capacity	78	ABS	0	2	24RD	0	1	0.83499789238	None	None	None	None	1
1.7	2015_Jul_23_1100	s	s	6	3	Capacity	79	ABS	0	1	24RO	0	1	3.54890108109	None	None	None	None	1
1.7	2015_Jul_23_1100	s	s	6	3	Capacity	80	RC	0	1	23RO	0	1	0.728920221329	-118.0	411.0	None	None	0
1.7	2015_Jul_23_1100	s	s	6	3	Capacity	81	ABS	0	2	24RD	0	1	1.41203093529	None	None	None	None	1
1.7	2015_Jul_23_1100	s	s	6	3	Capacity	82	RC	0	1	23RO	0	1	1.27053999901	-331.0	163.0	None	None	0
1.7	2015_Jul_23_1100	s	s	6	3	Capacity	83	ABS	0	1	24RO	0	1	3.83646512032	None	None	None	None	1
1.7	2015_Jul_23_1100	s	s	6	3	Capacity	84	RC	0	2	23RD	1	0	0.888820171356	-358.0	-142.0	-347	-137	1
1.7	2015_Jul_23_1100	s	s	6	3	Capacity	85	RC	0	2	23RD	1	0	0.4651491642	228.0	-47.0	228	-49	1
1.7	2015_Jul_23_1100	s	s	6	3	Capacity	86	ABS	0	1	24RO	0	1	1.94137191772	None	None	None	None	1
1.7	2015_Jul_23_1100	s	s	6	3	Capacity	87	ABS	0	2	24RD	0	1	0.599687814713	None	None	None	None	1
1.7	2015_Jul_23_1100	s	s	6	3	Capacity	88	RC	0	1	23RO	1	0	0.929616928101	74.0	-14.0	82	-15	1
1.7	2015_Jul_23_1100	s	s	6	3	Capacity	89	RC	0	1	23RO	1	0	0.007737159729	-369.0	-169.0	-61	-120	0
1.7	2015_Jul_23_1100	s	s	6	3	Capacity	90	RC	0	2	23RD	1	0	0.500397920609	-300.0	149.0	-303	151	1
1.7	2015_Jul_23_1100	s	s	6	3	Capacity	91	ABS	0	2	24RD	0	1	1.18824005127	None	None	None	None	1
1.7	2015_Jul_23_1100	s	s	6	3	Capacity	92	ABS	0	1	24RO	0	1	3.21283721924	None	None	None	None	1
1.7	2015_Jul_23_1100	s	s	6	3	SIC	1	ABS	1	0	24MC	1	0	1.89106297493	None	None	-44	150	0
1.7	2015_Jul_23_1100	s	s	6	3	SIC	2	ABS	1	2	24MD	0	1	0.823281049728	None	None	None	None	1
1.7	2015_Jul_23_1100	s	s	6	3	SIC	3	RC	2	2	23VD	1	0	0.512217998505	-424.0	-368.0	-434	-370	1
1.7	2015_Jul_23_1100	s	s	6	3	SIC	4	ABS	1	1	24MO	0	1	1.34746599197	None	None	None	None	1
1.7	2015_Jul_23_1100	s	s	6	3	SIC	5	RC	0	1	23RO	0	1	1.44366693497	362.0	178.0	None	None	0
1.7	2015_Jul_23_1100	s	s	6	3	SIC	6	RC	0	2	23RD	1	0	0.759368896484	156.0	-129.0	161	-133	1
1.7	2015_Jul_23_1100	s	s	6	3	SIC	7	RC	2	1	23VO	1	0	0.394646167755	274.0	184.0	272	186	1
1.7	2015_Jul_23_1100	s	s	6	3	SIC	8	ABS	2	1	24VO	0	1	0.576148986816	None	None	None	None	1
1.7	2015_Jul_23_1100	s	s	6	3	SIC	9	RC	1	1	23MO	1	0	1.96161389351	-427.0	-400.0	-427	-400	1
1.7	2015_Jul_23_1100	s	s	6	3	SIC	10	ABS	0	1	24RO	0	1	3.54229307175	None	None	None	None	1
1.7	2015_Jul_23_1100	s	s	6	3	SIC	11	RC	1	0	23MC	1	0	0.688195943832	-399.0	-397.0	-403	-391	1
1.7	2015_Jul_23_1100	s	s	6	3	SIC	12	ABS	0	2	24RD	0	1	1.01167082787	None	None	None	None	1
1.7	2015_Jul_23_1100	s	s	6	3	SIC	13	ABS	2	0	24VC	0	1	1.03523588181	None	None	None	None	1
1.7	2015_Jul_23_1100	s	s	6	3	SIC	14	RC	2	0	23VC	1	0	0.564352035522	20.0	353.0	23	347	1
1.7	2015_Jul_23_1100	s	s	6	3	SIC	15	ABS	2	2	24VD	0	1	0.682080030441	None	None	None	None	1
1.7	2015_Jul_23_1100	s	s	6	3	SIC	16	RC	1	2	23MD	1	0	0.665367841721	103.0	-411.0	103	-413	1
1.7	2015_Jul_23_1100	s	s	6	3	SIC	17	ABS	1	1	24MO	0	1	1.01168107986	None	None	None	None	1
1.7	2015_Jul_23_1100	s	s	6	3	SIC	18	ABS	1	0	24MC	0	1	0.717470884323	None	None	None	None	1
1.7	2015_Jul_23_1100	s	s	6	3	SIC	19	RC	0	1	23RO	0	1	1.40008211136	-321.0	-33.0	None	None	0
1.7	2015_Jul_23_1100	s	s	6	3	SIC	20	ABS	2	1	24VO	0	1	0.587954044342	None	None	None	None	1
1.7	2015_Jul_23_1100	s	s	6	3	SIC	21	RC	1	0	23MC	1	0	1.67451906204	-222.0	310.0	-227	313	1
1.7	2015_Jul_23_1100	s	s	6	3	SIC	22	ABS	2	0	24VC	0	1	0.540817975998	None	None	None	None	1
1.7	2015_Jul_23_1100	s	s	6	3	SIC	23	RC	1	2	23MD	1	0	0.603222131729	532.0	-396.0	532	-395	1
1.7	2015_Jul_23_1100	s	s	6	3	SIC	24	ABS	2	2	24VD	0	1	0.573261022568	None	None	None	None	1
1.7	2015_Jul_23_1100	s	s	6	3	SIC	25	ABS	0	1	24RO	0	1	1.75912117958	None	None	None	None	1
1.7	2015_Jul_23_1100	s	s	6	3	SIC	26	ABS	0	2	24RD	0	1	0.917511940002	None	None	None	None	1
1.7	2015_Jul_23_1100	s	s	6	3	SIC	27	ABS	1	2	24MD	0	1	0.744691133499	None	None	None	None	1
1.7	2015_Jul_23_1100	s	s	6	3	SIC	28	RC	2	1	23VO	1	0	0.500375032425	-230.0	152.0	-225	147	1
1.7	2015_Jul_23_1100	s	s	6	3	SIC	29	RC	0	2	23RD	1	0	0.667424917221	483.0	-3.0	478	-2	1
1.7	2015_Jul_23_1100	s	s	6	3	SIC	30	RC	2	2	23VD	1	0	0.537744998932	-473.0	384.0	-482	386	1
1.7	2015_Jul_23_1100	s	s	6	3	SIC	31	RC	1	1	23MO	1	0	0.441773891449	57.0	176.0	60	178	1
1.7	2015_Jul_23_1100	s	s	6	3	SIC	32	RC	2	0	23VC	1	0	0.418119907379	-383.0	229.0	-373	227	1
1.7	2015_Jul_23_1100	s	s	6	3	SIC	33	RC	2	1	23VO	1	0	0.423292160034	5.0	-201.0	-6	-197	1
1.7	2015_Jul_23_1100	s	s	6	3	SIC	34	ABS	2	1	24VO	0	1	0.62047791481	None	None	None	None	1
1.7	2015_Jul_23_1100	s	s	6	3	SIC	35	RC	1	0	23MC	1	0	1.8238260746	430.0	15.0	424	15	1
1.7	2015_Jul_23_1100	s	s	6	3	SIC	36	ABS	0	1	24RO	0	1	2.18360805511	None	None	None	None	1
1.7	2015_Jul_23_1100	s	s	6	3	SIC	37	RC	2	2	23VD	1	0	0.42914390564	-49.0	-328.0	-52	-336	1
1.7	2015_Jul_23_1100	s	s	6	3	SIC	38	ABS	0	2	24RD	0	1	0.677284002304	None	None	None	None	1
1.7	2015_Jul_23_1100	s	s	6	3	SIC	39	ABS	1	0	24MC	0	1	1.81194114685	None	None	None	None	1
1.7	2015_Jul_23_1100	s	s	6	3	SIC	40	ABS	1	2	24MD	0	1	0.630016088486	None	None	None	None	1
1.7	2015_Jul_23_1100	s	s	6	3	SIC	41	RC	2	0	23VC	1	0	0.450325965881	330.0	60.0	333	51	1
1.7	2015_Jul_23_1100	s	s	6	3	SIC	42	ABS	2	0	24VC	0	1	0.611464977264	None	None	None	None	1
1.7	2015_Jul_23_1100	s	s	6	3	SIC	43	RC	1	2	23MD	1	0	0.49370598793	-64.0	32.0	-63	35	1
1.7	2015_Jul_23_1100	s	s	6	3	SIC	44	RC	1	1	23MO	1	0	0.717366218567	52.0	-298.0	48	-293	1
1.7	2015_Jul_23_1100	s	s	6	3	SIC	45	ABS	1	1	24MO	0	1	0.900070905685	None	None	None	None	1
1.7	2015_Jul_23_1100	s	s	6	3	SIC	46	RC	0	1	23RO	0	1	0.950104951859	-250.0	218.0	None	None	0
1.7	2015_Jul_23_1100	s	s	6	3	SIC	47	ABS	2	2	24VD	0	1	0.465241193771	None	None	None	None	1
1.7	2015_Jul_23_1100	s	s	6	3	SIC	48	RC	0	2	23RD	1	0	0.682033061981	-504.0	-204.0	-502	-211	1
1.7	2015_Jul_23_1100	s	s	6	3	SIC	49	ABS	1	2	24MD	0	1	0.717390060425	None	None	None	None	1
1.7	2015_Jul_23_1100	s	s	6	3	SIC	50	RC	0	1	23RO	1	0	1.28238391876	469.0	67.0	478	64	1
1.7	2015_Jul_23_1100	s	s	6	3	SIC	51	ABS	1	0	24MC	0	1	1.49417495728	None	None	None	None	1
1.7	2015_Jul_23_1100	s	s	6	3	SIC	52	ABS	2	0	24VC	0	1	0.59429693222	None	None	None	None	1
1.7	2015_Jul_23_1100	s	s	6	3	SIC	53	RC	1	2	23MD	1	0	0.505520820618	23.0	-3.0	23	-1	1
1.7	2015_Jul_23_1100	s	s	6	3	SIC	54	ABS	0	1	24RO	0	1	1.31231498718	None	None	None	None	1
1.7	2015_Jul_23_1100	s	s	6	3	SIC	55	RC	2	0	23VC	1	0	0.587910890579	188.0	-122.0	184	-123	1
1.7	2015_Jul_23_1100	s	s	6	3	SIC	56	RC	0	2	23RD	1	0	0.44380903244	166.0	-136.0	163	-141	1
1.7	2015_Jul_23_1100	s	s	6	3	SIC	57	RC	2	1	23VO	1	0	0.453191041946	396.0	-370.0	392	-372	1
1.7	2015_Jul_23_1100	s	s	6	3	SIC	58	ABS	1	1	24MO	0	1	1.64441394806	None	None	None	None	1
1.7	2015_Jul_23_1100	s	s	6	3	SIC	59	ABS	2	2	24VD	0	1	0.458801984787	None	None	None	None	1
1.7	2015_Jul_23_1100	s	s	6	3	SIC	60	ABS	0	2	24RD	0	1	1.05403494835	None	None	None	None	1
1.7	2015_Jul_23_1100	s	s	6	3	SIC	61	RC	1	0	23MC	0	1	1.73569202423	-158.0	383.0	None	None	0
1.7	2015_Jul_23_1100	s	s	6	3	SIC	62	RC	2	2	23VD	0	1	0.717374801636	-25.0	-332.0	None	None	0
1.7	2015_Jul_23_1100	s	s	6	3	SIC	63	RC	1	1	23MO	0	1	3.21282100677	471.0	43.0	None	None	0
1.7	2015_Jul_23_1100	s	s	6	3	SIC	64	ABS	2	1	24VO	0	1	0.723562002182	None	None	None	None	1
1.7	2015_Jul_23_1100	s	s	6	3	SIC	65	ABS	2	2	24VD	0	1	0.524008989334	None	None	None	None	1
1.7	2015_Jul_23_1100	s	s	6	3	SIC	66	RC	0	2	23RD	1	0	0.611466884613	-336.0	242.0	-338	240	1
1.7	2015_Jul_23_1100	s	s	6	3	SIC	67	ABS	0	1	24RO	0	1	1.14762401581	None	None	None	None	1
1.7	2015_Jul_23_1100	s	s	6	3	SIC	68	RC	2	1	23VO	1	0	0.47700715065	31.0	-138.0	23	-136	1
1.7	2015_Jul_23_1100	s	s	6	3	SIC	69	ABS	1	1	24MO	0	1	1.88266682625	None	None	None	None	1
1.7	2015_Jul_23_1100	s	s	6	3	SIC	70	RC	1	0	23MC	1	0	1.218957901	-441.0	131.0	-450	131	1
1.7	2015_Jul_23_1100	s	s	6	3	SIC	71	ABS	1	0	24MC	0	1	1.17677307129	None	None	None	None	1
1.7	2015_Jul_23_1100	s	s	6	3	SIC	72	RC	2	0	23VC	1	0	0.493757009506	207.0	-138.0	208	-139	1
1.7	2015_Jul_23_1100	s	s	6	3	SIC	73	ABS	0	2	24RD	0	1	0.776131868362	None	None	None	None	1
1.7	2015_Jul_23_1100	s	s	6	3	SIC	74	ABS	2	0	24VC	0	1	0.688902854919	None	None	None	None	1
1.7	2015_Jul_23_1100	s	s	6	3	SIC	75	RC	0	1	23RO	0	1	2.11791300774	-439.0	-406.0	None	None	0
1.7	2015_Jul_23_1100	s	s	6	3	SIC	76	RC	1	2	23MD	1	0	0.493700027466	-136.0	-335.0	-123	-329	1
1.7	2015_Jul_23_1100	s	s	6	3	SIC	77	RC	2	2	23VD	1	0	0.429006099701	44.0	367.0	54	374	1
1.7	2015_Jul_23_1100	s	s	6	3	SIC	78	ABS	2	1	24VO	1	0	0.632261991501	None	None	15	-8	0
1.7	2015_Jul_23_1100	s	s	6	3	SIC	79	RC	1	1	23MO	1	0	9.58442687988e-05	-31.0	157.0	-79	-50	0
1.7	2015_Jul_23_1100	s	s	6	3	SIC	80	ABS	1	2	24MD	0	1	0.799759149551	None	None	None	None	1
1.7	2015_Jul_23_1100	s	s	6	3	SIC	81	ABS	1	2	24MD	0	1	0.855257987976	None	None	None	None	1
1.7	2015_Jul_23_1100	s	s	6	3	SIC	82	RC	2	2	23VD	1	0	0.523881912231	-306.0	-275.0	-302	-278	1
1.7	2015_Jul_23_1100	s	s	6	3	SIC	83	RC	1	2	23MD	1	0	0.423613071442	-134.0	93.0	-133	89	1
1.7	2015_Jul_23_1100	s	s	6	3	SIC	84	RC	1	1	23MO	1	0	0.502357006073	166.0	-110.0	166	-113	1
1.7	2015_Jul_23_1100	s	s	6	3	SIC	85	ABS	0	2	24RD	0	1	1.07727193832	None	None	None	None	1
1.7	2015_Jul_23_1100	s	s	6	3	SIC	86	ABS	1	0	24MC	0	1	2.15003585815	None	None	None	None	1
1.7	2015_Jul_23_1100	s	s	6	3	SIC	87	ABS	1	1	24MO	0	1	2.52496004105	None	None	None	None	1
1.7	2015_Jul_23_1100	s	s	6	3	SIC	88	ABS	2	0	24VC	0	1	0.976364850998	None	None	None	None	1
1.7	2015_Jul_23_1100	s	s	6	3	SIC	89	RC	2	0	23VC	1	0	0.465064048767	-465.0	-150.0	-468	-141	1
1.7	2015_Jul_23_1100	s	s	6	3	SIC	90	RC	1	0	23MC	0	1	0.784668922424	-346.0	259.0	None	None	0
1.7	2015_Jul_23_1100	s	s	6	3	SIC	91	ABS	0	1	24RO	0	1	1.2588801384	None	None	None	None	1
1.7	2015_Jul_23_1100	s	s	6	3	SIC	92	RC	0	1	23RO	0	1	1.44153308868	141.0	189.0	None	None	0
1.7	2015_Jul_23_1100	s	s	6	3	SIC	93	RC	2	1	23VO	1	0	0.538137197495	-161.0	117.0	-155	111	1
1.7	2015_Jul_23_1100	s	s	6	3	SIC	94	ABS	2	1	24VO	0	1	0.512143850327	None	None	None	None	1
1.7	2015_Jul_23_1100	s	s	6	3	SIC	95	ABS	2	2	24VD	0	1	0.523235797882	None	None	None	None	1
1.7	2015_Jul_23_1100	s	s	6	3	SIC	96	RC	0	2	23RD	1	0	0.564357995987	520.0	-122.0	523	-119	1
1.7	2015_Jul_23_1100	s	s	6	3	SIC	97	RC	2	2	23VD	1	0	0.434864997864	-181.0	-65.0	-184	-68	1
1.7	2015_Jul_23_1100	s	s	6	3	SIC	98	RC	0	1	23RO	0	1	1.34173512459	-525.0	-318.0	None	None	0
1.7	2015_Jul_23_1100	s	s	6	3	SIC	99	ABS	2	0	24VC	0	1	0.630249023438	None	None	None	None	1
1.7	2015_Jul_23_1100	s	s	6	3	SIC	100	ABS	1	2	24MD	0	1	0.646762132645	None	None	None	None	1
1.7	2015_Jul_23_1100	s	s	6	3	SIC	101	RC	1	2	23MD	1	0	0.464901924133	-276.0	-14.0	-268	-15	1
1.7	2015_Jul_23_1100	s	s	6	3	SIC	102	RC	1	0	23MC	1	0	1.33678889275	255.0	61.0	251	56	1
1.7	2015_Jul_23_1100	s	s	6	3	SIC	103	RC	1	1	23MO	1	0	0.576128005981	172.0	406.0	174	408	1
1.7	2015_Jul_23_1100	s	s	6	3	SIC	104	ABS	2	1	24VO	0	1	0.758300065994	None	None	None	None	1
1.7	2015_Jul_23_1100	s	s	6	3	SIC	105	RC	2	0	23VC	1	0	0.493749141693	452.0	-134.0	454	-139	1
1.7	2015_Jul_23_1100	s	s	6	3	SIC	106	ABS	1	0	24MC	0	1	0.697355031967	None	None	None	None	1
1.7	2015_Jul_23_1100	s	s	6	3	SIC	107	ABS	1	1	24MO	0	1	1.21882796288	None	None	None	None	1
1.7	2015_Jul_23_1100	s	s	6	3	SIC	108	ABS	2	2	24VD	0	1	0.512387990952	None	None	None	None	1
1.7	2015_Jul_23_1100	s	s	6	3	SIC	109	ABS	0	1	24RO	0	1	1.02346205711	None	None	None	None	1
1.7	2015_Jul_23_1100	s	s	6	3	SIC	110	RC	2	1	23VO	1	0	0.752519845963	-119.0	287.0	-116	279	1
1.7	2015_Jul_23_1100	s	s	6	3	SIC	111	RC	0	2	23RD	1	0	0.688927173615	319.0	-412.0	314	-413	1
1.7	2015_Jul_23_1100	s	s	6	3	SIC	112	ABS	0	2	24RD	0	1	0.79980802536	None	None	None	None	1
1.7	2015_Jul_23_1100	s	s	6	3	SIC	113	RC	2	0	23VC	1	0	0.677031993866	-484.0	-339.0	-495	-339	1
1.7	2015_Jul_23_1100	s	s	6	3	SIC	114	ABS	0	2	24RD	0	1	0.676973104477	None	None	None	None	1
1.7	2015_Jul_23_1100	s	s	6	3	SIC	115	ABS	2	1	24VO	0	1	0.561070919037	None	None	None	None	1
1.7	2015_Jul_23_1100	s	s	6	3	SIC	116	ABS	1	0	24MC	0	1	1.336165905	None	None	None	None	1
1.7	2015_Jul_23_1100	s	s	6	3	SIC	117	ABS	2	0	24VC	0	1	0.546928882599	None	None	None	None	1
1.7	2015_Jul_23_1100	s	s	6	3	SIC	118	RC	1	0	23MC	0	1	1.39642190933	424.0	380.0	None	None	0
1.7	2015_Jul_23_1100	s	s	6	3	SIC	119	RC	1	2	23MD	1	0	0.52906703949	301.0	-91.0	307	-100	1
1.7	2015_Jul_23_1100	s	s	6	3	SIC	120	ABS	1	1	24MO	0	1	0.615062952042	None	None	None	None	1
1.7	2015_Jul_23_1100	s	s	6	3	SIC	121	RC	0	2	23RD	1	0	0.682090997696	214.0	-257.0	211	-249	1
1.7	2015_Jul_23_1100	s	s	6	3	SIC	122	RC	0	1	23RO	0	1	1.37646102905	-141.0	-166.0	None	None	0
1.7	2015_Jul_23_1100	s	s	6	3	SIC	123	RC	1	1	23MO	1	0	1.97162699699	260.0	-315.0	257	-310	1
1.7	2015_Jul_23_1100	s	s	6	3	SIC	124	ABS	2	2	24VD	0	1	0.524298191071	None	None	None	None	1
1.7	2015_Jul_23_1100	s	s	6	3	SIC	125	ABS	0	1	24RO	0	1	1.09036302567	None	None	None	None	1
1.7	2015_Jul_23_1100	s	s	6	3	SIC	126	RC	2	2	23VD	1	0	0.52392411232	430.0	75.0	431	74	1
1.7	2015_Jul_23_1100	s	s	6	3	SIC	127	ABS	1	2	24MD	0	1	0.552576065063	None	None	None	None	1
1.7	2015_Jul_23_1100	s	s	6	3	SIC	128	RC	2	1	23VO	1	0	0.512373924255	-526.0	164.0	-523	167	1
1.7	2015_Jul_23_1100	s	s	6	3	SIC	129	ABS	0	2	24RD	0	1	0.526267051697	None	None	None	None	1
1.7	2015_Jul_23_1100	s	s	6	3	SIC	130	ABS	2	2	24VD	1	0	0.488226890564	None	None	1	66	0
1.7	2015_Jul_23_1100	s	s	6	3	SIC	131	RC	2	2	23VD	1	0	0.76439499855	-196.0	400.0	-207	408	1
1.7	2015_Jul_23_1100	s	s	6	3	SIC	132	ABS	1	1	24MO	0	1	0.888906955719	None	None	None	None	1
1.7	2015_Jul_23_1100	s	s	6	3	SIC	133	ABS	1	0	24MC	0	1	1.50600910187	None	None	None	None	1
1.7	2015_Jul_23_1100	s	s	6	3	SIC	134	ABS	0	1	24RO	0	1	1.03518414497	None	None	None	None	1
1.7	2015_Jul_23_1100	s	s	6	3	SIC	135	RC	1	0	23MC	1	0	1.11247396469	311.0	-221.0	307	-221	1
1.7	2015_Jul_23_1100	s	s	6	3	SIC	136	RC	0	1	23RO	1	0	1.28232884407	-164.0	249.0	-173	253	1
1.7	2015_Jul_23_1100	s	s	6	3	SIC	137	RC	1	2	23MD	1	0	0.481949090958	81.0	-242.0	74	-244	1
1.7	2015_Jul_23_1100	s	s	6	3	SIC	138	RC	0	2	23RD	1	0	0.623160123825	-261.0	-316.0	-251	-314	1
1.7	2015_Jul_23_1100	s	s	6	3	SIC	139	RC	2	0	23VC	1	0	0.500355958939	160.0	40.0	159	36	1
1.7	2015_Jul_23_1100	s	s	6	3	SIC	140	RC	2	1	23VO	1	0	0.411403179169	-7.0	-321.0	-8	-322	1
1.7	2015_Jul_23_1100	s	s	6	3	SIC	141	ABS	2	0	24VC	0	1	0.91752409935	None	None	None	None	1
1.7	2015_Jul_23_1100	s	s	6	3	SIC	142	RC	1	1	23MO	1	0	0.66382598877	375.0	-42.0	380	-44	1
1.7	2015_Jul_23_1100	s	s	6	3	SIC	143	ABS	1	2	24MD	0	1	0.870405912399	None	None	None	None	1
1.7	2015_Jul_23_1100	s	s	6	3	SIC	144	ABS	2	1	24VO	0	1	0.618276834488	None	None	None	None	1
1.7	2015_Jul_23_1100	s	s	6	3	SIC	145	RC	2	0	23VC	1	0	0.846848011017	496.0	-228.0	494	-230	1
1.7	2015_Jul_23_1100	s	s	6	3	SIC	146	ABS	1	1	24MO	0	1	0.855468034744	None	None	None	None	1
1.7	2015_Jul_23_1100	s	s	6	3	SIC	147	RC	1	1	23MO	1	0	0.910997867584	-51.0	-315.0	-40	-315	1
1.7	2015_Jul_23_1100	s	s	6	3	SIC	148	RC	1	2	23MD	1	0	0.606235027313	480.0	-112.0	468	-107	1
1.7	2015_Jul_23_1100	s	s	6	3	SIC	149	ABS	1	2	24MD	0	1	0.576173782349	None	None	None	None	1
1.7	2015_Jul_23_1100	s	s	6	3	SIC	150	RC	0	1	23RO	1	0	1.36477303505	288.0	-55.0	286	-59	1
1.7	2015_Jul_23_1100	s	s	6	3	SIC	151	RC	0	2	23RD	1	0	0.54737496376	-438.0	-155.0	-427	-151	1
1.7	2015_Jul_23_1100	s	s	6	3	SIC	152	ABS	0	2	24RD	0	1	1.00674796104	None	None	None	None	1
1.7	2015_Jul_23_1100	s	s	6	3	SIC	153	RC	2	1	23VO	1	0	0.473914861679	-420.0	291.0	-418	288	1
1.7	2015_Jul_23_1100	s	s	6	3	SIC	154	ABS	2	0	24VC	0	1	0.46204996109	None	None	None	None	1
1.7	2015_Jul_23_1100	s	s	6	3	SIC	155	RC	1	0	23MC	1	0	0.865537881851	-200.0	-300.0	-11	-78	0
1.7	2015_Jul_23_1100	s	s	6	3	SIC	156	ABS	2	2	24VD	0	1	0.481985807419	None	None	None	None	1
1.7	2015_Jul_23_1100	s	s	6	3	SIC	157	ABS	0	1	24RO	0	1	1.64371705055	None	None	None	None	1
1.7	2015_Jul_23_1100	s	s	6	3	SIC	158	ABS	1	0	24MC	0	1	2.73012304306	None	None	None	None	1
1.7	2015_Jul_23_1100	s	s	6	3	SIC	159	ABS	2	1	24VO	0	1	0.611572027206	None	None	None	None	1
1.7	2015_Jul_23_1100	s	s	6	3	SIC	160	RC	2	2	23VD	1	0	0.794941902161	492.0	-392.0	498	-390	1
1.7	2015_Jul_23_1100	s	s	6	3	SIC	161	RC	2	2	23VD	1	0	0.411300897598	-35.0	241.0	-24	247	1
1.7	2015_Jul_23_1100	s	s	6	3	SIC	162	RC	1	2	23MD	1	0	0.670215129852	351.0	-386.0	354	-379	1
1.7	2015_Jul_23_1100	s	s	6	3	SIC	163	ABS	0	2	24RD	0	1	0.81155705452	None	None	None	None	1
1.7	2015_Jul_23_1100	s	s	6	3	SIC	164	RC	1	1	23MO	0	1	0.980825185776	-212.0	-115.0	None	None	0
1.7	2015_Jul_23_1100	s	s	6	3	SIC	165	RC	0	1	23RO	0	1	0.764467954636	298.0	237.0	None	None	0
1.7	2015_Jul_23_1100	s	s	6	3	SIC	166	RC	1	0	23MC	1	0	0.929271936417	514.0	-206.0	522	-209	1
1.7	2015_Jul_23_1100	s	s	6	3	SIC	167	ABS	2	0	24VC	0	1	0.488733053207	None	None	None	None	1
1.7	2015_Jul_23_1100	s	s	6	3	SIC	168	ABS	2	1	24VO	0	1	0.505836963654	None	None	None	None	1
1.7	2015_Jul_23_1100	s	s	6	3	SIC	169	ABS	1	1	24MO	0	1	0.677160978317	None	None	None	None	1
1.7	2015_Jul_23_1100	s	s	6	3	SIC	170	ABS	1	2	24MD	0	1	0.693740844727	None	None	None	None	1
1.7	2015_Jul_23_1100	s	s	6	3	SIC	171	ABS	0	1	24RO	0	1	2.62112188339	None	None	None	None	1
1.7	2015_Jul_23_1100	s	s	6	3	SIC	172	RC	2	0	23VC	1	0	0.51233291626	-352.0	386.0	-348	379	1
1.7	2015_Jul_23_1100	s	s	6	3	SIC	173	ABS	2	2	24VD	0	1	0.453799962997	None	None	None	None	1
1.7	2015_Jul_23_1100	s	s	6	3	SIC	174	RC	2	1	23VO	1	0	0.678699970245	194.0	404.0	193	398	1
1.7	2015_Jul_23_1100	s	s	6	3	SIC	175	RC	0	2	23RD	1	0	0.481889009476	111.0	-246.0	111	-241	1
1.7	2015_Jul_23_1100	s	s	6	3	SIC	176	ABS	1	0	24MC	1	0	0.47013092041	None	None	31	-8	0
1.7	2015_Jul_23_1100	s	s	6	3	SIC	177	RC	1	1	23MO	1	0	0.952798128128	270.0	-88.0	270	-89	1
1.7	2015_Jul_23_1100	s	s	6	3	SIC	178	RC	0	1	23RO	1	0	1.14693689346	-172.0	-15.0	-167	-16	1
1.7	2015_Jul_23_1100	s	s	6	3	SIC	179	RC	0	2	23RD	1	0	0.440905094147	376.0	-282.0	371	-287	1
1.7	2015_Jul_23_1100	s	s	6	3	SIC	180	RC	2	0	23VC	1	0	0.505539894104	472.0	312.0	466	305	1
1.7	2015_Jul_23_1100	s	s	6	3	SIC	181	ABS	0	2	24RD	0	1	0.796861886978	None	None	None	None	1
1.7	2015_Jul_23_1100	s	s	6	3	SIC	182	ABS	2	2	24VD	0	1	0.788028001785	None	None	None	None	1
1.7	2015_Jul_23_1100	s	s	6	3	SIC	183	RC	1	0	23MC	1	0	0.99467587471	-140.0	-346.0	-155	5	0
1.7	2015_Jul_23_1100	s	s	6	3	SIC	184	ABS	1	2	24MD	0	1	0.623173952103	None	None	None	None	1
1.7	2015_Jul_23_1100	s	s	6	3	SIC	185	ABS	2	0	24VC	0	1	0.618746042252	None	None	None	None	1
1.7	2015_Jul_23_1100	s	s	6	3	SIC	186	ABS	0	1	24RO	0	1	1.69434213638	None	None	None	None	1
1.7	2015_Jul_23_1100	s	s	6	3	SIC	187	ABS	1	1	24MO	0	1	1.47967004776	None	None	None	None	1
1.7	2015_Jul_23_1100	s	s	6	3	SIC	188	ABS	1	0	24MC	0	1	1.85608196259	None	None	None	None	1
1.7	2015_Jul_23_1100	s	s	6	3	SIC	189	RC	1	2	23MD	1	0	0.740941047668	-516.0	372.0	-517	374	1
1.7	2015_Jul_23_1100	s	s	6	3	SIC	190	RC	2	2	23VD	1	0	0.423094034195	104.0	-207.0	98	-205	1
1.7	2015_Jul_23_1100	s	s	6	3	SIC	191	ABS	2	1	24VO	0	1	0.829617977142	None	None	None	None	1
1.7	2015_Jul_23_1100	s	s	6	3	SIC	192	RC	2	1	23VO	1	0	0.458423137665	94.0	183.0	94	180	1
1.7	2015_Jul_23_1100	s	s	6	3	SIC	193	ABS	1	1	24MO	0	1	2.90093803406	None	None	None	None	1
1.7	2015_Jul_23_1100	s	s	6	3	SIC	194	ABS	1	2	24MD	0	1	0.823174953461	None	None	None	None	1
1.7	2015_Jul_23_1100	s	s	6	3	SIC	195	ABS	2	1	24VO	0	1	0.949652910233	None	None	None	None	1
1.7	2015_Jul_23_1100	s	s	6	3	SIC	196	RC	0	1	23RO	0	1	1.32431912422	-208.0	302.0	None	None	0
1.7	2015_Jul_23_1100	s	s	6	3	SIC	197	ABS	2	0	24VC	0	1	0.505500078201	None	None	None	None	1
1.7	2015_Jul_23_1100	s	s	6	3	SIC	198	RC	2	2	23VD	1	0	0.811585187912	13.0	246.0	6	253	1
1.7	2015_Jul_23_1100	s	s	6	3	SIC	199	RC	2	1	23VO	1	0	0.500195980072	-303.0	297.0	-298	288	1
1.7	2015_Jul_23_1100	s	s	6	3	SIC	200	ABS	0	1	24RO	0	1	2.07948923111	None	None	None	None	1
1.7	2015_Jul_23_1100	s	s	6	3	SIC	201	ABS	2	2	24VD	0	1	0.399610996246	None	None	None	None	1
1.7	2015_Jul_23_1100	s	s	6	3	SIC	202	RC	2	0	23VC	1	0	0.559271097183	525.0	-384.0	523	-380	1
1.7	2015_Jul_23_1100	s	s	6	3	SIC	203	RC	0	2	23RD	1	0	0.419764995575	99.0	27.0	92	22	1
1.7	2015_Jul_23_1100	s	s	6	3	SIC	204	RC	1	1	23MO	1	0	0.524123191833	-294.0	-32.0	-294	-37	1
1.7	2015_Jul_23_1100	s	s	6	3	SIC	205	ABS	0	2	24RD	0	1	0.811546087265	None	None	None	None	1
1.7	2015_Jul_23_1100	s	s	6	3	SIC	206	RC	1	0	23MC	1	0	2.40988087654	352.0	-268.0	349	-262	1
1.7	2015_Jul_23_1100	s	s	6	3	SIC	207	ABS	1	0	24MC	1	0	0.632265090942	None	None	186	59	0
1.7	2015_Jul_23_1100	s	s	6	3	SIC	208	RC	1	2	23MD	1	0	0.45849108696	-292.0	-98.0	-284	-93	1
1.7	2015_Jul_23_1100	s	s	6	3	SIC	209	RC	1	2	23MD	1	0	0.561383962631	-371.0	-218.0	-374	-214	1
1.7	2015_Jul_23_1100	s	s	6	3	SIC	210	ABS	1	1	24MO	0	1	1.42090201378	None	None	None	None	1
1.7	2015_Jul_23_1100	s	s	6	3	SIC	211	RC	0	2	23RD	1	0	0.488703012466	-69.0	-395.0	-71	-397	1
1.7	2015_Jul_23_1100	s	s	6	3	SIC	212	ABS	2	0	24VC	1	0	0.634987831116	None	None	-32	-4	0
1.7	2015_Jul_23_1100	s	s	6	3	SIC	213	ABS	2	2	24VD	0	1	0.523095846176	None	None	None	None	1
1.7	2015_Jul_23_1100	s	s	6	3	SIC	214	ABS	2	1	24VO	0	1	0.552627086639	None	None	None	None	1
1.7	2015_Jul_23_1100	s	s	6	3	SIC	215	RC	1	0	23MC	1	0	0.505525827408	122.0	55.0	127	58	1
1.7	2015_Jul_23_1100	s	s	6	3	SIC	216	RC	2	1	23VO	1	0	0.623234033585	397.0	-216.0	389	-212	1
1.7	2015_Jul_23_1100	s	s	6	3	SIC	217	ABS	0	2	24RD	0	1	0.885756015778	None	None	None	None	1
1.7	2015_Jul_23_1100	s	s	6	3	SIC	218	ABS	1	2	24MD	0	1	0.635085105896	None	None	None	None	1
1.7	2015_Jul_23_1100	s	s	6	3	SIC	219	ABS	1	0	24MC	1	0	1.0350818634	None	None	146	57	0
1.7	2015_Jul_23_1100	s	s	6	3	SIC	220	RC	2	2	23VD	1	0	0.564383029938	394.0	60.0	397	54	1
1.7	2015_Jul_23_1100	s	s	6	3	SIC	221	RC	0	1	23RO	0	1	3.23133397102	15.0	56.0	None	None	0
1.7	2015_Jul_23_1100	s	s	6	3	SIC	222	RC	2	0	23VC	0	1	0.44166302681	524.0	-78.0	None	None	0
1.7	2015_Jul_23_1100	s	s	6	3	SIC	223	ABS	0	1	24RO	0	1	1.94148206711	None	None	None	None	1
1.7	2015_Jul_23_1100	s	s	6	3	SIC	224	RC	1	1	23MO	1	0	1.50602889061	-317.0	64.0	-309	66	1
1.7	2015_Jul_23_1100	s	s	6	3	SIC	225	RC	0	2	23RD	1	0	0.505497932434	-429.0	-347.0	-425	-341	1
1.7	2015_Jul_23_1100	s	s	6	3	SIC	226	RC	1	0	23MC	1	0	0.882117033005	379.0	375.0	380	378	1
1.7	2015_Jul_23_1100	s	s	6	3	SIC	227	RC	2	2	23VD	1	0	0.570965051651	-538.0	-151.0	-548	-145	1
1.7	2015_Jul_23_1100	s	s	6	3	SIC	228	ABS	0	2	24RD	0	1	0.759892940521	None	None	None	None	1
1.7	2015_Jul_23_1100	s	s	6	3	SIC	229	RC	1	2	23MD	1	0	0.82329416275	-415.0	190.0	-410	189	1
1.7	2015_Jul_23_1100	s	s	6	3	SIC	230	ABS	1	2	24MD	0	1	0.682059049606	None	None	None	None	1
1.7	2015_Jul_23_1100	s	s	6	3	SIC	231	ABS	1	0	24MC	0	1	1.38832211494	None	None	None	None	1
1.7	2015_Jul_23_1100	s	s	6	3	SIC	232	ABS	2	2	24VD	0	1	0.465332984924	None	None	None	None	1
1.7	2015_Jul_23_1100	s	s	6	3	SIC	233	ABS	1	1	24MO	0	1	1.38335490227	None	None	None	None	1
1.7	2015_Jul_23_1100	s	s	6	3	SIC	234	RC	1	1	23MO	1	0	0.876857995987	-386.0	-321.0	-385	-318	1
1.7	2015_Jul_23_1100	s	s	6	3	SIC	235	RC	2	1	23VO	1	0	0.511440038681	-270.0	229.0	-265	230	1
1.7	2015_Jul_23_1100	s	s	6	3	SIC	236	ABS	2	0	24VC	0	1	0.481977939606	None	None	None	None	1
1.7	2015_Jul_23_1100	s	s	6	3	SIC	237	ABS	2	1	24VO	0	1	0.929198980331	None	None	None	None	1
1.7	2015_Jul_23_1100	s	s	6	3	SIC	238	RC	2	0	23VC	1	0	0.488430976868	-272.0	-320.0	-275	-322	1
1.7	2015_Jul_23_1100	s	s	6	3	SIC	239	ABS	0	1	24RO	0	1	2.22398304939	None	None	None	None	1
1.7	2015_Jul_23_1100	s	s	6	3	SIC	240	RC	0	1	23RO	0	1	2.70659899712	-261.0	-17.0	None	None	0
1.7	2015_Jul_23_1100	s	s	6	3	SIC	241	RC	1	0	23MC	0	1	0.772670984268	-238.0	298.0	None	None	0
1.7	2015_Jul_23_1100	s	s	6	3	SIC	242	ABS	2	2	24VD	0	1	0.69378900528	None	None	None	None	1
1.7	2015_Jul_23_1100	s	s	6	3	SIC	243	RC	0	2	23RD	1	0	0.619981050491	-22.0	217.0	-24	215	1
1.7	2015_Jul_23_1100	s	s	6	3	SIC	244	ABS	1	1	24MO	0	1	2.8662981987	None	None	None	None	1
1.7	2015_Jul_23_1100	s	s	6	3	SIC	245	RC	2	2	23VD	1	0	0.411305904388	47.0	65.0	47	59	1
1.7	2015_Jul_23_1100	s	s	6	3	SIC	246	RC	1	2	23MD	1	0	0.512494087219	-131.0	280.0	-133	269	1
1.7	2015_Jul_23_1100	s	s	6	3	SIC	247	RC	0	1	23RO	0	1	0.983102083206	254.0	367.0	None	None	0
1.7	2015_Jul_23_1100	s	s	6	3	SIC	248	ABS	1	0	24MC	1	0	0.787961959839	None	None	83	9	0
1.7	2015_Jul_23_1100	s	s	6	3	SIC	249	ABS	1	2	24MD	0	1	0.882107019424	None	None	None	None	1
1.7	2015_Jul_23_1100	s	s	6	3	SIC	250	ABS	0	1	24RO	0	1	1.54139208794	None	None	None	None	1
1.7	2015_Jul_23_1100	s	s	6	3	SIC	251	RC	1	1	23MO	1	0	1.37163305283	-251.0	-243.0	-250	-237	1
1.7	2015_Jul_23_1100	s	s	6	3	SIC	252	ABS	2	0	24VC	0	1	0.568027019501	None	None	None	None	1
1.7	2015_Jul_23_1100	s	s	6	3	SIC	253	ABS	0	2	24RD	0	1	1.15640616417	None	None	None	None	1
1.7	2015_Jul_23_1100	s	s	6	3	SIC	254	RC	2	1	23VO	1	0	0.571275949478	327.0	403.0	327	393	1
1.7	2015_Jul_23_1100	s	s	6	3	SIC	255	RC	2	0	23VC	1	0	0.417819023132	8.0	238.0	-3	238	1
1.7	2015_Jul_23_1100	s	s	6	3	SIC	256	ABS	2	1	24VO	0	1	0.670288085938	None	None	None	None	1
1.7	2015_Jul_23_1100	s	s	6	3	SIC	257	RC	2	0	23VC	1	0	0.700115919113	505.0	-241.0	499	-232	1
1.7	2015_Jul_23_1100	s	s	6	3	SIC	258	ABS	0	1	24RO	1	0	1.11759185791	None	None	59	127	0
1.7	2015_Jul_23_1100	s	s	6	3	SIC	259	RC	1	0	23MC	0	1	0.91172003746	431.0	-399.0	None	None	0
1.7	2015_Jul_23_1100	s	s	6	3	SIC	260	ABS	0	2	24RD	0	1	0.641704082489	None	None	None	None	1
1.7	2015_Jul_23_1100	s	s	6	3	SIC	261	ABS	2	0	24VC	0	1	0.540894985199	None	None	None	None	1
1.7	2015_Jul_23_1100	s	s	6	3	SIC	262	RC	1	2	23MD	1	0	0.523979902267	348.0	86.0	353	85	1
1.7	2015_Jul_23_1100	s	s	6	3	SIC	263	ABS	2	1	24VO	0	1	0.794683933258	None	None	None	None	1
1.7	2015_Jul_23_1100	s	s	6	3	SIC	264	RC	2	1	23VO	1	0	0.470150947571	-185.0	-109.0	-176	-105	1
1.7	2015_Jul_23_1100	s	s	6	3	SIC	265	RC	0	2	23RD	1	0	0.841974973679	-26.0	-363.0	-21	-370	1
1.7	2015_Jul_23_1100	s	s	6	3	SIC	266	RC	1	1	23MO	1	0	0.788019895554	257.0	-382.0	264	-383	1
1.7	2015_Jul_23_1100	s	s	6	3	SIC	267	ABS	1	2	24MD	0	1	0.582808017731	None	None	None	None	1
1.7	2015_Jul_23_1100	s	s	6	3	SIC	268	RC	2	2	23VD	1	0	0.470149040222	-263.0	310.0	-262	311	1
1.7	2015_Jul_23_1100	s	s	6	3	SIC	269	ABS	2	2	24VD	0	1	0.446659088135	None	None	None	None	1
1.7	2015_Jul_23_1100	s	s	6	3	SIC	270	ABS	1	1	24MO	0	1	3.13839793205	None	None	None	None	1
1.7	2015_Jul_23_1100	s	s	6	3	SIC	271	ABS	1	0	24MC	0	1	1.97682404518	None	None	None	None	1
1.7	2015_Jul_23_1100	s	s	6	3	SIC	272	RC	0	1	23RO	0	1	6.57420277596	128.0	48.0	None	None	0
1.7	2015_Jul_23_1100	s	s	6	3	SIC	273	RC	2	2	23VD	1	0	0.594686985016	425.0	371.0	417	368	1
1.7	2015_Jul_23_1100	s	s	6	3	SIC	274	ABS	2	0	24VC	0	1	0.606416940689	None	None	None	None	1
1.7	2015_Jul_23_1100	s	s	6	3	SIC	275	RC	0	1	23RO	1	0	4.3190908432	289.0	-126.0	290	-128	1
1.7	2015_Jul_23_1100	s	s	6	3	SIC	276	RC	0	2	23RD	1	0	0.464271068573	238.0	-29.0	231	-32	1
1.7	2015_Jul_23_1100	s	s	6	3	SIC	277	ABS	0	2	24RD	0	1	1.04693293571	None	None	None	None	1
1.7	2015_Jul_23_1100	s	s	6	3	SIC	278	RC	1	0	23MC	1	0	3.71887803078	507.0	-152.0	500	-156	1
1.7	2015_Jul_23_1100	s	s	6	3	SIC	279	RC	1	1	23MO	1	0	0.841681957245	297.0	264.0	300	257	1
1.7	2015_Jul_23_1100	s	s	6	3	SIC	280	ABS	1	2	24MD	0	1	0.682157993317	None	None	None	None	1
1.7	2015_Jul_23_1100	s	s	6	3	SIC	281	ABS	2	2	24VD	0	1	0.485697031021	None	None	None	None	1
1.7	2015_Jul_23_1100	s	s	6	3	SIC	282	RC	2	0	23VC	1	0	0.47712802887	113.0	136.0	122	134	1
1.7	2015_Jul_23_1100	s	s	6	3	SIC	283	ABS	1	0	24MC	0	1	1.62369918823	None	None	None	None	1
1.7	2015_Jul_23_1100	s	s	6	3	SIC	284	RC	2	1	23VO	1	0	0.702771902084	-158.0	385.0	-160	377	1
1.7	2015_Jul_23_1100	s	s	6	3	SIC	285	ABS	2	1	24VO	0	1	0.571202039719	None	None	None	None	1
1.7	2015_Jul_23_1100	s	s	6	3	SIC	286	ABS	0	1	24RO	0	1	1.94834518433	None	None	None	None	1
1.7	2015_Jul_23_1100	s	s	6	3	SIC	287	ABS	1	1	24MO	0	1	0.584447145462	None	None	None	None	1
1.7	2015_Jul_23_1100	s	s	6	3	SIC	288	RC	1	2	23MD	1	0	0.53572010994	332.0	256.0	340	263	1
1.7	2015_Jul_23_1100	s	s	6	3	SIC	289	ABS	2	1	24VO	0	1	0.858664989471	None	None	None	None	1
1.7	2015_Jul_23_1100	s	s	6	3	SIC	290	RC	2	0	23VC	1	0	0.514418125153	165.0	-273.0	158	-275	1
1.7	2015_Jul_23_1100	s	s	6	3	SIC	291	RC	1	1	23MO	1	0	0.794836044312	200.0	175.0	196	176	1
1.7	2015_Jul_23_1100	s	s	6	3	SIC	292	RC	1	2	23MD	1	0	0.658560991287	-160.0	-274.0	-157	-265	1
1.7	2015_Jul_23_1100	s	s	6	3	SIC	293	RC	1	0	23MC	0	1	1.23530292511	-127.0	382.0	None	None	0
1.7	2015_Jul_23_1100	s	s	6	3	SIC	294	RC	0	2	23RD	1	0	0.458492040634	338.0	-108.0	332	-102	1
1.7	2015_Jul_23_1100	s	s	6	3	SIC	295	ABS	1	2	24MD	0	1	0.606297016144	None	None	None	None	1
1.7	2015_Jul_23_1100	s	s	6	3	SIC	296	RC	2	2	23VD	1	0	0.446625947952	4.0	261.0	0	259	1
1.7	2015_Jul_23_1100	s	s	6	3	SIC	297	ABS	1	1	24MO	0	1	3.24310207367	None	None	None	None	1
1.7	2015_Jul_23_1100	s	s	6	3	SIC	298	RC	2	1	23VO	1	0	0.479171037674	-1.0	245.0	-2	239	1
1.7	2015_Jul_23_1100	s	s	6	3	SIC	299	ABS	2	0	24VC	0	1	0.623154878616	None	None	None	None	1
1.7	2015_Jul_23_1100	s	s	6	3	SIC	300	ABS	0	1	24RO	1	0	0.835016965866	None	None	293	76	0
1.7	2015_Jul_23_1100	s	s	6	3	SIC	301	RC	0	1	23RO	0	1	1.21177196503	211.0	-140.0	None	None	0
1.7	2015_Jul_23_1100	s	s	6	3	SIC	302	ABS	0	2	24RD	0	1	0.500612020493	None	None	None	None	1
1.7	2015_Jul_23_1100	s	s	6	3	SIC	303	ABS	1	0	24MC	0	1	0.830044984818	None	None	None	None	1
1.7	2015_Jul_23_1100	s	s	6	3	SIC	304	ABS	2	2	24VD	0	1	0.470173835754	None	None	None	None	1
1.7	2015_Jul_23_1100	s	s	6	3	SIC	305	RC	1	1	23MO	1	0	1.12429904938	-260.0	-293.0	-256	-290	1
1.7	2015_Jul_23_1100	s	s	6	3	SIC	306	RC	0	2	23RD	1	0	0.582959890366	-54.0	-261.0	-60	-263	1
1.7	2015_Jul_23_1100	s	s	6	3	SIC	307	ABS	2	1	24VO	1	0	0.465105056763	None	None	-18	142	0
1.7	2015_Jul_23_1100	s	s	6	3	SIC	308	ABS	2	2	24VD	0	1	1.68976402283	None	None	None	None	1
1.7	2015_Jul_23_1100	s	s	6	3	SIC	309	RC	0	1	23RO	1	0	2.25926303864	-226.0	-150.0	-225	-153	1
1.7	2015_Jul_23_1100	s	s	6	3	SIC	310	RC	1	2	23MD	0	1	0.441693067551	-496.0	-153.0	None	None	0
1.7	2015_Jul_23_1100	s	s	6	3	SIC	311	ABS	0	2	24RD	0	1	0.629282951355	None	None	None	None	1
1.7	2015_Jul_23_1100	s	s	6	3	SIC	312	ABS	0	1	24RO	0	1	1.15284585953	None	None	None	None	1
1.7	2015_Jul_23_1100	s	s	6	3	SIC	313	ABS	1	0	24MC	0	1	0.532811880112	None	None	None	None	1
1.7	2015_Jul_23_1100	s	s	6	3	SIC	314	RC	1	0	23MC	1	0	0.811597108841	258.0	267.0	261	265	1
1.7	2015_Jul_23_1100	s	s	6	3	SIC	315	ABS	2	0	24VC	0	1	0.547628879547	None	None	None	None	1
1.7	2015_Jul_23_1100	s	s	6	3	SIC	316	ABS	1	1	24MO	0	1	0.665837049484	None	None	None	None	1
1.7	2015_Jul_23_1100	s	s	6	3	SIC	317	RC	2	2	23VD	1	0	0.738116979599	-524.0	277.0	-523	275	1
1.7	2015_Jul_23_1100	s	s	6	3	SIC	318	ABS	1	2	24MD	0	1	0.540777921677	None	None	None	None	1
1.7	2015_Jul_23_1100	s	s	6	3	SIC	319	RC	2	0	23VC	1	0	0.536573886871	294.0	138.0	294	140	1
1.7	2015_Jul_23_1100	s	s	6	3	SIC	320	RC	2	1	23VO	1	0	0.453224897385	232.0	250.0	225	252	1
1.7	2015_Jul_23_1100	s	s	6	3	SIC	321	RC	2	0	23VC	1	0	0.42973613739	-349.0	-196.0	-351	-191	1
1.7	2015_Jul_23_1100	s	s	6	3	SIC	322	RC	2	1	23VO	1	0	0.465183973312	-241.0	-18.0	-241	-16	1
1.7	2015_Jul_23_1100	s	s	6	3	SIC	323	RC	0	2	23RD	1	0	0.411296129227	-339.0	-281.0	-343	-276	1
1.7	2015_Jul_23_1100	s	s	6	3	SIC	324	ABS	0	1	24RO	0	1	4.56640100479	None	None	None	None	1
1.7	2015_Jul_23_1100	s	s	6	3	SIC	325	ABS	1	0	24MC	0	1	1.04172301292	None	None	None	None	1
1.7	2015_Jul_23_1100	s	s	6	3	SIC	326	RC	2	2	23VD	1	0	0.465179920197	53.0	128.0	54	128	1
1.7	2015_Jul_23_1100	s	s	6	3	SIC	327	RC	1	0	23MC	1	0	0.729106903076	84.0	162.0	79	160	1
1.7	2015_Jul_23_1100	s	s	6	3	SIC	328	ABS	0	2	24RD	0	1	0.717380046844	None	None	None	None	1
1.7	2015_Jul_23_1100	s	s	6	3	SIC	329	ABS	1	2	24MD	0	1	0.488814115524	None	None	None	None	1
1.7	2015_Jul_23_1100	s	s	6	3	SIC	330	RC	1	1	23MO	0	1	1.23531222343	-495.0	-185.0	None	None	0
1.7	2015_Jul_23_1100	s	s	6	3	SIC	331	ABS	2	2	24VD	0	1	0.564344882965	None	None	None	None	1
1.7	2015_Jul_23_1100	s	s	6	3	SIC	332	RC	1	2	23MD	1	0	0.537196874619	-117.0	95.0	-112	94	1
1.7	2015_Jul_23_1100	s	s	6	3	SIC	333	ABS	2	0	24VC	0	1	0.464968919754	None	None	None	None	1
1.7	2015_Jul_23_1100	s	s	6	3	SIC	334	ABS	2	1	24VO	0	1	0.470249891281	None	None	None	None	1
1.7	2015_Jul_23_1100	s	s	6	3	SIC	335	RC	0	1	23RO	0	1	1.729585886	-403.0	-43.0	None	None	0
1.7	2015_Jul_23_1100	s	s	6	3	SIC	336	ABS	1	1	24MO	0	1	0.512211799622	None	None	None	None	1
1.7	2015_Jul_23_1100	s	s	6	3	SIC	337	ABS	2	2	24VD	0	1	0.254637956619	None	None	None	None	1
1.7	2015_Jul_23_1100	s	s	6	3	SIC	338	RC	0	1	23RO	0	1	0.681974887848	54.0	262.0	None	None	0
1.7	2015_Jul_23_1100	s	s	6	3	SIC	339	ABS	1	0	24MC	0	1	1.05877995491	None	None	None	None	1
1.7	2015_Jul_23_1100	s	s	6	3	SIC	340	RC	1	1	23MO	1	0	1.12932896614	-75.0	322.0	-74	325	1
1.7	2015_Jul_23_1100	s	s	6	3	SIC	341	ABS	2	1	24VO	0	1	0.512340068817	None	None	None	None	1
1.7	2015_Jul_23_1100	s	s	6	3	SIC	342	RC	2	0	23VC	1	0	0.493705034256	457.0	-128.0	451	-137	1
1.7	2015_Jul_23_1100	s	s	6	3	SIC	343	RC	1	0	23MC	1	0	3.83116006851	444.0	388.0	448	386	1
1.7	2015_Jul_23_1100	s	s	6	3	SIC	344	RC	2	1	23VO	1	0	0.66660785675	472.0	262.0	480	268	1
1.7	2015_Jul_23_1100	s	s	6	3	SIC	345	ABS	0	2	24RD	0	1	0.737890958786	None	None	None	None	1
1.7	2015_Jul_23_1100	s	s	6	3	SIC	346	ABS	1	2	24MD	0	1	0.902962207794	None	None	None	None	1
1.7	2015_Jul_23_1100	s	s	6	3	SIC	347	ABS	0	1	24RO	0	1	0.794497966766	None	None	None	None	1
1.7	2015_Jul_23_1100	s	s	6	3	SIC	348	RC	0	2	23RD	1	0	0.717381000519	-249.0	45.0	-242	42	1
1.7	2015_Jul_23_1100	s	s	6	3	SIC	349	ABS	2	0	24VC	0	1	0.693814992905	None	None	None	None	1
1.7	2015_Jul_23_1100	s	s	6	3	SIC	350	ABS	1	1	24MO	0	1	1.37650299072	None	None	None	None	1
1.7	2015_Jul_23_1100	s	s	6	3	SIC	351	RC	2	2	23VD	1	0	0.47020483017	483.0	-68.0	481	-61	1
1.7	2015_Jul_23_1100	s	s	6	3	SIC	352	RC	1	2	23MD	1	0	0.38284611702	-21.0	-55.0	-21	-68	1
1.7	2015_Jul_23_1100	s	s	6	3	SIC	353	RC	1	2	23MD	1	0	0.434925079346	35.0	-204.0	34	-203	1
1.7	2015_Jul_23_1100	s	s	6	3	SIC	354	ABS	1	1	24MO	0	1	0.740925073624	None	None	None	None	1
1.7	2015_Jul_23_1100	s	s	6	3	SIC	355	RC	1	0	23MC	1	0	2.34667897224	23.0	402.0	16	396	1
1.7	2015_Jul_23_1100	s	s	6	3	SIC	356	RC	1	1	23MO	1	0	0.670310020447	414.0	-140.0	410	-146	1
1.7	2015_Jul_23_1100	s	s	6	3	SIC	357	ABS	0	1	24RO	0	1	1.29420399666	None	None	None	None	1
1.7	2015_Jul_23_1100	s	s	6	3	SIC	358	RC	0	2	23RD	1	0	0.573318004608	442.0	-355.0	442	-362	1
1.7	2015_Jul_23_1100	s	s	6	3	SIC	359	ABS	0	2	24RD	0	1	0.634895086288	None	None	None	None	1
1.7	2015_Jul_23_1100	s	s	6	3	SIC	360	ABS	1	2	24MD	0	1	0.846894979477	None	None	None	None	1
1.7	2015_Jul_23_1100	s	s	6	3	SIC	361	RC	2	1	23VO	1	0	0.453073978424	-14.0	-289.0	-16	-285	1
1.7	2015_Jul_23_1100	s	s	6	3	SIC	362	ABS	2	0	24VC	0	1	0.776193141937	None	None	None	None	1
1.7	2015_Jul_23_1100	s	s	6	3	SIC	363	ABS	1	0	24MC	0	1	1.23052716255	None	None	None	None	1
1.7	2015_Jul_23_1100	s	s	6	3	SIC	364	RC	2	0	23VC	1	0	0.538338899612	55.0	-274.0	58	-284	1
1.7	2015_Jul_23_1100	s	s	6	3	SIC	365	RC	0	1	23RO	0	1	1.62962293625	-251.0	173.0	None	None	0
1.7	2015_Jul_23_1100	s	s	6	3	SIC	366	ABS	2	2	24VD	0	1	0.423089981079	None	None	None	None	1
1.7	2015_Jul_23_1100	s	s	6	3	SIC	367	ABS	2	1	24VO	0	1	0.611466169357	None	None	None	None	1
1.7	2015_Jul_23_1100	s	s	6	3	SIC	368	RC	2	2	23VD	1	0	0.499827861786	25.0	299.0	30	295	1
1.7	2015_Jul_23_1100	s	s	6	3	SIC	369	RC	2	0	23VC	1	0	0.523844957352	272.0	10.0	275	9	1
1.7	2015_Jul_23_1100	s	s	6	3	SIC	370	RC	0	1	23RO	0	1	2.91359996796	-519.0	-375.0	None	None	0
1.7	2015_Jul_23_1100	s	s	6	3	SIC	371	ABS	1	2	24MD	0	1	0.714444875717	None	None	None	None	1
1.7	2015_Jul_23_1100	s	s	6	3	SIC	372	ABS	1	1	24MO	0	1	0.653476953506	None	None	None	None	1
1.7	2015_Jul_23_1100	s	s	6	3	SIC	373	RC	1	2	23MD	1	0	0.926360845566	-377.0	-73.0	-387	-73	1
1.7	2015_Jul_23_1100	s	s	6	3	SIC	374	ABS	1	0	24MC	0	1	0.91775393486	None	None	None	None	1
1.7	2015_Jul_23_1100	s	s	6	3	SIC	375	RC	2	1	23VO	1	0	0.493641138077	367.0	193.0	368	191	1
1.7	2015_Jul_23_1100	s	s	6	3	SIC	376	RC	0	2	23RD	1	0	0.58790397644	-193.0	-168.0	-196	-167	1
1.7	2015_Jul_23_1100	s	s	6	3	SIC	377	RC	2	2	23VD	1	0	0.405632019043	-396.0	-109.0	-389	-105	1
1.7	2015_Jul_23_1100	s	s	6	3	SIC	378	RC	1	0	23MC	0	1	0.799803972244	345.0	-187.0	None	None	0
1.7	2015_Jul_23_1100	s	s	6	3	SIC	379	ABS	2	0	24VC	0	1	0.584375143051	None	None	None	None	1
1.7	2015_Jul_23_1100	s	s	6	3	SIC	380	ABS	0	1	24RO	0	1	0.924080133438	None	None	None	None	1
1.7	2015_Jul_23_1100	s	s	6	3	SIC	381	RC	1	1	23MO	0	1	0.901961088181	436.0	411.0	None	None	0
1.7	2015_Jul_23_1100	s	s	6	3	SIC	382	ABS	2	1	24VO	0	1	0.512141942978	None	None	None	None	1
1.7	2015_Jul_23_1100	s	s	6	3	SIC	383	ABS	0	2	24RD	0	1	0.54084610939	None	None	None	None	1
1.7	2015_Jul_23_1100	s	s	6	3	SIC	384	ABS	2	2	24VD	0	1	0.384999036789	None	None	None	None	1
1.7	2015_Jul_23_1100	s	s	6	3	SIC	385	RC	2	2	23VD	1	0	0.587907075882	260.0	371.0	252	375	1
1.7	2015_Jul_23_1100	s	s	6	3	SIC	386	RC	1	2	23MD	1	0	0.505517959595	52.0	-387.0	59	-382	1
1.7	2015_Jul_23_1100	s	s	6	3	SIC	387	ABS	0	2	24RD	0	1	0.587818145752	None	None	None	None	1
1.7	2015_Jul_23_1100	s	s	6	3	SIC	388	ABS	2	1	24VO	0	1	0.64662194252	None	None	None	None	1
1.7	2015_Jul_23_1100	s	s	6	3	SIC	389	RC	0	1	23RO	1	0	0.976345062256	-458.0	-94.0	-464	-102	1
1.7	2015_Jul_23_1100	s	s	6	3	SIC	390	ABS	1	0	24MC	1	0	0.587874174118	None	None	62	-293	0
1.7	2015_Jul_23_1100	s	s	6	3	SIC	391	RC	1	1	23MO	1	0	1.80765199661	465.0	193.0	470	195	1
1.7	2015_Jul_23_1100	s	s	6	3	SIC	392	ABS	1	1	24MO	0	1	1.40006494522	None	None	None	None	1
1.7	2015_Jul_23_1100	s	s	6	3	SIC	393	RC	1	0	23MC	0	1	1.52520799637	-204.0	337.0	None	None	0
1.7	2015_Jul_23_1100	s	s	6	3	SIC	394	ABS	2	0	24VC	0	1	0.700505971909	None	None	None	None	1
1.7	2015_Jul_23_1100	s	s	6	3	SIC	395	ABS	0	1	24RO	0	1	1.43534779549	None	None	None	None	1
1.7	2015_Jul_23_1100	s	s	6	3	SIC	396	RC	2	1	23VO	1	0	0.576020956039	-220.0	-3.0	-214	-8	1
1.7	2015_Jul_23_1100	s	s	6	3	SIC	397	ABS	1	2	24MD	0	1	0.529227972031	None	None	None	None	1
1.7	2015_Jul_23_1100	s	s	6	3	SIC	398	RC	2	0	23VC	1	0	0.446609020233	12.0	1.0	8	7	1
1.7	2015_Jul_23_1100	s	s	6	3	SIC	399	RC	0	2	23RD	1	0	0.417346000671	27.0	1.0	26	-3	1
1.7	2015_Jul_23_1100	s	s	6	3	SIC	400	ABS	2	2	24VD	0	1	0.4231300354	None	None	None	None	1
1.7	2015_Jul_23_1100	s	s	6	3	SIC	401	ABS	0	1	24RO	0	1	1.00819921494	None	None	None	None	1
1.7	2015_Jul_23_1100	s	s	6	3	SIC	402	RC	2	1	23VO	1	0	0.418190956116	-167.0	-293.0	-167	-294	1
1.7	2015_Jul_23_1100	s	s	6	3	SIC	403	ABS	1	0	24MC	0	1	0.769272089005	None	None	None	None	1
1.7	2015_Jul_23_1100	s	s	6	3	SIC	404	RC	1	1	23MO	1	0	0.782811880112	-460.0	-72.0	-455	-72	1
1.7	2015_Jul_23_1100	s	s	6	3	SIC	405	RC	0	2	23RD	1	0	0.453371047974	127.0	263.0	132	256	1
1.7	2015_Jul_23_1100	s	s	6	3	SIC	406	ABS	2	0	24VC	0	1	0.587840080261	None	None	None	None	1
1.7	2015_Jul_23_1100	s	s	6	3	SIC	407	RC	1	0	23MC	1	0	0.682078123093	49.0	120.0	41	117	1
1.7	2015_Jul_23_1100	s	s	6	3	SIC	408	RC	0	1	23RO	0	1	0.818266868591	-341.0	-255.0	None	None	0
1.7	2015_Jul_23_1100	s	s	6	3	SIC	409	ABS	2	1	24VO	0	1	0.500993967056	None	None	None	None	1
1.7	2015_Jul_23_1100	s	s	6	3	SIC	410	RC	2	2	23VD	1	0	0.394984960556	-495.0	-66.0	-484	-65	1
1.7	2015_Jul_23_1100	s	s	6	3	SIC	411	RC	1	2	23MD	1	0	0.500545024872	-141.0	-125.0	-137	-123	1
1.7	2015_Jul_23_1100	s	s	6	3	SIC	412	ABS	1	1	24MO	0	1	0.980130910873	None	None	None	None	1
1.7	2015_Jul_23_1100	s	s	6	3	SIC	413	ABS	2	2	24VD	0	1	0.403216123581	None	None	None	None	1
1.7	2015_Jul_23_1100	s	s	6	3	SIC	414	ABS	0	2	24RD	0	1	0.540802001953	None	None	None	None	1
1.7	2015_Jul_23_1100	s	s	6	3	SIC	415	RC	2	0	23VC	1	0	0.435288906097	-20.0	-270.0	-13	-265	1
1.7	2015_Jul_23_1100	s	s	6	3	SIC	416	ABS	1	2	24MD	0	1	0.623229026794	None	None	None	None	1
1.7	2015_Jul_23_1100	s	s	6	3	SIC	417	RC	1	1	23MO	1	0	0.984369039536	-227.0	174.0	-224	166	1
1.7	2015_Jul_23_1100	s	s	6	3	SIC	418	RC	0	2	23RD	1	0	0.399594068527	427.0	-39.0	421	-42	1
1.7	2015_Jul_23_1100	s	s	6	3	SIC	419	ABS	0	1	24RO	0	1	0.808178186417	None	None	None	None	1
1.7	2015_Jul_23_1100	s	s	6	3	SIC	420	ABS	1	2	24MD	0	1	0.771104812622	None	None	None	None	1
1.7	2015_Jul_23_1100	s	s	6	3	SIC	421	ABS	0	2	24RD	0	1	0.576059103012	None	None	None	None	1
1.7	2015_Jul_23_1100	s	s	6	3	SIC	422	RC	1	0	23MC	1	0	1.07050204277	116.0	-372.0	120	-377	1
1.7	2015_Jul_23_1100	s	s	6	3	SIC	423	RC	2	0	23VC	1	0	0.394716024399	199.0	28.0	202	23	1
1.7	2015_Jul_23_1100	s	s	6	3	SIC	424	ABS	2	2	24VD	0	1	0.599693059921	None	None	None	None	1
1.7	2015_Jul_23_1100	s	s	6	3	SIC	425	ABS	2	0	24VC	0	1	0.56440114975	None	None	None	None	1
1.7	2015_Jul_23_1100	s	s	6	3	SIC	426	RC	2	1	23VO	1	0	0.481917142868	279.0	-95.0	281	-99	1
1.7	2015_Jul_23_1100	s	s	6	3	SIC	427	RC	1	2	23MD	1	0	0.453308105469	296.0	-265.0	283	-262	1
1.7	2015_Jul_23_1100	s	s	6	3	SIC	428	ABS	1	1	24MO	0	1	1.14778399467	None	None	None	None	1
1.7	2015_Jul_23_1100	s	s	6	3	SIC	429	RC	2	2	23VD	1	0	0.465085029602	281.0	-19.0	280	-24	1
1.7	2015_Jul_23_1100	s	s	6	3	SIC	430	ABS	1	0	24MC	0	1	2.60746192932	None	None	None	None	1
1.7	2015_Jul_23_1100	s	s	6	3	SIC	431	RC	0	1	23RO	0	1	1.15290689468	-19.0	147.0	None	None	0
1.7	2015_Jul_23_1100	s	s	6	3	SIC	432	ABS	2	1	24VO	0	1	0.440956830978	None	None	None	None	1
1.7	2015_Jul_23_1100	s	s	6	3	SIC	433	RC	0	2	23RD	1	0	0.658564090729	284.0	-338.0	271	-335	1
1.7	2015_Jul_23_1100	s	s	6	3	SIC	434	RC	1	0	23MC	1	0	2.91354894638	250.0	367.0	251	374	1
1.7	2015_Jul_23_1100	s	s	6	3	SIC	435	ABS	0	1	24RO	0	1	0.865063905716	None	None	None	None	1
1.7	2015_Jul_23_1100	s	s	6	3	SIC	436	RC	2	0	23VC	1	0	0.724123001099	-42.0	-292.0	-40	-290	1
1.7	2015_Jul_23_1100	s	s	6	3	SIC	437	ABS	2	1	24VO	0	1	0.465110063553	None	None	None	None	1
1.7	2015_Jul_23_1100	s	s	6	3	SIC	438	RC	1	1	23MO	1	0	0.911876916885	-415.0	-118.0	-414	-118	1
1.7	2015_Jul_23_1100	s	s	6	3	SIC	439	RC	2	2	23VD	1	0	0.465052843094	124.0	390.0	125	386	1
1.7	2015_Jul_23_1100	s	s	6	3	SIC	440	ABS	1	1	24MO	0	1	1.4353621006	None	None	None	None	1
1.7	2015_Jul_23_1100	s	s	6	3	SIC	441	ABS	0	2	24RD	0	1	0.808696985245	None	None	None	None	1
1.7	2015_Jul_23_1100	s	s	6	3	SIC	442	ABS	2	2	24VD	0	1	0.382832050323	None	None	None	None	1
1.7	2015_Jul_23_1100	s	s	6	3	SIC	443	ABS	1	0	24MC	0	1	0.889353990555	None	None	None	None	1
1.7	2015_Jul_23_1100	s	s	6	3	SIC	444	RC	0	1	23RO	0	1	1.12419986725	-339.0	-282.0	None	None	0
1.7	2015_Jul_23_1100	s	s	6	3	SIC	445	RC	2	1	23VO	1	0	0.517295837402	463.0	160.0	463	164	1
1.7	2015_Jul_23_1100	s	s	6	3	SIC	446	RC	1	2	23MD	1	0	0.564351081848	-371.0	-388.0	-382	-387	1
1.7	2015_Jul_23_1100	s	s	6	3	SIC	447	ABS	2	0	24VC	0	1	0.587923049927	None	None	None	None	1
1.7	2015_Jul_23_1100	s	s	6	3	SIC	448	ABS	1	2	24MD	0	1	0.500478982925	None	None	None	None	1
1.7	2015_Jul_23_1100	s	s	6	3	SIC	449	ABS	2	1	24VO	0	1	0.611434936523	None	None	None	None	1
1.7	2015_Jul_23_1100	s	s	6	3	SIC	450	RC	1	0	23MC	1	0	0.835136890411	322.0	-207.0	223	150	0
1.7	2015_Jul_23_1100	s	s	6	3	SIC	451	RC	2	1	23VO	1	0	0.465023040771	-178.0	-313.0	-179	-306	1
1.7	2015_Jul_23_1100	s	s	6	3	SIC	452	ABS	0	1	24RO	0	1	0.959464788437	None	None	None	None	1
1.7	2015_Jul_23_1100	s	s	6	3	SIC	453	ABS	1	0	24MC	0	1	0.752676010132	None	None	None	None	1
1.7	2015_Jul_23_1100	s	s	6	3	SIC	454	RC	1	1	23MO	1	0	1.09904694557	-189.0	-104.0	-191	-102	1
1.7	2015_Jul_23_1100	s	s	6	3	SIC	455	RC	1	2	23MD	1	0	0.52423787117	-264.0	-218.0	-259	-224	1
1.7	2015_Jul_23_1100	s	s	6	3	SIC	456	RC	2	0	23VC	1	0	0.399538993835	182.0	51.0	182	53	1
1.7	2015_Jul_23_1100	s	s	6	3	SIC	457	ABS	2	0	24VC	0	1	0.570702075958	None	None	None	None	1
1.7	2015_Jul_23_1100	s	s	6	3	SIC	458	ABS	1	2	24MD	0	1	0.534919977188	None	None	None	None	1
1.7	2015_Jul_23_1100	s	s	6	3	SIC	459	ABS	0	2	24RD	0	1	0.882951021194	None	None	None	None	1
1.7	2015_Jul_23_1100	s	s	6	3	SIC	460	RC	0	2	23RD	1	0	0.870432853699	-398.0	-211.0	-401	-211	1
1.7	2015_Jul_23_1100	s	s	6	3	SIC	461	ABS	2	2	24VD	0	1	0.512315988541	None	None	None	None	1
1.7	2015_Jul_23_1100	s	s	6	3	SIC	462	RC	2	2	23VD	1	0	0.470222949982	171.0	-261.0	166	-265	1
1.7	2015_Jul_23_1100	s	s	6	3	SIC	463	ABS	1	1	24MO	0	1	0.917443990707	None	None	None	None	1
1.7	2015_Jul_23_1100	s	s	6	3	SIC	464	RC	0	1	23RO	0	1	3.08985686302	117.0	300.0	None	None	0
1.7	2015_Jul_23_1100	s	s	6	3	SIC	465	RC	1	0	23MC	1	0	1.14790606499	317.0	281.0	311	277	1
1.7	2015_Jul_23_1100	s	s	6	3	SIC	466	RC	1	1	23MO	1	0	1.33484601974	265.0	-281.0	264	-285	1
1.7	2015_Jul_23_1100	s	s	6	3	SIC	467	RC	1	2	23MD	1	0	0.490103006363	356.0	205.0	354	207	1
1.7	2015_Jul_23_1100	s	s	6	3	SIC	468	RC	2	2	23VD	1	0	0.411364078522	-324.0	-95.0	-324	-90	1
1.7	2015_Jul_23_1100	s	s	6	3	SIC	469	RC	0	2	23RD	1	0	0.465081930161	217.0	328.0	219	320	1
1.7	2015_Jul_23_1100	s	s	6	3	SIC	470	ABS	0	1	24RO	0	1	2.95378088951	None	None	None	None	1
1.7	2015_Jul_23_1100	s	s	6	3	SIC	471	RC	2	0	23VC	1	0	0.50018286705	522.0	-353.0	520	-354	1
1.7	2015_Jul_23_1100	s	s	6	3	SIC	472	ABS	1	2	24MD	0	1	0.666620969772	None	None	None	None	1
1.7	2015_Jul_23_1100	s	s	6	3	SIC	473	ABS	2	2	24VD	0	1	0.517625808716	None	None	None	None	1
1.7	2015_Jul_23_1100	s	s	6	3	SIC	474	ABS	1	0	24MC	0	1	0.747372150421	None	None	None	None	1
1.7	2015_Jul_23_1100	s	s	6	3	SIC	475	ABS	2	0	24VC	0	1	0.520933151245	None	None	None	None	1
1.7	2015_Jul_23_1100	s	s	6	3	SIC	476	ABS	0	2	24RD	0	1	1.05100107193	None	None	None	None	1
1.7	2015_Jul_23_1100	s	s	6	3	SIC	477	ABS	2	1	24VO	0	1	0.411254167557	None	None	None	None	1
1.7	2015_Jul_23_1100	s	s	6	3	SIC	478	RC	2	1	23VO	1	0	0.53569984436	410.0	368.0	408	369	1
1.7	2015_Jul_23_1100	s	s	6	3	SIC	479	RC	0	1	23RO	0	1	1.3972890377	423.0	369.0	None	None	0
1.7	2015_Jul_23_1100	s	s	6	3	SIC	480	ABS	1	1	24MO	0	1	0.560805082321	None	None	None	None	1
1.7	2015_Jul_23_1100	s	s	6	3	SIC	481	ABS	2	2	24VD	0	1	0.430371999741	None	None	None	None	1
1.7	2015_Jul_23_1100	s	s	6	3	SIC	482	ABS	2	1	24VO	0	1	0.465227127075	None	None	None	None	1
1.7	2015_Jul_23_1100	s	s	6	3	SIC	483	ABS	1	0	24MC	0	1	2.80079293251	None	None	None	None	1
1.7	2015_Jul_23_1100	s	s	6	3	SIC	484	RC	2	2	23VD	1	0	0.54076385498	-26.0	-384.0	-19	-381	1
1.7	2015_Jul_23_1100	s	s	6	3	SIC	485	RC	1	2	23MD	1	0	0.576174020767	375.0	-362.0	377	-371	1
1.7	2015_Jul_23_1100	s	s	6	3	SIC	486	ABS	1	1	24MO	0	1	0.996487140656	None	None	None	None	1
1.7	2015_Jul_23_1100	s	s	6	3	SIC	487	RC	0	2	23RD	1	0	0.901915073395	-71.0	-273.0	-74	-275	1
1.7	2015_Jul_23_1100	s	s	6	3	SIC	488	RC	2	0	23VC	1	0	0.536107063293	386.0	-278.0	386	-274	1
1.7	2015_Jul_23_1100	s	s	6	3	SIC	489	ABS	2	0	24VC	0	1	0.473870992661	None	None	None	None	1
1.7	2015_Jul_23_1100	s	s	6	3	SIC	490	RC	1	0	23MC	0	1	0.841436862946	-143.0	-409.0	None	None	0
1.7	2015_Jul_23_1100	s	s	6	3	SIC	491	ABS	1	2	24MD	0	1	0.572767019272	None	None	None	None	1
1.7	2015_Jul_23_1100	s	s	6	3	SIC	492	ABS	0	2	24RD	0	1	0.524079084396	None	None	None	None	1
1.7	2015_Jul_23_1100	s	s	6	3	SIC	493	ABS	0	1	24RO	0	1	0.854808807373	None	None	None	None	1
1.7	2015_Jul_23_1100	s	s	6	3	SIC	494	RC	0	1	23RO	0	1	0.594676017761	246.0	-152.0	None	None	0
1.7	2015_Jul_23_1100	s	s	6	3	SIC	495	RC	1	1	23MO	1	0	1.00659203529	199.0	152.0	190	149	1
1.7	2015_Jul_23_1100	s	s	6	3	SIC	496	RC	2	1	23VO	1	0	0.534982204437	-21.0	376.0	-21	379	1
1.7	2015_Jul_23_1100	s	s	6	3	SIC	497	RC	0	2	23RD	1	0	0.467101097107	-22.0	-221.0	-15	-225	1
1.7	2015_Jul_23_1100	s	s	6	3	SIC	498	ABS	1	1	24MO	0	1	0.917437791824	None	None	None	None	1
1.7	2015_Jul_23_1100	s	s	6	3	SIC	499	RC	2	0	23VC	1	0	0.453400850296	-326.0	-167.0	-334	-172	1
1.7	2015_Jul_23_1100	s	s	6	3	SIC	500	ABS	2	1	24VO	0	1	0.470170021057	None	None	None	None	1
1.7	2015_Jul_23_1100	s	s	6	3	SIC	501	RC	0	1	23RO	0	1	0.653034925461	-249.0	94.0	None	None	0
1.7	2015_Jul_23_1100	s	s	6	3	SIC	502	ABS	0	1	24RO	0	1	1.11221599579	None	None	None	None	1
1.7	2015_Jul_23_1100	s	s	6	3	SIC	503	ABS	2	2	24VD	0	1	0.42316198349	None	None	None	None	1
1.7	2015_Jul_23_1100	s	s	6	3	SIC	504	RC	1	2	23MD	1	0	0.58801484108	380.0	-66.0	378	-64	1
1.7	2015_Jul_23_1100	s	s	6	3	SIC	505	RC	1	0	23MC	1	0	0.934515953064	42.0	-94.0	38	-101	1
1.7	2015_Jul_23_1100	s	s	6	3	SIC	506	ABS	2	0	24VC	0	1	0.493580102921	None	None	None	None	1
1.7	2015_Jul_23_1100	s	s	6	3	SIC	507	RC	2	2	23VD	1	0	0.759562015533	449.0	287.0	442	287	1
1.7	2015_Jul_23_1100	s	s	6	3	SIC	508	ABS	1	0	24MC	0	1	1.15976691246	None	None	None	None	1
1.7	2015_Jul_23_1100	s	s	6	3	SIC	509	ABS	1	2	24MD	0	1	0.406360149384	None	None	None	None	1
1.7	2015_Jul_23_1100	s	s	6	3	SIC	510	ABS	0	2	24RD	0	1	0.917428016663	None	None	None	None	1
1.7	2015_Jul_23_1100	s	s	6	3	SIC	511	RC	1	1	23MO	1	0	1.2059340477	106.0	-257.0	101	-253	1
1.7	2015_Jul_23_1100	s	s	6	3	SIC	512	RC	2	1	23VO	1	0	0.441721200943	351.0	-54.0	349	-64	1
1.7	2015_Jul_23_1100	s	s	6	3	SIC	513	RC	2	1	23VO	1	0	0.58794093132	-492.0	304.0	-487	301	1
1.7	2015_Jul_23_1100	s	s	6	3	SIC	514	RC	0	1	23RO	0	1	1.8915848732	-85.0	-395.0	None	None	0
1.7	2015_Jul_23_1100	s	s	6	3	SIC	515	RC	1	2	23MD	1	0	0.811424016953	-367.0	249.0	-372	253	1
1.7	2015_Jul_23_1100	s	s	6	3	SIC	516	ABS	1	1	24MO	0	1	1.03881192207	None	None	None	None	1
1.7	2015_Jul_23_1100	s	s	6	3	SIC	517	RC	2	2	23VD	1	0	0.526234149933	-419.0	178.0	-424	171	1
1.7	2015_Jul_23_1100	s	s	6	3	SIC	518	RC	2	0	23VC	1	0	0.594771146774	500.0	211.0	501	220	1
1.7	2015_Jul_23_1100	s	s	6	3	SIC	519	ABS	1	0	24MC	0	1	0.971336126328	None	None	None	None	1
1.7	2015_Jul_23_1100	s	s	6	3	SIC	520	RC	1	0	23MC	0	1	0.540868997574	159.0	131.0	None	None	0
1.7	2015_Jul_23_1100	s	s	6	3	SIC	521	ABS	2	2	24VD	0	1	0.403147935867	None	None	None	None	1
1.7	2015_Jul_23_1100	s	s	6	3	SIC	522	RC	0	2	23RD	1	0	0.552635908127	-528.0	248.0	-524	242	1
1.7	2015_Jul_23_1100	s	s	6	3	SIC	523	ABS	0	2	24RD	0	1	0.493637084961	None	None	None	None	1
1.7	2015_Jul_23_1100	s	s	6	3	SIC	524	ABS	1	2	24MD	0	1	0.411376953125	None	None	None	None	1
1.7	2015_Jul_23_1100	s	s	6	3	SIC	525	ABS	0	1	24RO	0	1	1.35304498672	None	None	None	None	1
1.7	2015_Jul_23_1100	s	s	6	3	SIC	526	ABS	2	0	24VC	0	1	0.458368062973	None	None	None	None	1
1.7	2015_Jul_23_1100	s	s	6	3	SIC	527	RC	1	1	23MO	1	0	1.65483212471	-245.0	-212.0	-242	-207	1
1.7	2015_Jul_23_1100	s	s	6	3	SIC	528	ABS	2	1	24VO	0	1	0.458395004272	None	None	None	None	1
1.7	2015_Jul_23_1100	s	s	6	3	SIC	529	ABS	0	2	24RD	0	1	0.6467628479	None	None	None	None	1
1.7	2015_Jul_23_1100	s	s	6	3	SIC	530	RC	2	2	23VD	1	0	0.759499073029	101.0	-343.0	113	-342	1
1.7	2015_Jul_23_1100	s	s	6	3	SIC	531	RC	1	1	23MO	0	1	0.63169503212	-538.0	89.0	None	None	0
1.7	2015_Jul_23_1100	s	s	6	3	SIC	532	ABS	1	1	24MO	0	1	1.20915007591	None	None	None	None	1
1.7	2015_Jul_23_1100	s	s	6	3	SIC	533	RC	0	1	23RO	0	1	0.995259046555	-513.0	-234.0	None	None	0
1.7	2015_Jul_23_1100	s	s	6	3	SIC	534	RC	1	2	23MD	0	1	0.500643968582	330.0	-366.0	None	None	0
1.7	2015_Jul_23_1100	s	s	6	3	SIC	535	RC	2	0	23VC	1	0	0.430003166199	-158.0	-93.0	-150	-89	1
1.7	2015_Jul_23_1100	s	s	6	3	SIC	536	ABS	0	1	24RO	0	1	1.95047903061	None	None	None	None	1
1.7	2015_Jul_23_1100	s	s	6	3	SIC	537	RC	0	2	23RD	0	1	0.576063871384	-270.0	257.0	None	None	0
1.7	2015_Jul_23_1100	s	s	6	3	SIC	538	RC	2	1	23VO	1	0	0.458563089371	195.0	-366.0	189	-362	1
1.7	2015_Jul_23_1100	s	s	6	3	SIC	539	ABS	1	2	24MD	0	1	1.1175558567	None	None	None	None	1
1.7	2015_Jul_23_1100	s	s	6	3	SIC	540	ABS	2	1	24VO	0	1	0.526273012161	None	None	None	None	1
1.7	2015_Jul_23_1100	s	s	6	3	SIC	541	ABS	2	2	24VD	0	1	0.428260087967	None	None	None	None	1
1.7	2015_Jul_23_1100	s	s	6	3	SIC	542	RC	1	0	23MC	1	0	0.982893943787	-444.0	258.0	-444	251	1
1.7	2015_Jul_23_1100	s	s	6	3	SIC	543	ABS	2	0	24VC	0	1	0.641883134842	None	None	None	None	1
1.7	2015_Jul_23_1100	s	s	6	3	SIC	544	ABS	1	0	24MC	0	1	1.04427814484	None	None	None	None	1
1.7	2015_Jul_23_1100	s	s	6	3	SIC	545	RC	0	1	23RO	0	1	1.05293488503	-357.0	-279.0	None	None	0
1.7	2015_Jul_23_1100	s	s	6	3	SIC	546	ABS	2	0	24VC	0	1	0.500665187836	None	None	None	None	1
1.7	2015_Jul_23_1100	s	s	6	3	SIC	547	ABS	1	1	24MO	0	1	0.690490007401	None	None	None	None	1
1.7	2015_Jul_23_1100	s	s	6	3	SIC	548	RC	1	0	23MC	0	1	0.105359077454	215.0	186.0	None	None	0
1.7	2015_Jul_23_1100	s	s	6	3	SIC	549	RC	1	2	23MD	1	0	0.736257076263	-421.0	-387.0	-415	-388	1
1.7	2015_Jul_23_1100	s	s	6	3	SIC	550	RC	2	0	23VC	1	0	0.703194141388	-198.0	366.0	-192	360	1
1.7	2015_Jul_23_1100	s	s	6	3	SIC	551	RC	2	2	23VD	1	0	0.382653951645	286.0	67.0	285	60	1
1.7	2015_Jul_23_1100	s	s	6	3	SIC	552	ABS	0	2	24RD	1	0	0.576125860214	None	None	48	95	0
1.7	2015_Jul_23_1100	s	s	6	3	SIC	553	ABS	2	2	24VD	0	1	0.453150987625	None	None	None	None	1
1.7	2015_Jul_23_1100	s	s	6	3	SIC	554	ABS	1	0	24MC	0	1	1.18820214272	None	None	None	None	1
1.7	2015_Jul_23_1100	s	s	6	3	SIC	555	RC	1	1	23MO	0	1	2.28289198875	529.0	134.0	None	None	0
1.7	2015_Jul_23_1100	s	s	6	3	SIC	556	ABS	0	1	24RO	0	1	0.61803817749	None	None	None	None	1
1.7	2015_Jul_23_1100	s	s	6	3	SIC	557	RC	2	1	23VO	1	0	0.418015003204	-258.0	-258.0	-262	-259	1
1.7	2015_Jul_23_1100	s	s	6	3	SIC	558	RC	0	2	23RD	1	0	0.524378061295	356.0	77.0	351	80	1
1.7	2015_Jul_23_1100	s	s	6	3	SIC	559	ABS	2	1	24VO	0	1	0.599671125412	None	None	None	None	1
1.7	2015_Jul_23_1100	s	s	6	3	SIC	560	ABS	1	2	24MD	0	1	0.564385175705	None	None	None	None	1
1.7	2015_Jul_23_1100	s	s	6	3	SIC	561	ABS	2	1	24VO	0	1	0.493726015091	None	None	None	None	1
1.7	2015_Jul_23_1100	s	s	6	3	SIC	562	ABS	2	0	24VC	0	1	0.552570819855	None	None	None	None	1
1.7	2015_Jul_23_1100	s	s	6	3	SIC	563	RC	2	2	23VD	1	0	0.493700027466	496.0	260.0	503	265	1
1.7	2015_Jul_23_1100	s	s	6	3	SIC	564	ABS	1	1	24MO	0	1	1.17645192146	None	None	None	None	1
1.7	2015_Jul_23_1100	s	s	6	3	SIC	565	ABS	2	2	24VD	0	1	0.493736982346	None	None	None	None	1
1.7	2015_Jul_23_1100	s	s	6	3	SIC	566	RC	2	0	23VC	1	0	0.66478395462	5.0	-199.0	11	-195	1
1.7	2015_Jul_23_1100	s	s	6	3	SIC	567	RC	1	2	23MD	1	0	0.481985092163	-129.0	231.0	-130	232	1
1.7	2015_Jul_23_1100	s	s	6	3	SIC	568	RC	1	0	23MC	1	0	1.11775994301	-93.0	178.0	-96	180	1
1.7	2015_Jul_23_1100	s	s	6	3	SIC	569	RC	0	1	23RO	0	1	1.01871204376	-132.0	-168.0	None	None	0
1.7	2015_Jul_23_1100	s	s	6	3	SIC	570	ABS	1	0	24MC	0	1	0.658537864685	None	None	None	None	1
1.7	2015_Jul_23_1100	s	s	6	3	SIC	571	ABS	0	2	24RD	0	1	0.643360853195	None	None	None	None	1
1.7	2015_Jul_23_1100	s	s	6	3	SIC	572	ABS	1	2	24MD	0	1	0.500412940979	None	None	None	None	1
1.7	2015_Jul_23_1100	s	s	6	3	SIC	573	RC	0	2	23RD	1	0	0.525252819061	351.0	-277.0	353	-271	1
1.7	2015_Jul_23_1100	s	s	6	3	SIC	574	RC	2	1	23VO	1	0	0.443794965744	-412.0	241.0	-406	239	1
1.7	2015_Jul_23_1100	s	s	6	3	SIC	575	RC	1	1	23MO	1	0	0.505514860153	-404.0	-88.0	-406	-80	1
1.7	2015_Jul_23_1100	s	s	6	3	SIC	576	ABS	0	1	24RO	0	1	1.04188799858	None	None	None	None	1
1.7	2015_Jul_23_1100	s	s	6	3	SIC	577	ABS	2	2	24VD	0	1	0.443753957748	None	None	None	None	1
1.7	2015_Jul_23_1100	s	s	6	3	SIC	578	ABS	1	2	24MD	0	1	0.6651699543	None	None	None	None	1
1.7	2015_Jul_23_1100	s	s	6	3	SIC	579	ABS	0	1	24RO	0	1	1.03504395485	None	None	None	None	1
1.7	2015_Jul_23_1100	s	s	6	3	SIC	580	ABS	0	2	24RD	0	1	0.47639799118	None	None	None	None	1
1.7	2015_Jul_23_1100	s	s	6	3	SIC	581	RC	2	1	23VO	1	0	0.582195043564	245.0	-304.0	246	-295	1
1.7	2015_Jul_23_1100	s	s	6	3	SIC	582	RC	1	2	23MD	1	0	0.488771915436	309.0	212.0	316	207	1
1.7	2015_Jul_23_1100	s	s	6	3	SIC	583	ABS	2	1	24VO	0	1	0.559131145477	None	None	None	None	1
1.7	2015_Jul_23_1100	s	s	6	3	SIC	584	ABS	1	1	24MO	0	1	0.682075023651	None	None	None	None	1
1.7	2015_Jul_23_1100	s	s	6	3	SIC	585	ABS	1	0	24MC	0	1	0.764479160309	None	None	None	None	1
1.7	2015_Jul_23_1100	s	s	6	3	SIC	586	RC	2	2	23VD	1	0	0.540824174881	-9.0	328.0	-13	321	1
1.7	2015_Jul_23_1100	s	s	6	3	SIC	587	RC	2	0	23VC	1	0	0.450276851654	409.0	122.0	408	124	1
1.7	2015_Jul_23_1100	s	s	6	3	SIC	588	RC	1	1	23MO	0	1	0.820510149002	-266.0	190.0	None	None	0
1.7	2015_Jul_23_1100	s	s	6	3	SIC	589	ABS	2	0	24VC	1	0	0.564389944077	None	None	41	20	0
1.7	2015_Jul_23_1100	s	s	6	3	SIC	590	RC	0	2	23RD	1	0	0.843959093094	-423.0	-66.0	-433	-63	1
1.7	2015_Jul_23_1100	s	s	6	3	SIC	591	RC	0	1	23RO	0	1	1.67982983589	-57.0	323.0	None	None	0
1.7	2015_Jul_23_1100	s	s	6	3	SIC	592	RC	1	0	23MC	0	1	1.24338698387	458.0	-3.0	None	None	0
