Version	Date	Stimuli	Method	Subject	Session	Condition	Trial	Target	Channel1	Channel2	Distractors	LMouseButton	RMouseButton	RT	TargetX	TargetY	ResponseX	ResponseY	Correct
1.7	2015_Jul_24_1514	s	s	6	4	Capacity	1	RC	0	2	23RD	1	0	1.9148709774	70.0	-39.0	72	-40	1
1.7	2015_Jul_24_1514	s	s	6	4	Capacity	2	ABS	0	1	24RO	0	1	4.74961900711	None	None	None	None	1
1.7	2015_Jul_24_1514	s	s	6	4	Capacity	3	RC	0	1	23RO	1	0	1.7337641716	-409.0	380.0	-416	380	1
1.7	2015_Jul_24_1514	s	s	6	4	Capacity	4	ABS	0	2	24RD	0	1	1.60012507439	None	None	None	None	1
1.7	2015_Jul_24_1514	s	s	6	4	Capacity	5	ABS	0	1	24RO	0	0	-1	None	None	None	None	-1
1.7	2015_Jul_24_1514	s	s	6	4	Capacity	6	ABS	0	2	24RD	0	0	-1	None	None	None	None	-1
1.7	2015_Jul_24_1514	s	s	6	4	Capacity	7	RC	0	1	23RO	0	1	3.43140101433	76.0	-211.0	None	None	0
1.7	2015_Jul_24_1514	s	s	6	4	Capacity	8	RC	0	2	23RD	1	0	0.599667072296	-228.0	-106.0	-227	-107	1
1.7	2015_Jul_24_1514	s	s	6	4	Capacity	9	RC	0	2	23RD	0	1	0.853434801102	-540.0	370.0	None	None	0
1.7	2015_Jul_24_1514	s	s	6	4	Capacity	10	ABS	0	1	24RO	0	1	3.49022316933	None	None	None	None	1
1.7	2015_Jul_24_1514	s	s	6	4	Capacity	11	ABS	0	2	24RD	0	1	1.3176279068	None	None	None	None	1
1.7	2015_Jul_24_1514	s	s	6	4	Capacity	12	RC	0	1	23RO	0	1	9.16861987114	-393.0	-263.0	None	None	0
1.7	2015_Jul_24_1514	s	s	6	4	Capacity	13	RC	0	1	23RO	0	1	3.55410313606	218.0	-46.0	None	None	0
1.7	2015_Jul_24_1514	s	s	6	4	Capacity	14	RC	0	2	23RD	1	0	0.606796979904	-316.0	-55.0	-309	-55	1
1.7	2015_Jul_24_1514	s	s	6	4	Capacity	15	ABS	0	1	24RO	0	1	9.80160880089	None	None	None	None	1
1.7	2015_Jul_24_1514	s	s	6	4	Capacity	16	ABS	0	2	24RD	0	1	1.12438106537	None	None	None	None	1
1.7	2015_Jul_24_1514	s	s	6	4	Capacity	17	RC	0	2	23RD	1	0	0.52903008461	-234.0	359.0	-238	349	1
1.7	2015_Jul_24_1514	s	s	6	4	Capacity	18	RC	0	1	23RO	1	0	3.93594908714	262.0	-7.0	263	-10	1
1.7	2015_Jul_24_1514	s	s	6	4	Capacity	19	ABS	0	1	24RO	0	1	5.79045796394	None	None	None	None	1
1.7	2015_Jul_24_1514	s	s	6	4	Capacity	20	ABS	0	2	24RD	0	1	0.759405136108	None	None	None	None	1
1.7	2015_Jul_24_1514	s	s	6	4	Capacity	21	ABS	0	2	24RD	0	1	1.15311408043	None	None	None	None	1
1.7	2015_Jul_24_1514	s	s	6	4	Capacity	22	RC	0	2	23RD	1	0	0.576105833054	-468.0	-346.0	-470	-345	1
1.7	2015_Jul_24_1514	s	s	6	4	Capacity	23	RC	0	1	23RO	0	1	4.21321892738	415.0	45.0	None	None	0
1.7	2015_Jul_24_1514	s	s	6	4	Capacity	24	ABS	0	1	24RO	0	1	3.37751293182	None	None	None	None	1
1.7	2015_Jul_24_1514	s	s	6	4	Capacity	25	ABS	0	1	24RO	0	1	2.86648917198	None	None	None	None	1
1.7	2015_Jul_24_1514	s	s	6	4	Capacity	26	RC	0	1	23RO	0	1	1.91300702095	59.0	-354.0	None	None	0
1.7	2015_Jul_24_1514	s	s	6	4	Capacity	27	RC	0	2	23RD	1	0	0.691190958023	-449.0	-14.0	-453	-8	1
1.7	2015_Jul_24_1514	s	s	6	4	Capacity	28	ABS	0	2	24RD	0	1	1.35970497131	None	None	None	None	1
1.7	2015_Jul_24_1514	s	s	6	4	Capacity	29	ABS	0	1	24RO	0	1	5.32875299454	None	None	None	None	1
1.7	2015_Jul_24_1514	s	s	6	4	Capacity	30	RC	0	2	23RD	1	0	0.581418037415	234.0	224.0	229	218	1
1.7	2015_Jul_24_1514	s	s	6	4	Capacity	31	ABS	0	2	24RD	0	1	0.735975980759	None	None	None	None	1
1.7	2015_Jul_24_1514	s	s	6	4	Capacity	32	RC	0	1	23RO	0	1	5.1429669857	449.0	-241.0	None	None	0
1.7	2015_Jul_24_1514	s	s	6	4	Capacity	33	RC	0	1	23RO	0	1	3.08988809586	97.0	-36.0	None	None	0
1.7	2015_Jul_24_1514	s	s	6	4	Capacity	34	ABS	0	2	24RD	0	1	1.0469918251	None	None	None	None	1
1.7	2015_Jul_24_1514	s	s	6	4	Capacity	35	RC	0	2	23RD	1	0	1.28270983696	-35.0	-389.0	-32	-388	1
1.7	2015_Jul_24_1514	s	s	6	4	Capacity	36	ABS	0	1	24RO	0	1	5.7997469902	None	None	None	None	1
1.7	2015_Jul_24_1514	s	s	6	4	Capacity	37	RC	0	1	23RO	0	1	5.06074094772	334.0	375.0	None	None	0
1.7	2015_Jul_24_1514	s	s	6	4	Capacity	38	ABS	0	2	24RD	0	1	1.85310077667	None	None	None	None	1
1.7	2015_Jul_24_1514	s	s	6	4	Capacity	39	ABS	0	1	24RO	0	1	5.35507202148	None	None	None	None	1
1.7	2015_Jul_24_1514	s	s	6	4	Capacity	40	RC	0	2	23RD	1	0	0.54750585556	-89.0	-227.0	-95	-224	1
1.7	2015_Jul_24_1514	s	s	6	4	Capacity	41	ABS	0	2	24RD	0	1	1.20640897751	None	None	None	None	1
1.7	2015_Jul_24_1514	s	s	6	4	Capacity	42	ABS	0	1	24RO	0	1	4.47220611572	None	None	None	None	1
1.7	2015_Jul_24_1514	s	s	6	4	Capacity	43	RC	0	1	23RO	1	0	1.69431209564	-454.0	219.0	-459	213	1
1.7	2015_Jul_24_1514	s	s	6	4	Capacity	44	RC	0	2	23RD	1	0	0.617769002914	-539.0	-122.0	-540	-126	1
1.7	2015_Jul_24_1514	s	s	6	4	Capacity	45	RC	0	1	23RO	1	0	7.55089402199	101.0	226.0	-215	-9	0
1.7	2015_Jul_24_1514	s	s	6	4	Capacity	46	ABS	0	2	24RD	0	1	1.90125894547	None	None	None	None	1
1.7	2015_Jul_24_1514	s	s	6	4	Capacity	47	RC	0	2	23RD	1	0	0.747044086456	-138.0	368.0	-135	373	1
1.7	2015_Jul_24_1514	s	s	6	4	Capacity	48	ABS	0	1	24RO	0	1	3.29027295113	None	None	None	None	1
1.7	2015_Jul_24_1514	s	s	6	4	Capacity	49	RC	0	2	23RD	1	0	0.547577142715	-76.0	-152.0	-78	-159	1
1.7	2015_Jul_24_1514	s	s	6	4	Capacity	50	RC	0	1	23RO	1	0	5.24905800819	450.0	-323.0	446	-327	1
1.7	2015_Jul_24_1514	s	s	6	4	Capacity	51	ABS	0	2	24RD	0	1	1.78331279755	None	None	None	None	1
1.7	2015_Jul_24_1514	s	s	6	4	Capacity	52	ABS	0	1	24RO	0	1	6.63799595833	None	None	None	None	1
1.7	2015_Jul_24_1514	s	s	6	4	Capacity	53	RC	0	1	23RO	0	1	3.77171993256	509.0	81.0	None	None	0
1.7	2015_Jul_24_1514	s	s	6	4	Capacity	54	ABS	0	2	24RD	0	1	1.21157097816	None	None	None	None	1
1.7	2015_Jul_24_1514	s	s	6	4	Capacity	55	RC	0	2	23RD	1	0	0.465191841125	51.0	161.0	52	160	1
1.7	2015_Jul_24_1514	s	s	6	4	Capacity	56	ABS	0	1	24RO	0	1	4.15432810783	None	None	None	None	1
1.7	2015_Jul_24_1514	s	s	6	4	Capacity	57	ABS	0	1	24RO	0	1	4.13745188713	None	None	None	None	1
1.7	2015_Jul_24_1514	s	s	6	4	Capacity	58	RC	0	1	23RO	1	0	1.48286795616	-322.0	-215.0	-318	-212	1
1.7	2015_Jul_24_1514	s	s	6	4	Capacity	59	ABS	0	2	24RD	0	1	1.43534398079	None	None	None	None	1
1.7	2015_Jul_24_1514	s	s	6	4	Capacity	60	RC	0	2	23RD	1	0	0.477082014084	-164.0	133.0	-166	134	1
1.7	2015_Jul_24_1514	s	s	6	4	Capacity	61	RC	0	1	23RO	1	0	2.01842713356	-519.0	-177.0	-520	-180	1
1.7	2015_Jul_24_1514	s	s	6	4	Capacity	62	ABS	0	1	24RO	0	1	5.86670398712	None	None	None	None	1
1.7	2015_Jul_24_1514	s	s	6	4	Capacity	63	ABS	0	2	24RD	0	1	1.55983996391	None	None	None	None	1
1.7	2015_Jul_24_1514	s	s	6	4	Capacity	64	RC	0	2	23RD	1	0	0.499953985214	-125.0	324.0	-124	322	1
1.7	2015_Jul_24_1514	s	s	6	4	Capacity	65	ABS	0	1	24RO	0	1	7.14150118828	None	None	None	None	1
1.7	2015_Jul_24_1514	s	s	6	4	Capacity	66	RC	0	2	23RD	1	0	0.529043197632	40.0	-226.0	29	-225	1
1.7	2015_Jul_24_1514	s	s	6	4	Capacity	67	ABS	0	2	24RD	0	1	0.914813995361	None	None	None	None	1
1.7	2015_Jul_24_1514	s	s	6	4	Capacity	68	RC	0	1	23RO	1	0	0.768743038177	-64.0	141.0	-68	136	1
1.7	2015_Jul_24_1514	s	s	6	4	Capacity	69	RC	0	1	23RO	0	1	3.74236488342	441.0	-163.0	None	None	0
1.7	2015_Jul_24_1514	s	s	6	4	Capacity	70	ABS	0	1	24RO	0	1	3.32541108131	None	None	None	None	1
1.7	2015_Jul_24_1514	s	s	6	4	Capacity	71	ABS	0	2	24RD	0	1	1.45900702477	None	None	None	None	1
1.7	2015_Jul_24_1514	s	s	6	4	Capacity	72	RC	0	2	23RD	1	0	0.71214389801	120.0	396.0	112	393	1
1.7	2015_Jul_24_1514	s	s	6	4	Capacity	73	ABS	0	2	24RD	0	1	0.735921859741	None	None	None	None	1
1.7	2015_Jul_24_1514	s	s	6	4	Capacity	74	ABS	0	1	24RO	0	1	2.74869394302	None	None	None	None	1
1.7	2015_Jul_24_1514	s	s	6	4	Capacity	75	RC	0	1	23RO	1	0	0.949536800385	-19.0	209.0	-18	201	1
1.7	2015_Jul_24_1514	s	s	6	4	Capacity	76	RC	0	2	23RD	1	0	0.458487033844	156.0	-135.0	149	-128	1
1.7	2015_Jul_24_1514	s	s	6	4	Capacity	77	RC	0	1	23RO	1	0	3.65520405769	-292.0	51.0	-291	48	1
1.7	2015_Jul_24_1514	s	s	6	4	Capacity	78	ABS	0	2	24RD	0	1	1.2705681324	None	None	None	None	1
1.7	2015_Jul_24_1514	s	s	6	4	Capacity	79	ABS	0	1	24RO	0	1	4.91638684273	None	None	None	None	1
1.7	2015_Jul_24_1514	s	s	6	4	Capacity	80	RC	0	2	23RD	1	0	0.570969820023	214.0	207.0	220	203	1
1.7	2015_Jul_24_1514	s	s	6	4	Capacity	81	RC	0	1	23RO	1	0	0.823336839676	58.0	90.0	59	87	1
1.7	2015_Jul_24_1514	s	s	6	4	Capacity	82	RC	0	2	23RD	1	0	0.453573942184	-286.0	125.0	-282	130	1
1.7	2015_Jul_24_1514	s	s	6	4	Capacity	83	ABS	0	2	24RD	0	1	0.818259954453	None	None	None	None	1
1.7	2015_Jul_24_1514	s	s	6	4	Capacity	84	ABS	0	1	24RO	0	1	2.37707495689	None	None	None	None	1
1.7	2015_Jul_24_1514	s	s	6	4	Capacity	85	RC	0	2	23RD	1	0	0.405690908432	-60.0	98.0	-66	95	1
1.7	2015_Jul_24_1514	s	s	6	4	Capacity	86	ABS	0	2	24RD	0	1	1.51237511635	None	None	None	None	1
1.7	2015_Jul_24_1514	s	s	6	4	Capacity	87	ABS	0	1	24RO	0	1	2.68915700912	None	None	None	None	1
1.7	2015_Jul_24_1514	s	s	6	4	Capacity	88	RC	0	1	23RO	1	0	1.52454400063	-365.0	-95.0	-363	-102	1
1.7	2015_Jul_24_1514	s	s	6	4	Capacity	89	RC	0	2	23RD	1	0	0.512239933014	-355.0	92.0	-347	89	1
1.7	2015_Jul_24_1514	s	s	6	4	Capacity	90	ABS	0	1	24RO	0	1	5.21366000175	None	None	None	None	1
1.7	2015_Jul_24_1514	s	s	6	4	Capacity	91	ABS	0	2	24RD	0	1	0.724055051804	None	None	None	None	1
1.7	2015_Jul_24_1514	s	s	6	4	Capacity	92	RC	0	1	23RO	1	0	3.8483569622	244.0	-208.0	234	-206	1
1.7	2015_Jul_24_1514	s	s	6	4	Capacity	1	RC	2	0	23VC	1	0	0.571219921112	18.0	-278.0	26	-276	1
1.7	2015_Jul_24_1514	s	s	6	4	Capacity	2	RC	1	0	23MC	1	0	0.441238880157	-423.0	-77.0	-425	-76	1
1.7	2015_Jul_24_1514	s	s	6	4	Capacity	3	ABS	1	0	24MC	0	1	0.799743175507	None	None	None	None	1
1.7	2015_Jul_24_1514	s	s	6	4	Capacity	4	ABS	2	0	24VC	0	1	0.595280885696	None	None	None	None	1
1.7	2015_Jul_24_1514	s	s	6	4	Capacity	5	RC	2	0	23VC	1	0	0.679459095001	64.0	-392.0	68	-395	1
1.7	2015_Jul_24_1514	s	s	6	4	Capacity	6	RC	1	0	23MC	1	0	0.879262924194	222.0	-69.0	229	-75	1
1.7	2015_Jul_24_1514	s	s	6	4	Capacity	7	ABS	1	0	24MC	0	1	0.606615066528	None	None	None	None	1
1.7	2015_Jul_24_1514	s	s	6	4	Capacity	8	ABS	2	0	24VC	0	1	0.49378991127	None	None	None	None	1
1.7	2015_Jul_24_1514	s	s	6	4	Capacity	9	ABS	2	0	24VC	0	1	0.547492980957	None	None	None	None	1
1.7	2015_Jul_24_1514	s	s	6	4	Capacity	10	RC	2	0	23VC	1	0	0.576132774353	-522.0	-367.0	-509	-361	1
1.7	2015_Jul_24_1514	s	s	6	4	Capacity	11	RC	1	0	23MC	1	0	0.470191955566	-119.0	-182.0	-126	-178	1
1.7	2015_Jul_24_1514	s	s	6	4	Capacity	12	ABS	1	0	24MC	0	1	0.653515100479	None	None	None	None	1
1.7	2015_Jul_24_1514	s	s	6	4	Capacity	13	RC	2	0	23VC	1	0	0.411414146423	37.0	313.0	43	311	1
1.7	2015_Jul_24_1514	s	s	6	4	Capacity	14	ABS	1	0	24MC	0	1	0.924197912216	None	None	None	None	1
1.7	2015_Jul_24_1514	s	s	6	4	Capacity	15	ABS	2	0	24VC	0	1	0.481982946396	None	None	None	None	1
1.7	2015_Jul_24_1514	s	s	6	4	Capacity	16	RC	1	0	23MC	1	0	0.382652997971	-42.0	-55.0	-44	-63	1
1.7	2015_Jul_24_1514	s	s	6	4	Capacity	17	ABS	1	0	24MC	0	1	0.830043077469	None	None	None	None	1
1.7	2015_Jul_24_1514	s	s	6	4	Capacity	18	RC	2	0	23VC	1	0	0.418049812317	52.0	-114.0	54	-112	1
1.7	2015_Jul_24_1514	s	s	6	4	Capacity	19	ABS	2	0	24VC	0	1	0.670566082001	None	None	None	None	1
1.7	2015_Jul_24_1514	s	s	6	4	Capacity	20	RC	1	0	23MC	0	1	0.485653877258	-47.0	-225.0	None	None	0
1.7	2015_Jul_24_1514	s	s	6	4	Capacity	21	ABS	1	0	24MC	0	1	0.841886997223	None	None	None	None	1
1.7	2015_Jul_24_1514	s	s	6	4	Capacity	22	RC	1	0	23MC	0	1	2.37705492973	142.0	244.0	None	None	0
1.7	2015_Jul_24_1514	s	s	6	4	Capacity	23	RC	2	0	23VC	1	0	0.608824968338	251.0	-397.0	241	-399	1
1.7	2015_Jul_24_1514	s	s	6	4	Capacity	24	ABS	2	0	24VC	0	1	0.630064964294	None	None	None	None	1
1.7	2015_Jul_24_1514	s	s	6	4	Capacity	25	RC	1	0	23MC	1	0	0.479318857193	-318.0	120.0	-321	114	1
1.7	2015_Jul_24_1514	s	s	6	4	Capacity	26	RC	2	0	23VC	1	0	0.470221996307	368.0	-234.0	368	-237	1
1.7	2015_Jul_24_1514	s	s	6	4	Capacity	27	ABS	2	0	24VC	0	1	0.729135036469	None	None	None	None	1
1.7	2015_Jul_24_1514	s	s	6	4	Capacity	28	ABS	1	0	24MC	0	1	0.917454004288	None	None	None	None	1
1.7	2015_Jul_24_1514	s	s	6	4	Capacity	29	ABS	2	0	24VC	0	1	0.512398004532	None	None	None	None	1
1.7	2015_Jul_24_1514	s	s	6	4	Capacity	30	RC	2	0	23VC	1	0	0.505556106567	389.0	-118.0	385	-115	1
1.7	2015_Jul_24_1514	s	s	6	4	Capacity	31	RC	1	0	23MC	1	0	0.524172067642	223.0	172.0	225	166	1
1.7	2015_Jul_24_1514	s	s	6	4	Capacity	32	ABS	1	0	24MC	0	1	0.682090997696	None	None	None	None	1
1.7	2015_Jul_24_1514	s	s	6	4	Capacity	33	RC	1	0	23MC	1	0	0.664819955826	214.0	314.0	221	314	1
1.7	2015_Jul_24_1514	s	s	6	4	Capacity	34	RC	2	0	23VC	1	0	0.446584939957	-442.0	313.0	-446	304	1
1.7	2015_Jul_24_1514	s	s	6	4	Capacity	35	ABS	1	0	24MC	0	1	0.865444898605	None	None	None	None	1
1.7	2015_Jul_24_1514	s	s	6	4	Capacity	36	ABS	2	0	24VC	0	1	0.525525093079	None	None	None	None	1
1.7	2015_Jul_24_1514	s	s	6	4	Capacity	37	RC	2	0	23VC	1	0	0.476932048798	224.0	-89.0	238	-84	1
1.7	2015_Jul_24_1514	s	s	6	4	Capacity	38	RC	1	0	23MC	0	1	1.04198217392	-128.0	-297.0	None	None	0
1.7	2015_Jul_24_1514	s	s	6	4	Capacity	39	ABS	1	0	24MC	0	1	0.681970119476	None	None	None	None	1
1.7	2015_Jul_24_1514	s	s	6	4	Capacity	40	ABS	2	0	24VC	0	1	0.619528055191	None	None	None	None	1
1.7	2015_Jul_24_1514	s	s	6	4	Capacity	41	ABS	1	0	24MC	0	1	1.72958183289	None	None	None	None	1
1.7	2015_Jul_24_1514	s	s	6	4	Capacity	42	RC	1	0	23MC	1	0	1.45893001556	-9.0	-374.0	-8	-368	1
1.7	2015_Jul_24_1514	s	s	6	4	Capacity	43	RC	2	0	23VC	1	0	0.453886032104	327.0	90.0	334	89	1
1.7	2015_Jul_24_1514	s	s	6	4	Capacity	44	ABS	2	0	24VC	0	1	0.594485044479	None	None	None	None	1
1.7	2015_Jul_24_1514	s	s	6	4	Capacity	45	RC	2	0	23VC	1	0	0.411315202713	311.0	174.0	312	173	1
1.7	2015_Jul_24_1514	s	s	6	4	Capacity	46	ABS	2	0	24VC	0	1	0.500462055206	None	None	None	None	1
1.7	2015_Jul_24_1514	s	s	6	4	Capacity	47	ABS	1	0	24MC	0	1	0.938501119614	None	None	None	None	1
1.7	2015_Jul_24_1514	s	s	6	4	Capacity	48	RC	1	0	23MC	1	0	0.7409760952	259.0	-186.0	261	-181	1
1.7	2015_Jul_24_1514	s	s	6	4	Capacity	49	RC	2	0	23VC	1	0	0.465121984482	384.0	-8.0	385	-1	1
1.7	2015_Jul_24_1514	s	s	6	4	Capacity	50	ABS	1	0	24MC	0	1	0.618286132812	None	None	None	None	1
1.7	2015_Jul_24_1514	s	s	6	4	Capacity	51	ABS	2	0	24VC	0	1	0.446620941162	None	None	None	None	1
1.7	2015_Jul_24_1514	s	s	6	4	Capacity	52	RC	1	0	23MC	1	0	0.512256860733	-12.0	-7.0	-3	-3	1
1.7	2015_Jul_24_1514	s	s	6	4	Capacity	53	ABS	1	0	24MC	0	1	0.594589948654	None	None	None	None	1
1.7	2015_Jul_24_1514	s	s	6	4	Capacity	54	ABS	2	0	24VC	0	1	0.681978940964	None	None	None	None	1
1.7	2015_Jul_24_1514	s	s	6	4	Capacity	55	RC	2	0	23VC	1	0	0.49360203743	442.0	-287.0	439	-288	1
1.7	2015_Jul_24_1514	s	s	6	4	Capacity	56	RC	1	0	23MC	0	1	0.835130929947	331.0	33.0	None	None	0
1.7	2015_Jul_24_1514	s	s	6	4	Capacity	57	ABS	2	0	24VC	0	1	0.481962919235	None	None	None	None	1
1.7	2015_Jul_24_1514	s	s	6	4	Capacity	58	ABS	1	0	24MC	0	1	0.629024982452	None	None	None	None	1
1.7	2015_Jul_24_1514	s	s	6	4	Capacity	59	RC	1	0	23MC	1	0	0.517217874527	383.0	45.0	386	41	1
1.7	2015_Jul_24_1514	s	s	6	4	Capacity	60	RC	2	0	23VC	1	0	0.446599960327	290.0	-185.0	279	-176	1
1.7	2015_Jul_24_1514	s	s	6	4	Capacity	61	ABS	1	0	24MC	0	1	0.623232126236	None	None	None	None	1
1.7	2015_Jul_24_1514	s	s	6	4	Capacity	62	RC	2	0	23VC	1	0	0.776319980621	-471.0	393.0	-473	392	1
1.7	2015_Jul_24_1514	s	s	6	4	Capacity	63	ABS	2	0	24VC	0	1	0.52388882637	None	None	None	None	1
1.7	2015_Jul_24_1514	s	s	6	4	Capacity	64	RC	1	0	23MC	1	0	1.05867481232	357.0	270.0	360	272	1
1.7	2015_Jul_24_1514	s	s	6	4	Capacity	65	RC	1	0	23MC	1	0	0.587870121002	-379.0	60.0	-381	66	1
1.7	2015_Jul_24_1514	s	s	6	4	Capacity	66	ABS	1	0	24MC	0	1	0.599622964859	None	None	None	None	1
1.7	2015_Jul_24_1514	s	s	6	4	Capacity	67	ABS	2	0	24VC	0	1	0.582940101624	None	None	None	None	1
1.7	2015_Jul_24_1514	s	s	6	4	Capacity	68	RC	2	0	23VC	1	0	0.481950998306	439.0	334.0	440	335	1
1.7	2015_Jul_24_1514	s	s	6	4	Capacity	69	ABS	1	0	24MC	0	1	0.835120916367	None	None	None	None	1
1.7	2015_Jul_24_1514	s	s	6	4	Capacity	70	RC	2	0	23VC	1	0	0.455761194229	144.0	-150.0	138	-150	1
1.7	2015_Jul_24_1514	s	s	6	4	Capacity	71	RC	1	0	23MC	0	1	0.764654874802	-133.0	-370.0	None	None	0
1.7	2015_Jul_24_1514	s	s	6	4	Capacity	72	ABS	2	0	24VC	0	1	0.502902984619	None	None	None	None	1
1.7	2015_Jul_24_1514	s	s	6	4	Capacity	73	ABS	2	0	24VC	0	1	0.453642129898	None	None	None	None	1
1.7	2015_Jul_24_1514	s	s	6	4	Capacity	74	RC	2	0	23VC	1	0	0.505522012711	-473.0	-408.0	-476	-403	1
1.7	2015_Jul_24_1514	s	s	6	4	Capacity	75	RC	1	0	23MC	1	0	0.535690069199	-258.0	9.0	-249	6	1
1.7	2015_Jul_24_1514	s	s	6	4	Capacity	76	ABS	1	0	24MC	0	1	0.605885982513	None	None	None	None	1
1.7	2015_Jul_24_1514	s	s	6	4	Capacity	77	RC	1	0	23MC	1	0	0.976265907288	-466.0	-325.0	-457	-321	1
1.7	2015_Jul_24_1514	s	s	6	4	Capacity	78	ABS	1	0	24MC	0	1	0.905539989471	None	None	None	None	1
1.7	2015_Jul_24_1514	s	s	6	4	Capacity	79	RC	2	0	23VC	1	0	0.45844912529	-316.0	-205.0	-309	-204	1
1.7	2015_Jul_24_1514	s	s	6	4	Capacity	80	ABS	2	0	24VC	0	1	0.500946044922	None	None	None	None	1
1.7	2015_Jul_24_1514	s	s	6	4	Capacity	81	RC	2	0	23VC	1	0	0.434855937958	226.0	-245.0	227	-237	1
1.7	2015_Jul_24_1514	s	s	6	4	Capacity	82	ABS	1	0	24MC	0	1	1.23522996902	None	None	None	None	1
1.7	2015_Jul_24_1514	s	s	6	4	Capacity	83	ABS	2	0	24VC	0	1	0.72634601593	None	None	None	None	1
1.7	2015_Jul_24_1514	s	s	6	4	Capacity	84	RC	1	0	23MC	1	0	0.75253200531	316.0	17.0	312	13	1
1.7	2015_Jul_24_1514	s	s	6	4	Capacity	85	ABS	2	0	24VC	0	1	0.526453971863	None	None	None	None	1
1.7	2015_Jul_24_1514	s	s	6	4	Capacity	86	RC	2	0	23VC	1	0	0.512291193008	239.0	-387.0	245	-393	1
1.7	2015_Jul_24_1514	s	s	6	4	Capacity	87	ABS	1	0	24MC	0	1	0.658401012421	None	None	None	None	1
1.7	2015_Jul_24_1514	s	s	6	4	Capacity	88	RC	1	0	23MC	1	0	0.646773099899	-137.0	-237.0	-138	-236	1
1.7	2015_Jul_24_1514	s	s	6	4	Capacity	89	ABS	2	0	24VC	0	1	0.423094987869	None	None	None	None	1
1.7	2015_Jul_24_1514	s	s	6	4	Capacity	90	RC	1	0	23MC	0	1	0.949868917465	-420.0	-240.0	None	None	0
1.7	2015_Jul_24_1514	s	s	6	4	Capacity	91	ABS	1	0	24MC	0	1	1.07048606873	None	None	None	None	1
1.7	2015_Jul_24_1514	s	s	6	4	Capacity	92	RC	2	0	23VC	1	0	0.670331954956	-195.0	-19.0	-188	-18	1
1.7	2015_Jul_24_1514	s	s	6	4	SIC	1	RC	1	0	23MC	1	0	2.53684401512	-422.0	-200.0	-422	-207	1
1.7	2015_Jul_24_1514	s	s	6	4	SIC	2	RC	1	1	23MO	1	0	1.02355098724	110.0	391.0	114	395	1
1.7	2015_Jul_24_1514	s	s	6	4	SIC	3	RC	0	2	23RD	1	0	0.500026941299	-440.0	-389.0	-453	-386	1
1.7	2015_Jul_24_1514	s	s	6	4	SIC	4	RC	2	1	23VO	1	0	0.411157131195	180.0	92.0	188	101	1
1.7	2015_Jul_24_1514	s	s	6	4	SIC	5	ABS	1	1	24MO	0	1	1.43541002274	None	None	None	None	1
1.7	2015_Jul_24_1514	s	s	6	4	SIC	6	RC	2	2	23VD	1	0	0.61502289772	203.0	-43.0	203	-38	1
1.7	2015_Jul_24_1514	s	s	6	4	SIC	7	ABS	0	1	24RO	1	0	0.529065847397	None	None	306	72	0
1.7	2015_Jul_24_1514	s	s	6	4	SIC	8	ABS	2	1	24VO	0	1	0.587914943695	None	None	None	None	1
1.7	2015_Jul_24_1514	s	s	6	4	SIC	9	ABS	1	0	24MC	0	1	3.18593287468	None	None	None	None	1
1.7	2015_Jul_24_1514	s	s	6	4	SIC	10	ABS	2	2	24VD	0	1	0.481958150864	None	None	None	None	1
1.7	2015_Jul_24_1514	s	s	6	4	SIC	11	RC	0	1	23RO	0	1	9.12878990173	-340.0	-347.0	None	None	0
1.7	2015_Jul_24_1514	s	s	6	4	SIC	12	ABS	2	0	24VC	0	1	0.620830059052	None	None	None	None	1
1.7	2015_Jul_24_1514	s	s	6	4	SIC	13	RC	1	2	23MD	1	0	0.599671125412	-532.0	148.0	-531	135	1
1.7	2015_Jul_24_1514	s	s	6	4	SIC	14	RC	2	0	23VC	1	0	0.429975032806	-392.0	400.0	-392	403	1
1.7	2015_Jul_24_1514	s	s	6	4	SIC	15	ABS	1	2	24MD	1	0	0.517240047455	None	None	102	46	0
1.7	2015_Jul_24_1514	s	s	6	4	SIC	16	ABS	0	2	24RD	0	1	1.3297958374	None	None	None	None	1
1.7	2015_Jul_24_1514	s	s	6	4	SIC	17	ABS	1	0	24MC	0	1	2.3887720108	None	None	None	None	1
1.7	2015_Jul_24_1514	s	s	6	4	SIC	18	ABS	0	2	24RD	0	1	0.488025903702	None	None	None	None	1
1.7	2015_Jul_24_1514	s	s	6	4	SIC	19	RC	2	1	23VO	1	0	0.529119968414	378.0	141.0	380	132	1
1.7	2015_Jul_24_1514	s	s	6	4	SIC	20	ABS	2	0	24VC	0	1	0.497425794601	None	None	None	None	1
1.7	2015_Jul_24_1514	s	s	6	4	SIC	21	RC	2	0	23VC	1	0	0.611413955688	362.0	161.0	361	155	1
1.7	2015_Jul_24_1514	s	s	6	4	SIC	22	RC	1	2	23MD	1	0	0.440933942795	409.0	-126.0	414	-119	1
1.7	2015_Jul_24_1514	s	s	6	4	SIC	23	ABS	2	2	24VD	0	1	0.470201969147	None	None	None	None	1
1.7	2015_Jul_24_1514	s	s	6	4	SIC	24	ABS	2	1	24VO	0	1	0.453433990479	None	None	None	None	1
1.7	2015_Jul_24_1514	s	s	6	4	SIC	25	RC	0	2	23RD	1	0	0.452693939209	271.0	53.0	260	55	1
1.7	2015_Jul_24_1514	s	s	6	4	SIC	26	ABS	1	1	24MO	0	1	1.03513002396	None	None	None	None	1
1.7	2015_Jul_24_1514	s	s	6	4	SIC	27	ABS	1	2	24MD	0	1	0.540811061859	None	None	None	None	1
1.7	2015_Jul_24_1514	s	s	6	4	SIC	28	RC	1	0	23MC	1	0	0.611430883408	-28.0	220.0	-35	216	1
1.7	2015_Jul_24_1514	s	s	6	4	SIC	29	RC	1	1	23MO	1	0	0.799580812454	-164.0	116.0	-158	116	1
1.7	2015_Jul_24_1514	s	s	6	4	SIC	30	RC	2	2	23VD	1	0	0.4650349617	116.0	194.0	117	197	1
1.7	2015_Jul_24_1514	s	s	6	4	SIC	31	ABS	0	1	24RO	0	1	2.94740986824	None	None	None	None	1
1.7	2015_Jul_24_1514	s	s	6	4	SIC	32	RC	0	1	23RO	0	1	1.78350806236	145.0	-227.0	None	None	0
1.7	2015_Jul_24_1514	s	s	6	4	SIC	33	ABS	1	1	24MO	0	1	6.508507967	None	None	None	None	1
1.7	2015_Jul_24_1514	s	s	6	4	SIC	34	RC	2	2	23VD	1	0	0.488812208176	514.0	286.0	517	281	1
1.7	2015_Jul_24_1514	s	s	6	4	SIC	35	RC	1	1	23MO	1	0	0.537529945374	-237.0	65.0	-236	60	1
1.7	2015_Jul_24_1514	s	s	6	4	SIC	36	ABS	0	2	24RD	0	1	0.958997011185	None	None	None	None	1
1.7	2015_Jul_24_1514	s	s	6	4	SIC	37	ABS	2	0	24VC	0	1	0.611535072327	None	None	None	None	1
1.7	2015_Jul_24_1514	s	s	6	4	SIC	38	ABS	2	1	24VO	0	1	0.476891994476	None	None	None	None	1
1.7	2015_Jul_24_1514	s	s	6	4	SIC	39	RC	1	2	23MD	1	0	0.806735992432	468.0	-339.0	475	-333	1
1.7	2015_Jul_24_1514	s	s	6	4	SIC	40	RC	0	2	23RD	1	0	0.505578994751	-73.0	245.0	-76	240	1
1.7	2015_Jul_24_1514	s	s	6	4	SIC	41	ABS	2	2	24VD	0	1	0.417640924454	None	None	None	None	1
1.7	2015_Jul_24_1514	s	s	6	4	SIC	42	ABS	1	2	24MD	0	1	0.58531999588	None	None	None	None	1
1.7	2015_Jul_24_1514	s	s	6	4	SIC	43	RC	1	0	23MC	1	0	0.395855903625	83.0	-27.0	93	-24	1
1.7	2015_Jul_24_1514	s	s	6	4	SIC	44	RC	2	1	23VO	1	0	0.429677963257	-460.0	-205.0	-464	-206	1
1.7	2015_Jul_24_1514	s	s	6	4	SIC	45	RC	0	1	23RO	1	0	7.07347393036	22.0	-244.0	24	-240	1
1.7	2015_Jul_24_1514	s	s	6	4	SIC	46	ABS	0	1	24RO	0	1	6.35027194023	None	None	None	None	1
1.7	2015_Jul_24_1514	s	s	6	4	SIC	47	RC	2	0	23VC	1	0	0.505506038666	288.0	-119.0	299	-119	1
1.7	2015_Jul_24_1514	s	s	6	4	SIC	48	ABS	1	0	24MC	1	0	8.62204813957	None	None	-376	132	0
1.7	2015_Jul_24_1514	s	s	6	4	SIC	49	RC	2	0	23VC	1	0	0.423135995865	-358.0	195.0	-348	193	1
1.7	2015_Jul_24_1514	s	s	6	4	SIC	50	ABS	0	2	24RD	0	1	0.653470039368	None	None	None	None	1
1.7	2015_Jul_24_1514	s	s	6	4	SIC	51	RC	2	1	23VO	1	0	0.406972169876	-161.0	185.0	-154	184	1
1.7	2015_Jul_24_1514	s	s	6	4	SIC	52	RC	0	2	23RD	1	0	0.434856891632	198.0	199.0	201	202	1
1.7	2015_Jul_24_1514	s	s	6	4	SIC	53	RC	1	1	23MO	1	0	0.670178890228	195.0	185.0	205	191	1
1.7	2015_Jul_24_1514	s	s	6	4	SIC	54	ABS	1	1	24MO	0	1	0.876723051071	None	None	None	None	1
1.7	2015_Jul_24_1514	s	s	6	4	SIC	55	ABS	2	2	24VD	0	1	0.418277978897	None	None	None	None	1
1.7	2015_Jul_24_1514	s	s	6	4	SIC	56	ABS	0	1	24RO	0	1	2.77211689949	None	None	None	None	1
1.7	2015_Jul_24_1514	s	s	6	4	SIC	57	RC	1	0	23MC	1	0	0.488620996475	151.0	108.0	146	108	1
1.7	2015_Jul_24_1514	s	s	6	4	SIC	58	ABS	2	0	24VC	0	1	0.502159833908	None	None	None	None	1
1.7	2015_Jul_24_1514	s	s	6	4	SIC	59	RC	0	1	23RO	0	1	0.988150119781	25.0	-397.0	None	None	0
1.7	2015_Jul_24_1514	s	s	6	4	SIC	60	RC	1	2	23MD	1	0	0.535562038422	485.0	10.0	486	7	1
1.7	2015_Jul_24_1514	s	s	6	4	SIC	61	ABS	1	0	24MC	0	1	1.0185148716	None	None	None	None	1
1.7	2015_Jul_24_1514	s	s	6	4	SIC	62	ABS	1	2	24MD	0	1	0.55862903595	None	None	None	None	1
1.7	2015_Jul_24_1514	s	s	6	4	SIC	63	RC	2	2	23VD	1	0	0.67706990242	-71.0	345.0	-75	342	1
1.7	2015_Jul_24_1514	s	s	6	4	SIC	64	ABS	2	1	24VO	0	1	0.470221996307	None	None	None	None	1
1.7	2015_Jul_24_1514	s	s	6	4	SIC	65	RC	1	2	23MD	1	0	0.517266988754	-540.0	119.0	-535	117	1
1.7	2015_Jul_24_1514	s	s	6	4	SIC	66	RC	0	2	23RD	1	0	0.552586078644	-311.0	-106.0	-311	-107	1
1.7	2015_Jul_24_1514	s	s	6	4	SIC	67	ABS	1	0	24MC	0	1	1.18561601639	None	None	None	None	1
1.7	2015_Jul_24_1514	s	s	6	4	SIC	68	ABS	2	1	24VO	0	1	0.482028007507	None	None	None	None	1
1.7	2015_Jul_24_1514	s	s	6	4	SIC	69	ABS	1	1	24MO	0	1	0.788012981415	None	None	None	None	1
1.7	2015_Jul_24_1514	s	s	6	4	SIC	70	ABS	2	2	24VD	0	1	0.441812992096	None	None	None	None	1
1.7	2015_Jul_24_1514	s	s	6	4	SIC	71	RC	0	1	23RO	0	1	1.97119402885	532.0	-90.0	None	None	0
1.7	2015_Jul_24_1514	s	s	6	4	SIC	72	RC	2	2	23VD	1	0	0.438527107239	-250.0	-63.0	-251	-74	1
1.7	2015_Jul_24_1514	s	s	6	4	SIC	73	ABS	1	2	24MD	0	1	0.564259052277	None	None	None	None	1
1.7	2015_Jul_24_1514	s	s	6	4	SIC	74	RC	2	1	23VO	1	0	0.478756189346	-109.0	-200.0	-114	-210	1
1.7	2015_Jul_24_1514	s	s	6	4	SIC	75	ABS	0	2	24RD	0	1	0.571228027344	None	None	None	None	1
1.7	2015_Jul_24_1514	s	s	6	4	SIC	76	ABS	2	0	24VC	0	1	0.465179920197	None	None	None	None	1
1.7	2015_Jul_24_1514	s	s	6	4	SIC	77	RC	1	0	23MC	1	0	0.493708133698	-337.0	-383.0	25	-25	0
1.7	2015_Jul_24_1514	s	s	6	4	SIC	78	RC	2	0	23VC	1	0	0.458468914032	-366.0	-296.0	-363	-298	1
1.7	2015_Jul_24_1514	s	s	6	4	SIC	79	ABS	0	1	24RO	0	1	8.66945791245	None	None	None	None	1
1.7	2015_Jul_24_1514	s	s	6	4	SIC	80	RC	1	1	23MO	1	0	0.512089014053	125.0	-69.0	126	-67	1
1.7	2015_Jul_24_1514	s	s	6	4	SIC	81	RC	1	1	23MO	1	0	1.05387377739	-527.0	121.0	-515	126	1
1.7	2015_Jul_24_1514	s	s	6	4	SIC	82	ABS	0	2	24RD	0	1	0.501036882401	None	None	None	None	1
1.7	2015_Jul_24_1514	s	s	6	4	SIC	83	ABS	1	1	24MO	0	1	1.19486403465	None	None	None	None	1
1.7	2015_Jul_24_1514	s	s	6	4	SIC	84	RC	0	2	23RD	1	0	0.717344999313	39.0	-258.0	41	-264	1
1.7	2015_Jul_24_1514	s	s	6	4	SIC	85	RC	2	2	23VD	1	0	0.411383152008	-480.0	-348.0	-485	-346	1
1.7	2015_Jul_24_1514	s	s	6	4	SIC	86	RC	1	0	23MC	0	1	0.959221124649	-110.0	197.0	None	None	0
1.7	2015_Jul_24_1514	s	s	6	4	SIC	87	ABS	2	2	24VD	0	1	0.35931801796	None	None	None	None	1
1.7	2015_Jul_24_1514	s	s	6	4	SIC	88	RC	0	1	23RO	0	1	0.864794015884	-397.0	227.0	None	None	0
1.7	2015_Jul_24_1514	s	s	6	4	SIC	89	RC	2	1	23VO	1	0	0.634967088699	31.0	-364.0	30	-375	1
1.7	2015_Jul_24_1514	s	s	6	4	SIC	90	ABS	2	1	24VO	0	1	0.690291881561	None	None	None	None	1
1.7	2015_Jul_24_1514	s	s	6	4	SIC	91	RC	2	0	23VC	1	0	0.500229120255	-149.0	396.0	-143	389	1
1.7	2015_Jul_24_1514	s	s	6	4	SIC	92	ABS	1	0	24MC	0	1	0.937398910522	None	None	None	None	1
1.7	2015_Jul_24_1514	s	s	6	4	SIC	93	ABS	1	2	24MD	0	1	0.432363033295	None	None	None	None	1
1.7	2015_Jul_24_1514	s	s	6	4	SIC	94	ABS	0	1	24RO	0	1	2.00766706467	None	None	None	None	1
1.7	2015_Jul_24_1514	s	s	6	4	SIC	95	ABS	2	0	24VC	0	1	0.493692874908	None	None	None	None	1
1.7	2015_Jul_24_1514	s	s	6	4	SIC	96	RC	1	2	23MD	1	0	0.4937479496	-239.0	407.0	-240	410	1
1.7	2015_Jul_24_1514	s	s	6	4	SIC	97	ABS	0	2	24RD	0	1	0.664513111115	None	None	None	None	1
1.7	2015_Jul_24_1514	s	s	6	4	SIC	98	ABS	2	2	24VD	0	1	0.470186948776	None	None	None	None	1
1.7	2015_Jul_24_1514	s	s	6	4	SIC	99	RC	1	1	23MO	1	0	1.51759195328	453.0	-112.0	462	-113	1
1.7	2015_Jul_24_1514	s	s	6	4	SIC	100	RC	2	1	23VO	1	0	0.453434944153	-408.0	153.0	-402	156	1
1.7	2015_Jul_24_1514	s	s	6	4	SIC	101	ABS	0	1	24RO	0	1	1.94680094719	None	None	None	None	1
1.7	2015_Jul_24_1514	s	s	6	4	SIC	102	RC	0	2	23RD	1	0	0.53739118576	275.0	295.0	273	295	1
1.7	2015_Jul_24_1514	s	s	6	4	SIC	103	RC	2	2	23VD	1	0	0.39453792572	87.0	-242.0	80	-234	1
1.7	2015_Jul_24_1514	s	s	6	4	SIC	104	ABS	1	0	24MC	1	0	0.656080007553	None	None	87	-35	0
1.7	2015_Jul_24_1514	s	s	6	4	SIC	105	ABS	2	0	24VC	1	0	0.465245008469	None	None	32	89	0
1.7	2015_Jul_24_1514	s	s	6	4	SIC	106	ABS	1	1	24MO	0	1	0.799521923065	None	None	None	None	1
1.7	2015_Jul_24_1514	s	s	6	4	SIC	107	ABS	2	1	24VO	0	1	0.478103876114	None	None	None	None	1
1.7	2015_Jul_24_1514	s	s	6	4	SIC	108	RC	1	0	23MC	1	0	1.40009403229	-16.0	-347.0	-14	-351	1
1.7	2015_Jul_24_1514	s	s	6	4	SIC	109	RC	2	0	23VC	1	0	0.411337852478	461.0	46.0	462	54	1
1.7	2015_Jul_24_1514	s	s	6	4	SIC	110	ABS	1	2	24MD	0	1	0.830595970154	None	None	None	None	1
1.7	2015_Jul_24_1514	s	s	6	4	SIC	111	RC	1	2	23MD	1	0	0.953137874603	262.0	-309.0	263	-310	1
1.7	2015_Jul_24_1514	s	s	6	4	SIC	112	RC	0	1	23RO	0	1	2.85957217216	297.0	-373.0	None	None	0
1.7	2015_Jul_24_1514	s	s	6	4	SIC	113	ABS	0	2	24RD	0	1	0.815603017807	None	None	None	None	1
1.7	2015_Jul_24_1514	s	s	6	4	SIC	114	RC	0	2	23RD	1	0	0.537192106247	-237.0	91.0	-236	94	1
1.7	2015_Jul_24_1514	s	s	6	4	SIC	115	RC	0	1	23RO	0	1	2.78507590294	464.0	84.0	None	None	0
1.7	2015_Jul_24_1514	s	s	6	4	SIC	116	RC	1	2	23MD	1	0	0.441463947296	-37.0	206.0	-46	212	1
1.7	2015_Jul_24_1514	s	s	6	4	SIC	117	ABS	2	1	24VO	0	1	0.470201969147	None	None	None	None	1
1.7	2015_Jul_24_1514	s	s	6	4	SIC	118	RC	2	1	23VO	1	0	0.481997966766	-9.0	-391.0	-2	-392	1
1.7	2015_Jul_24_1514	s	s	6	4	SIC	119	ABS	1	1	24MO	0	1	0.729136943817	None	None	None	None	1
1.7	2015_Jul_24_1514	s	s	6	4	SIC	120	RC	2	2	23VD	1	0	0.45858001709	428.0	332.0	434	329	1
1.7	2015_Jul_24_1514	s	s	6	4	SIC	121	ABS	2	2	24VD	0	1	0.546101093292	None	None	None	None	1
1.7	2015_Jul_24_1514	s	s	6	4	SIC	122	RC	1	1	23MO	0	1	1.65896201134	196.0	-264.0	None	None	0
1.7	2015_Jul_24_1514	s	s	6	4	SIC	123	ABS	2	0	24VC	0	1	0.493669986725	None	None	None	None	1
1.7	2015_Jul_24_1514	s	s	6	4	SIC	124	ABS	1	0	24MC	0	1	1.12930202484	None	None	None	None	1
1.7	2015_Jul_24_1514	s	s	6	4	SIC	125	ABS	0	1	24RO	0	1	1.9005548954	None	None	None	None	1
1.7	2015_Jul_24_1514	s	s	6	4	SIC	126	RC	2	0	23VC	1	0	0.582912921906	432.0	-153.0	427	-155	1
1.7	2015_Jul_24_1514	s	s	6	4	SIC	127	RC	1	0	23MC	1	0	0.729172945023	159.0	-66.0	165	-62	1
1.7	2015_Jul_24_1514	s	s	6	4	SIC	128	ABS	1	2	24MD	0	1	0.535894870758	None	None	None	None	1
1.7	2015_Jul_24_1514	s	s	6	4	SIC	129	ABS	1	0	24MC	0	1	1.10577607155	None	None	None	None	1
1.7	2015_Jul_24_1514	s	s	6	4	SIC	130	ABS	2	1	24VO	0	1	0.470201015472	None	None	None	None	1
1.7	2015_Jul_24_1514	s	s	6	4	SIC	131	RC	0	1	23RO	0	1	1.25881314278	-103.0	332.0	None	None	0
1.7	2015_Jul_24_1514	s	s	6	4	SIC	132	RC	2	1	23VO	1	0	0.49125289917	-198.0	237.0	-197	245	1
1.7	2015_Jul_24_1514	s	s	6	4	SIC	133	RC	1	1	23MO	1	0	0.996268033981	-423.0	-274.0	-416	-275	1
1.7	2015_Jul_24_1514	s	s	6	4	SIC	134	ABS	0	1	24RO	0	1	0.676167011261	None	None	None	None	1
1.7	2015_Jul_24_1514	s	s	6	4	SIC	135	ABS	0	2	24RD	0	1	0.5878469944	None	None	None	None	1
1.7	2015_Jul_24_1514	s	s	6	4	SIC	136	ABS	2	0	24VC	0	1	0.458465099335	None	None	None	None	1
1.7	2015_Jul_24_1514	s	s	6	4	SIC	137	ABS	2	2	24VD	0	1	0.41801905632	None	None	None	None	1
1.7	2015_Jul_24_1514	s	s	6	4	SIC	138	RC	2	2	23VD	1	0	0.470198869705	316.0	-172.0	319	-170	1
1.7	2015_Jul_24_1514	s	s	6	4	SIC	139	RC	2	0	23VC	1	0	0.387776851654	-66.0	180.0	-63	178	1
1.7	2015_Jul_24_1514	s	s	6	4	SIC	140	RC	1	0	23MC	0	1	1.13842201233	-169.0	-50.0	None	None	0
1.7	2015_Jul_24_1514	s	s	6	4	SIC	141	ABS	1	2	24MD	0	1	0.618310928345	None	None	None	None	1
1.7	2015_Jul_24_1514	s	s	6	4	SIC	142	RC	1	2	23MD	1	0	0.394369125366	-53.0	-16.0	-49	-18	1
1.7	2015_Jul_24_1514	s	s	6	4	SIC	143	ABS	1	1	24MO	0	1	0.764394044876	None	None	None	None	1
1.7	2015_Jul_24_1514	s	s	6	4	SIC	144	RC	0	2	23RD	1	0	0.512356996536	-527.0	-32.0	-523	-28	1
1.7	2015_Jul_24_1514	s	s	6	4	SIC	145	ABS	2	1	24VO	0	1	0.477063894272	None	None	None	None	1
1.7	2015_Jul_24_1514	s	s	6	4	SIC	146	RC	0	2	23RD	1	0	0.434925079346	-166.0	260.0	-165	259	1
1.7	2015_Jul_24_1514	s	s	6	4	SIC	147	ABS	2	2	24VD	0	1	0.411286115646	None	None	None	None	1
1.7	2015_Jul_24_1514	s	s	6	4	SIC	148	ABS	1	0	24MC	0	1	0.724250078201	None	None	None	None	1
1.7	2015_Jul_24_1514	s	s	6	4	SIC	149	RC	2	0	23VC	1	0	0.561735868454	-475.0	83.0	-481	82	1
1.7	2015_Jul_24_1514	s	s	6	4	SIC	150	RC	1	0	23MC	0	1	1.22083520889	-355.0	-390.0	None	None	0
1.7	2015_Jul_24_1514	s	s	6	4	SIC	151	ABS	0	2	24RD	0	1	0.653642892838	None	None	None	None	1
1.7	2015_Jul_24_1514	s	s	6	4	SIC	152	ABS	2	0	24VC	0	1	0.513688087463	None	None	None	None	1
1.7	2015_Jul_24_1514	s	s	6	4	SIC	153	RC	2	2	23VD	1	0	0.841880083084	-62.0	198.0	-64	198	1
1.7	2015_Jul_24_1514	s	s	6	4	SIC	154	RC	2	1	23VO	1	0	0.423442840576	432.0	-73.0	437	-77	1
1.7	2015_Jul_24_1514	s	s	6	4	SIC	155	ABS	1	2	24MD	0	1	0.571438074112	None	None	None	None	1
1.7	2015_Jul_24_1514	s	s	6	4	SIC	156	ABS	0	1	24RO	0	1	9.01004695892	None	None	None	None	1
1.7	2015_Jul_24_1514	s	s	6	4	SIC	157	RC	1	2	23MD	1	0	0.858610153198	248.0	181.0	255	176	1
1.7	2015_Jul_24_1514	s	s	6	4	SIC	158	RC	0	1	23RO	0	1	3.34885907173	438.0	269.0	None	None	0
1.7	2015_Jul_24_1514	s	s	6	4	SIC	159	RC	1	1	23MO	1	0	0.973335027695	-113.0	252.0	-116	245	1
1.7	2015_Jul_24_1514	s	s	6	4	SIC	160	ABS	1	1	24MO	0	1	2.07765603065	None	None	None	None	1
1.7	2015_Jul_24_1514	s	s	6	4	SIC	161	RC	0	2	23RD	1	0	0.488874197006	141.0	189.0	145	192	1
1.7	2015_Jul_24_1514	s	s	6	4	SIC	162	ABS	2	2	24VD	0	1	0.647022008896	None	None	None	None	1
1.7	2015_Jul_24_1514	s	s	6	4	SIC	163	RC	1	0	23MC	0	1	0.853037118912	432.0	-247.0	None	None	0
1.7	2015_Jul_24_1514	s	s	6	4	SIC	164	ABS	1	2	24MD	0	1	0.670738935471	None	None	None	None	1
1.7	2015_Jul_24_1514	s	s	6	4	SIC	165	RC	1	2	23MD	1	0	0.517645835876	-74.0	-48.0	-77	-47	1
1.7	2015_Jul_24_1514	s	s	6	4	SIC	166	RC	2	2	23VD	1	0	0.49369597435	-489.0	-221.0	-492	-221	1
1.7	2015_Jul_24_1514	s	s	6	4	SIC	167	ABS	0	2	24RD	0	1	0.623210191727	None	None	None	None	1
1.7	2015_Jul_24_1514	s	s	6	4	SIC	168	RC	1	1	23MO	1	0	0.947855949402	-437.0	118.0	-438	114	1
1.7	2015_Jul_24_1514	s	s	6	4	SIC	169	ABS	2	0	24VC	0	1	0.570993900299	None	None	None	None	1
1.7	2015_Jul_24_1514	s	s	6	4	SIC	170	RC	2	0	23VC	1	0	0.482301950455	2.0	-56.0	5	-57	1
1.7	2015_Jul_24_1514	s	s	6	4	SIC	171	ABS	1	0	24MC	0	1	1.01992297173	None	None	None	None	1
1.7	2015_Jul_24_1514	s	s	6	4	SIC	172	ABS	1	1	24MO	0	1	0.705628871918	None	None	None	None	1
1.7	2015_Jul_24_1514	s	s	6	4	SIC	173	RC	0	1	23RO	0	1	1.04356408119	456.0	-302.0	None	None	0
1.7	2015_Jul_24_1514	s	s	6	4	SIC	174	RC	2	1	23VO	1	0	0.511619091034	518.0	-109.0	524	-107	1
1.7	2015_Jul_24_1514	s	s	6	4	SIC	175	ABS	2	1	24VO	0	1	0.576173067093	None	None	None	None	1
1.7	2015_Jul_24_1514	s	s	6	4	SIC	176	ABS	0	1	24RO	0	1	2.18394112587	None	None	None	None	1
1.7	2015_Jul_24_1514	s	s	6	4	SIC	177	ABS	1	1	24MO	0	1	1.03517913818	None	None	None	None	1
1.7	2015_Jul_24_1514	s	s	6	4	SIC	178	ABS	2	1	24VO	0	1	0.585041046143	None	None	None	None	1
1.7	2015_Jul_24_1514	s	s	6	4	SIC	179	RC	0	1	23RO	1	0	1.50599908829	-291.0	-8.0	-292	-8	1
1.7	2015_Jul_24_1514	s	s	6	4	SIC	180	RC	2	2	23VD	1	0	0.465468168259	482.0	153.0	487	151	1
1.7	2015_Jul_24_1514	s	s	6	4	SIC	181	RC	2	1	23VO	1	0	0.705525875092	-368.0	393.0	-378	397	1
1.7	2015_Jul_24_1514	s	s	6	4	SIC	182	RC	0	2	23RD	1	0	0.783144950867	-286.0	332.0	-281	336	1
1.7	2015_Jul_24_1514	s	s	6	4	SIC	183	ABS	1	0	24MC	0	1	1.83086180687	None	None	None	None	1
1.7	2015_Jul_24_1514	s	s	6	4	SIC	184	RC	1	1	23MO	1	0	0.583072900772	-485.0	77.0	-483	79	1
1.7	2015_Jul_24_1514	s	s	6	4	SIC	185	ABS	0	2	24RD	0	1	0.729120016098	None	None	None	None	1
1.7	2015_Jul_24_1514	s	s	6	4	SIC	186	RC	1	0	23MC	1	0	1.21177816391	217.0	0.0	221	-1	1
1.7	2015_Jul_24_1514	s	s	6	4	SIC	187	RC	1	2	23MD	1	0	0.477068901062	70.0	267.0	71	265	1
1.7	2015_Jul_24_1514	s	s	6	4	SIC	188	ABS	2	2	24VD	0	1	0.4701359272	None	None	None	None	1
1.7	2015_Jul_24_1514	s	s	6	4	SIC	189	ABS	2	0	24VC	0	1	0.481923103333	None	None	None	None	1
1.7	2015_Jul_24_1514	s	s	6	4	SIC	190	ABS	1	2	24MD	0	1	0.481997966766	None	None	None	None	1
1.7	2015_Jul_24_1514	s	s	6	4	SIC	191	ABS	0	1	24RO	0	1	2.54173111916	None	None	None	None	1
1.7	2015_Jul_24_1514	s	s	6	4	SIC	192	RC	2	0	23VC	1	0	0.500701904297	89.0	-353.0	87	-348	1
1.7	2015_Jul_24_1514	s	s	6	4	SIC	193	ABS	1	0	24MC	0	1	0.61151099205	None	None	None	None	1
1.7	2015_Jul_24_1514	s	s	6	4	SIC	194	RC	2	2	23VD	1	0	0.587908029556	408.0	-138.0	404	-141	1
1.7	2015_Jul_24_1514	s	s	6	4	SIC	195	ABS	2	1	24VO	0	1	0.464653968811	None	None	None	None	1
1.7	2015_Jul_24_1514	s	s	6	4	SIC	196	RC	1	2	23MD	1	0	0.664801120758	-5.0	296.0	6	298	1
1.7	2015_Jul_24_1514	s	s	6	4	SIC	197	RC	2	1	23VO	1	0	0.399477005005	150.0	-215.0	147	-214	1
1.7	2015_Jul_24_1514	s	s	6	4	SIC	198	ABS	0	2	24RD	0	1	0.540816068649	None	None	None	None	1
1.7	2015_Jul_24_1514	s	s	6	4	SIC	199	RC	0	1	23RO	0	1	1.38574790955	-196.0	338.0	None	None	0
1.7	2015_Jul_24_1514	s	s	6	4	SIC	200	ABS	0	1	24RO	0	1	0.935971021652	None	None	None	None	1
1.7	2015_Jul_24_1514	s	s	6	4	SIC	201	ABS	1	1	24MO	0	1	0.599680900574	None	None	None	None	1
1.7	2015_Jul_24_1514	s	s	6	4	SIC	202	ABS	1	2	24MD	0	1	0.618303060532	None	None	None	None	1
1.7	2015_Jul_24_1514	s	s	6	4	SIC	203	RC	1	0	23MC	1	0	2.0827870369	-150.0	-197.0	-147	-199	1
1.7	2015_Jul_24_1514	s	s	6	4	SIC	204	RC	2	0	23VC	1	0	0.4232609272	203.0	222.0	198	223	1
1.7	2015_Jul_24_1514	s	s	6	4	SIC	205	RC	0	2	23RD	1	0	0.688238859177	125.0	-307.0	121	-310	1
1.7	2015_Jul_24_1514	s	s	6	4	SIC	206	RC	1	1	23MO	1	0	0.606366157532	66.0	215.0	72	211	1
1.7	2015_Jul_24_1514	s	s	6	4	SIC	207	ABS	2	2	24VD	0	1	0.547757863998	None	None	None	None	1
1.7	2015_Jul_24_1514	s	s	6	4	SIC	208	ABS	2	0	24VC	0	1	2.19688105583	None	None	None	None	1
1.7	2015_Jul_24_1514	s	s	6	4	SIC	209	ABS	2	2	24VD	0	1	2.97724604607	None	None	None	None	1
1.7	2015_Jul_24_1514	s	s	6	4	SIC	210	ABS	1	2	24MD	0	1	1.21906781197	None	None	None	None	1
1.7	2015_Jul_24_1514	s	s	6	4	SIC	211	RC	1	1	23MO	0	1	0.747902154922	487.0	120.0	None	None	0
1.7	2015_Jul_24_1514	s	s	6	4	SIC	212	RC	0	2	23RD	1	0	1.52448797226	-501.0	-165.0	-493	-164	1
1.7	2015_Jul_24_1514	s	s	6	4	SIC	213	RC	1	2	23MD	1	0	0.929141998291	49.0	239.0	45	242	1
1.7	2015_Jul_24_1514	s	s	6	4	SIC	214	RC	2	0	23VC	1	0	0.417432069778	-40.0	-304.0	-40	-309	1
1.7	2015_Jul_24_1514	s	s	6	4	SIC	215	ABS	0	2	24RD	0	1	0.658540010452	None	None	None	None	1
1.7	2015_Jul_24_1514	s	s	6	4	SIC	216	ABS	2	0	24VC	0	1	0.491151094437	None	None	None	None	1
1.7	2015_Jul_24_1514	s	s	6	4	SIC	217	RC	2	1	23VO	1	0	0.395491123199	-331.0	12.0	-342	12	1
1.7	2015_Jul_24_1514	s	s	6	4	SIC	218	ABS	1	0	24MC	0	1	0.817281961441	None	None	None	None	1
1.7	2015_Jul_24_1514	s	s	6	4	SIC	219	ABS	1	1	24MO	0	1	0.973618030548	None	None	None	None	1
1.7	2015_Jul_24_1514	s	s	6	4	SIC	220	ABS	2	1	24VO	0	1	0.465325117111	None	None	None	None	1
1.7	2015_Jul_24_1514	s	s	6	4	SIC	221	RC	0	1	23RO	0	1	2.03256011009	371.0	-163.0	None	None	0
1.7	2015_Jul_24_1514	s	s	6	4	SIC	222	RC	1	0	23MC	1	0	1.74813199043	308.0	-408.0	32	72	0
1.7	2015_Jul_24_1514	s	s	6	4	SIC	223	RC	2	2	23VD	1	0	0.458419084549	408.0	89.0	408	94	1
1.7	2015_Jul_24_1514	s	s	6	4	SIC	224	ABS	0	1	24RO	0	1	4.91977500916	None	None	None	None	1
1.7	2015_Jul_24_1514	s	s	6	4	SIC	225	ABS	0	1	24RO	0	1	5.16710400581	None	None	None	None	1
1.7	2015_Jul_24_1514	s	s	6	4	SIC	226	RC	1	0	23MC	1	0	0.900734186172	353.0	-34.0	346	-39	1
1.7	2015_Jul_24_1514	s	s	6	4	SIC	227	ABS	2	1	24VO	0	1	0.429975986481	None	None	None	None	1
1.7	2015_Jul_24_1514	s	s	6	4	SIC	228	RC	1	1	23MO	1	0	0.576153039932	89.0	211.0	86	214	1
1.7	2015_Jul_24_1514	s	s	6	4	SIC	229	RC	1	2	23MD	1	0	0.446646928787	-57.0	155.0	-62	144	1
1.7	2015_Jul_24_1514	s	s	6	4	SIC	230	RC	2	0	23VC	1	0	0.340975046158	-18.0	79.0	-17	78	1
1.7	2015_Jul_24_1514	s	s	6	4	SIC	231	ABS	1	1	24MO	0	1	0.799743175507	None	None	None	None	1
1.7	2015_Jul_24_1514	s	s	6	4	SIC	232	RC	2	1	23VO	0	1	0.458441972733	265.0	287.0	None	None	0
1.7	2015_Jul_24_1514	s	s	6	4	SIC	233	RC	0	1	23RO	1	0	4.30760598183	312.0	-107.0	317	-103	1
1.7	2015_Jul_24_1514	s	s	6	4	SIC	234	ABS	2	2	24VD	0	1	0.511874914169	None	None	None	None	1
1.7	2015_Jul_24_1514	s	s	6	4	SIC	235	RC	0	2	23RD	1	0	0.453430891037	283.0	-66.0	285	-73	1
1.7	2015_Jul_24_1514	s	s	6	4	SIC	236	ABS	0	2	24RD	0	1	0.847200870514	None	None	None	None	1
1.7	2015_Jul_24_1514	s	s	6	4	SIC	237	ABS	1	2	24MD	0	1	0.608334779739	None	None	None	None	1
1.7	2015_Jul_24_1514	s	s	6	4	SIC	238	ABS	2	0	24VC	0	1	0.564392089844	None	None	None	None	1
1.7	2015_Jul_24_1514	s	s	6	4	SIC	239	ABS	1	0	24MC	0	1	1.2828271389	None	None	None	None	1
1.7	2015_Jul_24_1514	s	s	6	4	SIC	240	RC	2	2	23VD	1	0	0.434923887253	-172.0	-85.0	-173	-87	1
1.7	2015_Jul_24_1514	s	s	6	4	SIC	241	ABS	2	0	24VC	0	1	0.517241001129	None	None	None	None	1
1.7	2015_Jul_24_1514	s	s	6	4	SIC	242	RC	1	2	23MD	1	0	0.501523971558	103.0	-345.0	101	-346	1
1.7	2015_Jul_24_1514	s	s	6	4	SIC	243	ABS	1	1	24MO	0	1	0.655789136887	None	None	None	None	1
1.7	2015_Jul_24_1514	s	s	6	4	SIC	244	RC	2	0	23VC	1	0	0.446734905243	273.0	255.0	274	237	1
1.7	2015_Jul_24_1514	s	s	6	4	SIC	245	ABS	2	1	24VO	0	1	0.505529165268	None	None	None	None	1
1.7	2015_Jul_24_1514	s	s	6	4	SIC	246	RC	0	1	23RO	0	1	1.62370991707	248.0	241.0	None	None	0
1.7	2015_Jul_24_1514	s	s	6	4	SIC	247	ABS	2	2	24VD	0	1	0.431491851807	None	None	None	None	1
1.7	2015_Jul_24_1514	s	s	6	4	SIC	248	ABS	0	1	24RO	0	1	2.32977604866	None	None	None	None	1
1.7	2015_Jul_24_1514	s	s	6	4	SIC	249	ABS	0	2	24RD	0	1	0.58341383934	None	None	None	None	1
1.7	2015_Jul_24_1514	s	s	6	4	SIC	250	ABS	1	2	24MD	0	1	0.689460039139	None	None	None	None	1
1.7	2015_Jul_24_1514	s	s	6	4	SIC	251	RC	0	2	23RD	1	0	0.594679832458	-252.0	-219.0	-258	-212	1
1.7	2015_Jul_24_1514	s	s	6	4	SIC	252	RC	1	1	23MO	1	0	0.576042890549	443.0	-116.0	451	-115	1
1.7	2015_Jul_24_1514	s	s	6	4	SIC	253	RC	2	1	23VO	1	0	0.441427946091	327.0	-130.0	324	-138	1
1.7	2015_Jul_24_1514	s	s	6	4	SIC	254	RC	2	2	23VD	1	0	0.44148516655	424.0	-190.0	431	-192	1
1.7	2015_Jul_24_1514	s	s	6	4	SIC	255	ABS	1	0	24MC	0	1	1.68919205666	None	None	None	None	1
1.7	2015_Jul_24_1514	s	s	6	4	SIC	256	RC	1	0	23MC	1	0	1.37656092644	-406.0	6.0	-397	3	1
1.7	2015_Jul_24_1514	s	s	6	4	SIC	257	ABS	1	1	24MO	1	0	0.865982055664	None	None	33	-32	0
1.7	2015_Jul_24_1514	s	s	6	4	SIC	258	RC	0	1	23RO	0	1	3.72561502457	-24.0	-57.0	None	None	0
1.7	2015_Jul_24_1514	s	s	6	4	SIC	259	RC	1	1	23MO	1	0	1.12934398651	211.0	362.0	213	364	1
1.7	2015_Jul_24_1514	s	s	6	4	SIC	260	RC	0	2	23RD	1	0	0.717424154282	325.0	-307.0	327	-310	1
1.7	2015_Jul_24_1514	s	s	6	4	SIC	261	ABS	2	1	24VO	0	1	0.476932048798	None	None	None	None	1
1.7	2015_Jul_24_1514	s	s	6	4	SIC	262	ABS	0	2	24RD	0	1	0.882123947144	None	None	None	None	1
1.7	2015_Jul_24_1514	s	s	6	4	SIC	263	ABS	1	2	24MD	0	1	0.490592956543	None	None	None	None	1
1.7	2015_Jul_24_1514	s	s	6	4	SIC	264	ABS	0	1	24RO	0	1	1.36104893684	None	None	None	None	1
1.7	2015_Jul_24_1514	s	s	6	4	SIC	265	RC	1	2	23MD	1	0	0.479312896729	135.0	-134.0	130	-133	1
1.7	2015_Jul_24_1514	s	s	6	4	SIC	266	RC	2	2	23VD	1	0	0.429798841476	381.0	329.0	375	321	1
1.7	2015_Jul_24_1514	s	s	6	4	SIC	267	RC	2	0	23VC	1	0	0.418243169785	-271.0	-336.0	-275	-331	1
1.7	2015_Jul_24_1514	s	s	6	4	SIC	268	RC	1	0	23MC	1	0	0.806077003479	-445.0	-139.0	-449	-146	1
1.7	2015_Jul_24_1514	s	s	6	4	SIC	269	RC	2	1	23VO	1	0	0.406268119812	-176.0	25.0	-174	25	1
1.7	2015_Jul_24_1514	s	s	6	4	SIC	270	ABS	2	0	24VC	1	0	0.501303911209	None	None	154	175	0
1.7	2015_Jul_24_1514	s	s	6	4	SIC	271	ABS	2	2	24VD	0	1	1.45385098457	None	None	None	None	1
1.7	2015_Jul_24_1514	s	s	6	4	SIC	272	ABS	1	0	24MC	0	1	1.17664599419	None	None	None	None	1
1.7	2015_Jul_24_1514	s	s	6	4	SIC	273	ABS	0	2	24RD	0	1	0.547445058823	None	None	None	None	1
1.7	2015_Jul_24_1514	s	s	6	4	SIC	274	RC	2	2	23VD	1	0	0.512239933014	-492.0	177.0	-496	172	1
1.7	2015_Jul_24_1514	s	s	6	4	SIC	275	RC	2	1	23VO	1	0	0.552893877029	482.0	-321.0	485	-318	1
1.7	2015_Jul_24_1514	s	s	6	4	SIC	276	ABS	1	0	24MC	0	1	0.618228197098	None	None	None	None	1
1.7	2015_Jul_24_1514	s	s	6	4	SIC	277	RC	1	0	23MC	1	0	1.05856513977	-346.0	70.0	-350	71	1
1.7	2015_Jul_24_1514	s	s	6	4	SIC	278	RC	2	0	23VC	1	0	0.500323057175	-353.0	195.0	-345	199	1
1.7	2015_Jul_24_1514	s	s	6	4	SIC	279	ABS	2	1	24VO	0	1	0.476572990417	None	None	None	None	1
1.7	2015_Jul_24_1514	s	s	6	4	SIC	280	RC	1	2	23MD	1	0	0.487648010254	-150.0	371.0	-144	371	1
1.7	2015_Jul_24_1514	s	s	6	4	SIC	281	ABS	1	1	24MO	0	1	0.976287126541	None	None	None	None	1
1.7	2015_Jul_24_1514	s	s	6	4	SIC	282	RC	0	1	23RO	0	1	2.20046687126	-491.0	-217.0	None	None	0
1.7	2015_Jul_24_1514	s	s	6	4	SIC	283	ABS	2	2	24VD	0	1	0.431593894958	None	None	None	None	1
1.7	2015_Jul_24_1514	s	s	6	4	SIC	284	ABS	2	0	24VC	0	1	0.505506038666	None	None	None	None	1
1.7	2015_Jul_24_1514	s	s	6	4	SIC	285	RC	0	2	23RD	1	0	0.740921974182	-345.0	-314.0	-339	-312	1
1.7	2015_Jul_24_1514	s	s	6	4	SIC	286	ABS	1	2	24MD	0	1	0.523943901062	None	None	None	None	1
1.7	2015_Jul_24_1514	s	s	6	4	SIC	287	ABS	0	1	24RO	0	1	3.28340101242	None	None	None	None	1
1.7	2015_Jul_24_1514	s	s	6	4	SIC	288	RC	1	1	23MO	0	1	1.57107806206	172.0	-366.0	None	None	0
1.7	2015_Jul_24_1514	s	s	6	4	SIC	289	ABS	2	2	24VD	0	1	0.423140048981	None	None	None	None	1
1.7	2015_Jul_24_1514	s	s	6	4	SIC	290	ABS	1	0	24MC	0	1	1.65898084641	None	None	None	None	1
1.7	2015_Jul_24_1514	s	s	6	4	SIC	291	ABS	2	1	24VO	0	1	0.434880971909	None	None	None	None	1
1.7	2015_Jul_24_1514	s	s	6	4	SIC	292	ABS	0	1	24RO	0	1	2.16556596756	None	None	None	None	1
1.7	2015_Jul_24_1514	s	s	6	4	SIC	293	RC	1	1	23MO	1	0	0.806726932526	208.0	257.0	219	257	1
1.7	2015_Jul_24_1514	s	s	6	4	SIC	294	ABS	1	2	24MD	0	1	0.568012952805	None	None	None	None	1
1.7	2015_Jul_24_1514	s	s	6	4	SIC	295	RC	1	2	23MD	1	0	0.670275211334	314.0	-195.0	315	-195	1
1.7	2015_Jul_24_1514	s	s	6	4	SIC	296	RC	2	2	23VD	1	0	0.415011167526	236.0	-364.0	243	-362	1
1.7	2015_Jul_24_1514	s	s	6	4	SIC	297	RC	0	1	23RO	0	1	3.75050902367	414.0	169.0	None	None	0
1.7	2015_Jul_24_1514	s	s	6	4	SIC	298	RC	0	2	23RD	0	1	0.571554899216	417.0	-350.0	None	None	0
1.7	2015_Jul_24_1514	s	s	6	4	SIC	299	ABS	0	2	24RD	0	1	0.796031951904	None	None	None	None	1
1.7	2015_Jul_24_1514	s	s	6	4	SIC	300	RC	2	0	23VC	1	0	0.41982293129	246.0	-330.0	248	-327	1
1.7	2015_Jul_24_1514	s	s	6	4	SIC	301	ABS	1	1	24MO	0	1	0.823317050934	None	None	None	None	1
1.7	2015_Jul_24_1514	s	s	6	4	SIC	302	RC	1	0	23MC	0	1	0.858431100845	251.0	-191.0	None	None	0
1.7	2015_Jul_24_1514	s	s	6	4	SIC	303	ABS	2	0	24VC	0	1	0.387820005417	None	None	None	None	1
1.7	2015_Jul_24_1514	s	s	6	4	SIC	304	RC	2	1	23VO	1	0	0.47554898262	26.0	-92.0	21	-103	1
1.7	2015_Jul_24_1514	s	s	6	4	SIC	305	RC	1	1	23MO	0	1	1.37205481529	-201.0	-396.0	None	None	0
1.7	2015_Jul_24_1514	s	s	6	4	SIC	306	ABS	0	2	24RD	0	1	0.558752059937	None	None	None	None	1
1.7	2015_Jul_24_1514	s	s	6	4	SIC	307	RC	1	2	23MD	1	0	0.712255001068	-141.0	-402.0	-137	-408	1
1.7	2015_Jul_24_1514	s	s	6	4	SIC	308	RC	2	2	23VD	1	0	0.5008020401	463.0	207.0	460	201	1
1.7	2015_Jul_24_1514	s	s	6	4	SIC	309	ABS	1	2	24MD	0	1	0.58292388916	None	None	None	None	1
1.7	2015_Jul_24_1514	s	s	6	4	SIC	310	RC	2	0	23VC	1	0	0.467751026154	313.0	204.0	314	200	1
1.7	2015_Jul_24_1514	s	s	6	4	SIC	311	ABS	1	1	24MO	0	1	0.705593109131	None	None	None	None	1
1.7	2015_Jul_24_1514	s	s	6	4	SIC	312	ABS	2	0	24VC	0	1	0.423336982727	None	None	None	None	1
1.7	2015_Jul_24_1514	s	s	6	4	SIC	313	RC	0	2	23RD	1	0	0.670300006866	-84.0	-312.0	-83	-316	1
1.7	2015_Jul_24_1514	s	s	6	4	SIC	314	ABS	2	2	24VD	0	1	0.441066026688	None	None	None	None	1
1.7	2015_Jul_24_1514	s	s	6	4	SIC	315	RC	1	0	23MC	1	0	1.08897590637	-413.0	352.0	-406	351	1
1.7	2015_Jul_24_1514	s	s	6	4	SIC	316	RC	0	1	23RO	0	1	0.94704914093	-210.0	380.0	None	None	0
1.7	2015_Jul_24_1514	s	s	6	4	SIC	317	ABS	2	1	24VO	0	1	0.481933832169	None	None	None	None	1
1.7	2015_Jul_24_1514	s	s	6	4	SIC	318	ABS	0	1	24RO	0	1	0.582868099213	None	None	None	None	1
1.7	2015_Jul_24_1514	s	s	6	4	SIC	319	ABS	1	0	24MC	0	1	0.867298841476	None	None	None	None	1
1.7	2015_Jul_24_1514	s	s	6	4	SIC	320	RC	2	1	23VO	1	0	0.465546131134	309.0	-391.0	299	-392	1
1.7	2015_Jul_24_1514	s	s	6	4	SIC	321	RC	1	0	23MC	1	0	0.655899047852	338.0	9.0	342	6	1
1.7	2015_Jul_24_1514	s	s	6	4	SIC	322	RC	1	1	23MO	0	1	0.773524999619	-346.0	364.0	None	None	0
1.7	2015_Jul_24_1514	s	s	6	4	SIC	323	ABS	0	2	24RD	0	1	0.547610998154	None	None	None	None	1
1.7	2015_Jul_24_1514	s	s	6	4	SIC	324	ABS	1	1	24MO	0	1	0.618417978287	None	None	None	None	1
1.7	2015_Jul_24_1514	s	s	6	4	SIC	325	ABS	1	2	24MD	0	1	0.476799964905	None	None	None	None	1
1.7	2015_Jul_24_1514	s	s	6	4	SIC	326	ABS	1	0	24MC	0	1	1.02344489098	None	None	None	None	1
1.7	2015_Jul_24_1514	s	s	6	4	SIC	327	RC	1	2	23MD	1	0	0.547612905502	-176.0	-130.0	-174	-134	1
1.7	2015_Jul_24_1514	s	s	6	4	SIC	328	RC	2	2	23VD	1	0	0.505523920059	461.0	376.0	452	372	1
1.7	2015_Jul_24_1514	s	s	6	4	SIC	329	ABS	2	1	24VO	0	1	0.512137889862	None	None	None	None	1
1.7	2015_Jul_24_1514	s	s	6	4	SIC	330	RC	2	0	23VC	1	0	0.441482067108	-56.0	26.0	-43	29	1
1.7	2015_Jul_24_1514	s	s	6	4	SIC	331	RC	2	1	23VO	1	0	0.500471830368	-536.0	-226.0	-541	-230	1
1.7	2015_Jul_24_1514	s	s	6	4	SIC	332	ABS	2	0	24VC	0	1	0.536018133163	None	None	None	None	1
1.7	2015_Jul_24_1514	s	s	6	4	SIC	333	RC	0	2	23RD	1	0	0.6300740242	-354.0	222.0	-361	222	1
1.7	2015_Jul_24_1514	s	s	6	4	SIC	334	RC	0	1	23RO	1	0	1.81202411652	-358.0	134.0	-359	139	1
1.7	2015_Jul_24_1514	s	s	6	4	SIC	335	ABS	2	2	24VD	0	1	0.453195095062	None	None	None	None	1
1.7	2015_Jul_24_1514	s	s	6	4	SIC	336	ABS	0	1	24RO	0	1	1.09406089783	None	None	None	None	1
1.7	2015_Jul_24_1514	s	s	6	4	SIC	337	RC	2	2	23VD	0	1	0.376461029053	153.0	-55.0	None	None	0
1.7	2015_Jul_24_1514	s	s	6	4	SIC	338	ABS	0	2	24RD	0	1	0.629296064377	None	None	None	None	1
1.7	2015_Jul_24_1514	s	s	6	4	SIC	339	RC	1	2	23MD	1	0	0.513516187668	-456.0	-228.0	-463	-225	1
1.7	2015_Jul_24_1514	s	s	6	4	SIC	340	RC	1	1	23MO	0	1	1.80030488968	399.0	-317.0	None	None	0
1.7	2015_Jul_24_1514	s	s	6	4	SIC	341	ABS	2	2	24VD	0	1	0.430000066757	None	None	None	None	1
1.7	2015_Jul_24_1514	s	s	6	4	SIC	342	ABS	2	0	24VC	1	0	0.573249101639	None	None	-24	-2	0
1.7	2015_Jul_24_1514	s	s	6	4	SIC	343	ABS	1	1	24MO	0	1	0.94101190567	None	None	None	None	1
1.7	2015_Jul_24_1514	s	s	6	4	SIC	344	RC	2	0	23VC	1	0	0.538212060928	366.0	-26.0	355	-26	1
1.7	2015_Jul_24_1514	s	s	6	4	SIC	345	ABS	0	1	24RO	0	1	3.08333301544	None	None	None	None	1
1.7	2015_Jul_24_1514	s	s	6	4	SIC	346	RC	2	1	23VO	1	0	0.658580064774	-117.0	137.0	-110	133	1
1.7	2015_Jul_24_1514	s	s	6	4	SIC	347	RC	1	0	23MC	1	0	0.811499834061	-249.0	-131.0	-246	-128	1
1.7	2015_Jul_24_1514	s	s	6	4	SIC	348	RC	0	1	23RO	1	0	0.693779945374	158.0	43.0	166	47	1
1.7	2015_Jul_24_1514	s	s	6	4	SIC	349	ABS	1	0	24MC	0	1	1.98316597939	None	None	None	None	1
1.7	2015_Jul_24_1514	s	s	6	4	SIC	350	RC	0	2	23RD	1	0	0.490896940231	15.0	381.0	10	380	1
1.7	2015_Jul_24_1514	s	s	6	4	SIC	351	ABS	2	1	24VO	0	1	0.488771915436	None	None	None	None	1
1.7	2015_Jul_24_1514	s	s	6	4	SIC	352	ABS	1	2	24MD	0	1	0.523995876312	None	None	None	None	1
1.7	2015_Jul_24_1514	s	s	6	4	SIC	353	RC	1	0	23MC	0	1	1.50602698326	462.0	73.0	None	None	0
1.7	2015_Jul_24_1514	s	s	6	4	SIC	354	RC	1	2	23MD	1	0	1.01165509224	473.0	200.0	467	206	1
1.7	2015_Jul_24_1514	s	s	6	4	SIC	355	ABS	2	0	24VC	0	1	0.587912082672	None	None	None	None	1
1.7	2015_Jul_24_1514	s	s	6	4	SIC	356	RC	0	1	23RO	0	1	1.61993694305	-39.0	188.0	None	None	0
1.7	2015_Jul_24_1514	s	s	6	4	SIC	357	ABS	2	2	24VD	0	1	0.429383993149	None	None	None	None	1
1.7	2015_Jul_24_1514	s	s	6	4	SIC	358	RC	0	2	23RD	1	0	0.80620598793	176.0	-337.0	177	-342	1
1.7	2015_Jul_24_1514	s	s	6	4	SIC	359	RC	1	1	23MO	1	0	1.47065591812	439.0	-124.0	441	-128	1
1.7	2015_Jul_24_1514	s	s	6	4	SIC	360	ABS	1	0	24MC	0	1	1.1176199913	None	None	None	None	1
1.7	2015_Jul_24_1514	s	s	6	4	SIC	361	ABS	1	1	24MO	0	1	0.682281017303	None	None	None	None	1
1.7	2015_Jul_24_1514	s	s	6	4	SIC	362	ABS	1	2	24MD	0	1	0.523993015289	None	None	None	None	1
1.7	2015_Jul_24_1514	s	s	6	4	SIC	363	ABS	2	1	24VO	0	1	0.52405500412	None	None	None	None	1
1.7	2015_Jul_24_1514	s	s	6	4	SIC	364	RC	2	0	23VC	1	0	0.477017879486	-286.0	378.0	-282	367	1
1.7	2015_Jul_24_1514	s	s	6	4	SIC	365	ABS	0	2	24RD	0	1	0.606372117996	None	None	None	None	1
1.7	2015_Jul_24_1514	s	s	6	4	SIC	366	RC	2	1	23VO	1	0	0.417889118195	-455.0	-29.0	-443	-28	1
1.7	2015_Jul_24_1514	s	s	6	4	SIC	367	ABS	0	1	24RO	0	1	0.76174902916	None	None	None	None	1
1.7	2015_Jul_24_1514	s	s	6	4	SIC	368	RC	2	2	23VD	1	0	0.385101079941	39.0	-373.0	44	-372	1
1.7	2015_Jul_24_1514	s	s	6	4	SIC	369	ABS	2	1	24VO	0	1	0.458451986313	None	None	None	None	1
1.7	2015_Jul_24_1514	s	s	6	4	SIC	370	RC	1	0	23MC	0	1	2.80079388618	51.0	-364.0	None	None	0
1.7	2015_Jul_24_1514	s	s	6	4	SIC	371	RC	2	0	23VC	1	0	0.434823036194	-49.0	-145.0	-50	-154	1
1.7	2015_Jul_24_1514	s	s	6	4	SIC	372	ABS	2	2	24VD	0	1	0.491029977798	None	None	None	None	1
1.7	2015_Jul_24_1514	s	s	6	4	SIC	373	ABS	2	0	24VC	0	1	0.502845048904	None	None	None	None	1
1.7	2015_Jul_24_1514	s	s	6	4	SIC	374	RC	1	1	23MO	0	1	2.83606696129	209.0	-365.0	None	None	0
1.7	2015_Jul_24_1514	s	s	6	4	SIC	375	RC	1	2	23MD	1	0	0.434851884842	180.0	158.0	178	157	1
1.7	2015_Jul_24_1514	s	s	6	4	SIC	376	ABS	1	1	24MO	0	1	1.06491994858	None	None	None	None	1
1.7	2015_Jul_24_1514	s	s	6	4	SIC	377	ABS	0	1	24RO	0	1	1.13664388657	None	None	None	None	1
1.7	2015_Jul_24_1514	s	s	6	4	SIC	378	RC	2	1	23VO	1	0	0.538084983826	412.0	213.0	411	215	1
1.7	2015_Jul_24_1514	s	s	6	4	SIC	379	ABS	0	2	24RD	0	1	0.417995929718	None	None	None	None	1
1.7	2015_Jul_24_1514	s	s	6	4	SIC	380	ABS	1	2	24MD	0	1	0.487285137177	None	None	None	None	1
1.7	2015_Jul_24_1514	s	s	6	4	SIC	381	ABS	1	0	24MC	0	1	0.829272985458	None	None	None	None	1
1.7	2015_Jul_24_1514	s	s	6	4	SIC	382	RC	0	2	23RD	1	0	0.748501062393	-516.0	252.0	-519	250	1
1.7	2015_Jul_24_1514	s	s	6	4	SIC	383	RC	2	2	23VD	1	0	0.465210914612	-481.0	-301.0	-481	-296	1
1.7	2015_Jul_24_1514	s	s	6	4	SIC	384	RC	0	1	23RO	0	1	1.07719802856	214.0	302.0	None	None	0
1.7	2015_Jul_24_1514	s	s	6	4	SIC	385	RC	1	1	23MO	0	1	0.588340997696	-151.0	-158.0	None	None	0
1.7	2015_Jul_24_1514	s	s	6	4	SIC	386	RC	2	0	23VC	1	0	0.517283916473	-399.0	289.0	-399	278	1
1.7	2015_Jul_24_1514	s	s	6	4	SIC	387	ABS	1	0	24MC	0	1	1.11757493019	None	None	None	None	1
1.7	2015_Jul_24_1514	s	s	6	4	SIC	388	ABS	0	2	24RD	0	1	0.594170093536	None	None	None	None	1
1.7	2015_Jul_24_1514	s	s	6	4	SIC	389	ABS	1	2	24MD	0	1	0.556238174438	None	None	None	None	1
1.7	2015_Jul_24_1514	s	s	6	4	SIC	390	ABS	2	2	24VD	0	1	0.394530057907	None	None	None	None	1
1.7	2015_Jul_24_1514	s	s	6	4	SIC	391	RC	1	2	23MD	1	0	0.45831990242	58.0	121.0	60	109	1
1.7	2015_Jul_24_1514	s	s	6	4	SIC	392	ABS	0	1	24RO	0	1	1.25379300117	None	None	None	None	1
1.7	2015_Jul_24_1514	s	s	6	4	SIC	393	RC	0	2	23RD	1	0	0.635011911392	-307.0	-275.0	-297	-269	1
1.7	2015_Jul_24_1514	s	s	6	4	SIC	394	RC	2	1	23VO	1	0	0.407217979431	380.0	326.0	384	320	1
1.7	2015_Jul_24_1514	s	s	6	4	SIC	395	RC	2	2	23VD	1	0	0.382750034332	534.0	381.0	541	374	1
1.7	2015_Jul_24_1514	s	s	6	4	SIC	396	ABS	1	1	24MO	0	1	0.641583919525	None	None	None	None	1
1.7	2015_Jul_24_1514	s	s	6	4	SIC	397	ABS	2	1	24VO	0	1	0.517267942429	None	None	None	None	1
1.7	2015_Jul_24_1514	s	s	6	4	SIC	398	RC	0	1	23RO	0	1	1.88267993927	-94.0	-134.0	None	None	0
1.7	2015_Jul_24_1514	s	s	6	4	SIC	399	ABS	2	0	24VC	0	1	0.505498170853	None	None	None	None	1
1.7	2015_Jul_24_1514	s	s	6	4	SIC	400	RC	1	0	23MC	1	0	0.935872077942	359.0	-50.0	368	-45	1
1.7	2015_Jul_24_1514	s	s	6	4	SIC	401	ABS	1	0	24MC	0	1	0.693823814392	None	None	None	None	1
1.7	2015_Jul_24_1514	s	s	6	4	SIC	402	ABS	0	1	24RO	0	1	0.776164054871	None	None	None	None	1
1.7	2015_Jul_24_1514	s	s	6	4	SIC	403	ABS	2	0	24VC	0	1	0.582901954651	None	None	None	None	1
1.7	2015_Jul_24_1514	s	s	6	4	SIC	404	ABS	0	2	24RD	0	1	0.658978939056	None	None	None	None	1
1.7	2015_Jul_24_1514	s	s	6	4	SIC	405	ABS	1	2	24MD	0	1	0.587978124619	None	None	None	None	1
1.7	2015_Jul_24_1514	s	s	6	4	SIC	406	RC	0	1	23RO	0	1	1.16472387314	-391.0	349.0	None	None	0
1.7	2015_Jul_24_1514	s	s	6	4	SIC	407	RC	2	0	23VC	1	0	0.387814044952	52.0	144.0	51	139	1
1.7	2015_Jul_24_1514	s	s	6	4	SIC	408	ABS	2	2	24VD	0	1	0.376024007797	None	None	None	None	1
1.7	2015_Jul_24_1514	s	s	6	4	SIC	409	ABS	1	1	24MO	0	1	0.493707895279	None	None	None	None	1
1.7	2015_Jul_24_1514	s	s	6	4	SIC	410	RC	2	2	23VD	1	0	0.371648073196	-358.0	266.0	-351	261	1
1.7	2015_Jul_24_1514	s	s	6	4	SIC	411	ABS	2	1	24VO	0	1	0.288553953171	None	None	None	None	1
1.7	2015_Jul_24_1514	s	s	6	4	SIC	412	RC	1	0	23MC	0	1	1.07707190514	379.0	-261.0	None	None	0
1.7	2015_Jul_24_1514	s	s	6	4	SIC	413	RC	0	2	23RD	1	0	0.42863702774	-45.0	232.0	-46	239	1
1.7	2015_Jul_24_1514	s	s	6	4	SIC	414	RC	1	1	23MO	0	1	0.835091114044	-217.0	-20.0	None	None	0
1.7	2015_Jul_24_1514	s	s	6	4	SIC	415	RC	1	2	23MD	1	0	0.423276901245	-215.0	-106.0	-214	-109	1
1.7	2015_Jul_24_1514	s	s	6	4	SIC	416	RC	2	1	23VO	1	0	0.453554153442	-211.0	-341.0	-207	-347	1
1.7	2015_Jul_24_1514	s	s	6	4	SIC	417	RC	1	1	23MO	0	1	0.770928859711	249.0	124.0	None	None	0
1.7	2015_Jul_24_1514	s	s	6	4	SIC	418	RC	0	1	23RO	0	1	1.11258387566	-30.0	-205.0	None	None	0
1.7	2015_Jul_24_1514	s	s	6	4	SIC	419	ABS	2	1	24VO	0	1	0.462059020996	None	None	None	None	1
1.7	2015_Jul_24_1514	s	s	6	4	SIC	420	ABS	1	0	24MC	0	1	0.643203020096	None	None	None	None	1
1.7	2015_Jul_24_1514	s	s	6	4	SIC	421	RC	1	0	23MC	1	0	0.865293979645	20.0	95.0	17	89	1
1.7	2015_Jul_24_1514	s	s	6	4	SIC	422	ABS	2	0	24VC	0	1	0.488089084625	None	None	None	None	1
1.7	2015_Jul_24_1514	s	s	6	4	SIC	423	RC	2	2	23VD	0	1	0.206199169159	5.0	9.0	None	None	0
1.7	2015_Jul_24_1514	s	s	6	4	SIC	424	ABS	1	1	24MO	0	1	0.925922870636	None	None	None	None	1
1.7	2015_Jul_24_1514	s	s	6	4	SIC	425	RC	1	2	23MD	1	0	0.470191001892	147.0	117.0	152	113	1
1.7	2015_Jul_24_1514	s	s	6	4	SIC	426	RC	2	1	23VO	1	0	0.411409139633	406.0	232.0	397	230	1
1.7	2015_Jul_24_1514	s	s	6	4	SIC	427	ABS	1	2	24MD	0	1	0.793879032135	None	None	None	None	1
1.7	2015_Jul_24_1514	s	s	6	4	SIC	428	ABS	0	1	24RO	0	1	1.28231191635	None	None	None	None	1
1.7	2015_Jul_24_1514	s	s	6	4	SIC	429	ABS	0	2	24RD	0	1	0.599720001221	None	None	None	None	1
1.7	2015_Jul_24_1514	s	s	6	4	SIC	430	RC	2	0	23VC	0	1	0.0464310646057	-115.0	-362.0	None	None	0
1.7	2015_Jul_24_1514	s	s	6	4	SIC	431	RC	0	2	23RD	1	0	0.882224082947	42.0	-146.0	49	-147	1
1.7	2015_Jul_24_1514	s	s	6	4	SIC	432	ABS	2	2	24VD	0	1	0.487957000732	None	None	None	None	1
1.7	2015_Jul_24_1514	s	s	6	4	SIC	433	RC	1	1	23MO	1	0	0.941039085388	63.0	381.0	70	381	1
1.7	2015_Jul_24_1514	s	s	6	4	SIC	434	RC	1	0	23MC	1	0	0.876259088516	-50.0	125.0	-46	127	1
1.7	2015_Jul_24_1514	s	s	6	4	SIC	435	ABS	2	0	24VC	0	1	0.477014064789	None	None	None	None	1
1.7	2015_Jul_24_1514	s	s	6	4	SIC	436	RC	2	1	23VO	1	0	0.517328023911	134.0	332.0	135	340	1
1.7	2015_Jul_24_1514	s	s	6	4	SIC	437	RC	0	1	23RO	1	0	1.94153308868	182.0	-19.0	189	-15	1
1.7	2015_Jul_24_1514	s	s	6	4	SIC	438	ABS	2	2	24VD	0	1	0.399584054947	None	None	None	None	1
1.7	2015_Jul_24_1514	s	s	6	4	SIC	439	ABS	0	1	24RO	0	1	1.41190695763	None	None	None	None	1
1.7	2015_Jul_24_1514	s	s	6	4	SIC	440	RC	0	2	23RD	1	0	0.729163885117	-414.0	-161.0	-418	-162	1
1.7	2015_Jul_24_1514	s	s	6	4	SIC	441	RC	2	0	23VC	1	0	0.376081943512	98.0	351.0	94	346	1
1.7	2015_Jul_24_1514	s	s	6	4	SIC	442	ABS	0	2	24RD	0	1	0.623247861862	None	None	None	None	1
1.7	2015_Jul_24_1514	s	s	6	4	SIC	443	ABS	1	2	24MD	0	1	0.466810941696	None	None	None	None	1
1.7	2015_Jul_24_1514	s	s	6	4	SIC	444	ABS	2	1	24VO	0	1	0.399557828903	None	None	None	None	1
1.7	2015_Jul_24_1514	s	s	6	4	SIC	445	ABS	1	0	24MC	0	1	0.676894903183	None	None	None	None	1
1.7	2015_Jul_24_1514	s	s	6	4	SIC	446	RC	2	2	23VD	1	0	0.53510093689	438.0	287.0	450	294	1
1.7	2015_Jul_24_1514	s	s	6	4	SIC	447	ABS	1	1	24MO	0	1	0.764406919479	None	None	None	None	1
1.7	2015_Jul_24_1514	s	s	6	4	SIC	448	RC	1	2	23MD	1	0	0.579787015915	-93.0	253.0	-95	243	1
1.7	2015_Jul_24_1514	s	s	6	4	SIC	449	RC	0	1	23RO	0	1	1.10568594933	221.0	-47.0	None	None	0
1.7	2015_Jul_24_1514	s	s	6	4	SIC	450	RC	1	1	23MO	1	0	1.10582685471	294.0	396.0	282	400	1
1.7	2015_Jul_24_1514	s	s	6	4	SIC	451	ABS	0	2	24RD	0	1	0.576324939728	None	None	None	None	1
1.7	2015_Jul_24_1514	s	s	6	4	SIC	452	ABS	1	2	24MD	0	1	0.481985092163	None	None	None	None	1
1.7	2015_Jul_24_1514	s	s	6	4	SIC	453	RC	1	2	23MD	1	0	0.682198047638	66.0	-147.0	68	-147	1
1.7	2015_Jul_24_1514	s	s	6	4	SIC	454	ABS	0	1	24RO	0	1	1.29412579536	None	None	None	None	1
1.7	2015_Jul_24_1514	s	s	6	4	SIC	455	ABS	2	1	24VO	0	1	0.513350963593	None	None	None	None	1
1.7	2015_Jul_24_1514	s	s	6	4	SIC	456	ABS	2	0	24VC	0	1	0.476948976517	None	None	None	None	1
1.7	2015_Jul_24_1514	s	s	6	4	SIC	457	RC	2	1	23VO	1	0	0.470036029816	-34.0	1.0	-23	1	1
1.7	2015_Jul_24_1514	s	s	6	4	SIC	458	ABS	2	2	24VD	0	1	0.465126991272	None	None	None	None	1
1.7	2015_Jul_24_1514	s	s	6	4	SIC	459	RC	2	0	23VC	1	0	0.494085073471	106.0	-347.0	109	-347	1
1.7	2015_Jul_24_1514	s	s	6	4	SIC	460	RC	0	2	23RD	1	0	0.764504909515	-204.0	-171.0	-201	-166	1
1.7	2015_Jul_24_1514	s	s	6	4	SIC	461	ABS	1	0	24MC	0	1	0.94095993042	None	None	None	None	1
1.7	2015_Jul_24_1514	s	s	6	4	SIC	462	RC	1	0	23MC	0	1	0.662783145905	519.0	-149.0	None	None	0
1.7	2015_Jul_24_1514	s	s	6	4	SIC	463	ABS	1	1	24MO	0	1	1.07872414589	None	None	None	None	1
1.7	2015_Jul_24_1514	s	s	6	4	SIC	464	RC	2	2	23VD	1	0	0.453588008881	-188.0	288.0	-181	287	1
1.7	2015_Jul_24_1514	s	s	6	4	SIC	465	ABS	0	2	24RD	0	1	0.535937070847	None	None	None	None	1
1.7	2015_Jul_24_1514	s	s	6	4	SIC	466	RC	0	1	23RO	0	1	0.806591033936	-511.0	119.0	None	None	0
1.7	2015_Jul_24_1514	s	s	6	4	SIC	467	ABS	1	2	24MD	0	1	0.423101902008	None	None	None	None	1
1.7	2015_Jul_24_1514	s	s	6	4	SIC	468	ABS	2	0	24VC	0	1	0.470227003098	None	None	None	None	1
1.7	2015_Jul_24_1514	s	s	6	4	SIC	469	RC	0	2	23RD	1	0	0.540760993958	154.0	-129.0	146	-130	1
1.7	2015_Jul_24_1514	s	s	6	4	SIC	470	RC	1	0	23MC	1	0	0.858642101288	53.0	173.0	52	173	1
1.7	2015_Jul_24_1514	s	s	6	4	SIC	471	RC	2	0	23VC	1	0	0.52908205986	404.0	-347.0	408	-354	1
1.7	2015_Jul_24_1514	s	s	6	4	SIC	472	ABS	2	1	24VO	0	1	0.46496796608	None	None	None	None	1
1.7	2015_Jul_24_1514	s	s	6	4	SIC	473	RC	2	2	23VD	1	0	0.675611972809	399.0	-79.0	394	-78	1
1.7	2015_Jul_24_1514	s	s	6	4	SIC	474	RC	1	2	23MD	1	0	0.549834012985	-360.0	-229.0	-364	-230	1
1.7	2015_Jul_24_1514	s	s	6	4	SIC	475	ABS	2	2	24VD	0	1	0.505439996719	None	None	None	None	1
1.7	2015_Jul_24_1514	s	s	6	4	SIC	476	RC	1	1	23MO	1	0	0.882316112518	197.0	178.0	201	185	1
1.7	2015_Jul_24_1514	s	s	6	4	SIC	477	ABS	1	0	24MC	0	1	1.17641305923	None	None	None	None	1
1.7	2015_Jul_24_1514	s	s	6	4	SIC	478	RC	2	1	23VO	1	0	0.594056844711	384.0	-72.0	385	-65	1
1.7	2015_Jul_24_1514	s	s	6	4	SIC	479	ABS	1	1	24MO	0	1	1.04130506516	None	None	None	None	1
1.7	2015_Jul_24_1514	s	s	6	4	SIC	480	ABS	0	1	24RO	0	1	1.35938405991	None	None	None	None	1
1.7	2015_Jul_24_1514	s	s	6	4	SIC	481	RC	1	0	23MC	0	1	0.623289823532	454.0	386.0	None	None	0
1.7	2015_Jul_24_1514	s	s	6	4	SIC	482	ABS	2	2	24VD	0	1	0.394435882568	None	None	None	None	1
1.7	2015_Jul_24_1514	s	s	6	4	SIC	483	RC	0	2	23RD	1	0	0.653511047363	192.0	226.0	198	227	1
1.7	2015_Jul_24_1514	s	s	6	4	SIC	484	ABS	2	1	24VO	0	1	0.44668507576	None	None	None	None	1
1.7	2015_Jul_24_1514	s	s	6	4	SIC	485	RC	0	1	23RO	0	1	0.658411979675	-235.0	-78.0	None	None	0
1.7	2015_Jul_24_1514	s	s	6	4	SIC	486	ABS	2	0	24VC	0	1	0.467596054077	None	None	None	None	1
1.7	2015_Jul_24_1514	s	s	6	4	SIC	487	RC	1	1	23MO	1	0	0.787999153137	251.0	158.0	249	149	1
1.7	2015_Jul_24_1514	s	s	6	4	SIC	488	ABS	0	2	24RD	0	1	0.470057964325	None	None	None	None	1
1.7	2015_Jul_24_1514	s	s	6	4	SIC	489	RC	2	1	23VO	1	0	0.535552978516	-370.0	44.0	-375	39	1
1.7	2015_Jul_24_1514	s	s	6	4	SIC	490	RC	2	0	23VC	1	0	0.47708106041	377.0	91.0	385	90	1
1.7	2015_Jul_24_1514	s	s	6	4	SIC	491	ABS	1	1	24MO	0	1	0.552607059479	None	None	None	None	1
1.7	2015_Jul_24_1514	s	s	6	4	SIC	492	RC	1	2	23MD	1	0	0.538004875183	-504.0	5.0	-501	-1	1
1.7	2015_Jul_24_1514	s	s	6	4	SIC	493	ABS	1	0	24MC	0	1	1.01169300079	None	None	None	None	1
1.7	2015_Jul_24_1514	s	s	6	4	SIC	494	ABS	1	2	24MD	0	1	0.482065916061	None	None	None	None	1
1.7	2015_Jul_24_1514	s	s	6	4	SIC	495	RC	2	2	23VD	1	0	2.03271603584	-423.0	384.0	-418	383	1
1.7	2015_Jul_24_1514	s	s	6	4	SIC	496	ABS	0	1	24RO	0	1	0.688877820969	None	None	None	None	1
1.7	2015_Jul_24_1514	s	s	6	4	SIC	497	RC	1	2	23MD	0	1	0.510704994202	90.0	-172.0	None	None	0
1.7	2015_Jul_24_1514	s	s	6	4	SIC	498	ABS	0	1	24RO	0	1	1.8708729744	None	None	None	None	1
1.7	2015_Jul_24_1514	s	s	6	4	SIC	499	RC	2	1	23VO	1	0	0.385165929794	51.0	259.0	51	257	1
1.7	2015_Jul_24_1514	s	s	6	4	SIC	500	ABS	1	0	24MC	1	0	0.78303694725	None	None	10	11	0
1.7	2015_Jul_24_1514	s	s	6	4	SIC	501	ABS	1	2	24MD	0	1	0.5003221035	None	None	None	None	1
1.7	2015_Jul_24_1514	s	s	6	4	SIC	502	RC	0	2	23RD	1	0	0.370572090149	-7.0	97.0	-5	89	1
1.7	2015_Jul_24_1514	s	s	6	4	SIC	503	ABS	0	2	24RD	0	1	0.559277057648	None	None	None	None	1
1.7	2015_Jul_24_1514	s	s	6	4	SIC	504	RC	2	0	23VC	1	0	0.442075014114	-191.0	295.0	-197	294	1
1.7	2015_Jul_24_1514	s	s	6	4	SIC	505	RC	2	2	23VD	1	0	0.423187971115	-438.0	182.0	-440	184	1
1.7	2015_Jul_24_1514	s	s	6	4	SIC	506	RC	1	1	23MO	1	0	0.773494005203	258.0	208.0	254	210	1
1.7	2015_Jul_24_1514	s	s	6	4	SIC	507	ABS	2	2	24VD	1	0	0.441561937332	None	None	-27	-9	0
1.7	2015_Jul_24_1514	s	s	6	4	SIC	508	RC	0	1	23RO	0	1	0.988517999649	314.0	-80.0	None	None	0
1.7	2015_Jul_24_1514	s	s	6	4	SIC	509	RC	1	0	23MC	0	1	0.676957130432	-421.0	-240.0	None	None	0
1.7	2015_Jul_24_1514	s	s	6	4	SIC	510	ABS	2	1	24VO	0	1	0.617660045624	None	None	None	None	1
1.7	2015_Jul_24_1514	s	s	6	4	SIC	511	ABS	1	1	24MO	0	1	0.835098981857	None	None	None	None	1
1.7	2015_Jul_24_1514	s	s	6	4	SIC	512	ABS	2	0	24VC	0	1	0.387793064117	None	None	None	None	1
1.7	2015_Jul_24_1514	s	s	6	4	SIC	513	ABS	2	0	24VC	0	1	0.450376987457	None	None	None	None	1
1.7	2015_Jul_24_1514	s	s	6	4	SIC	514	ABS	2	2	24VD	0	1	0.384099006653	None	None	None	None	1
1.7	2015_Jul_24_1514	s	s	6	4	SIC	515	ABS	0	1	24RO	0	1	0.293588161469	None	None	None	None	1
1.7	2015_Jul_24_1514	s	s	6	4	SIC	516	ABS	2	1	24VO	0	1	0.464993953705	None	None	None	None	1
1.7	2015_Jul_24_1514	s	s	6	4	SIC	517	RC	1	1	23MO	1	0	0.992140054703	515.0	-183.0	518	-180	1
1.7	2015_Jul_24_1514	s	s	6	4	SIC	518	RC	2	1	23VO	1	0	0.441775083542	184.0	-10.0	190	-6	1
1.7	2015_Jul_24_1514	s	s	6	4	SIC	519	RC	2	2	23VD	1	0	0.406103849411	-83.0	334.0	-83	337	1
1.7	2015_Jul_24_1514	s	s	6	4	SIC	520	ABS	0	2	24RD	0	1	0.548446893692	None	None	None	None	1
1.7	2015_Jul_24_1514	s	s	6	4	SIC	521	RC	0	2	23RD	1	0	0.68200802803	-184.0	-268.0	-185	-261	1
1.7	2015_Jul_24_1514	s	s	6	4	SIC	522	RC	1	2	23MD	1	0	0.399605035782	431.0	-374.0	436	-381	1
1.7	2015_Jul_24_1514	s	s	6	4	SIC	523	RC	2	0	23VC	1	0	0.41847205162	422.0	-271.0	418	-271	1
1.7	2015_Jul_24_1514	s	s	6	4	SIC	524	ABS	1	1	24MO	0	1	0.823362827301	None	None	None	None	1
1.7	2015_Jul_24_1514	s	s	6	4	SIC	525	RC	0	1	23RO	0	1	1.74133706093	-380.0	34.0	None	None	0
1.7	2015_Jul_24_1514	s	s	6	4	SIC	526	ABS	1	0	24MC	0	1	1.017619133	None	None	None	None	1
1.7	2015_Jul_24_1514	s	s	6	4	SIC	527	RC	1	0	23MC	0	1	0.853639125824	-238.0	-283.0	None	None	0
1.7	2015_Jul_24_1514	s	s	6	4	SIC	528	ABS	1	2	24MD	0	1	0.442774057388	None	None	None	None	1
1.7	2015_Jul_24_1514	s	s	6	4	SIC	529	RC	1	1	23MO	0	1	0.634829998016	-418.0	204.0	None	None	0
1.7	2015_Jul_24_1514	s	s	6	4	SIC	530	ABS	2	0	24VC	1	0	0.476912975311	None	None	-36	109	0
1.7	2015_Jul_24_1514	s	s	6	4	SIC	531	RC	1	2	23MD	1	0	0.493932008743	539.0	181.0	537	186	1
1.7	2015_Jul_24_1514	s	s	6	4	SIC	532	ABS	0	2	24RD	0	1	0.559147119522	None	None	None	None	1
1.7	2015_Jul_24_1514	s	s	6	4	SIC	533	ABS	1	1	24MO	0	1	0.582748889923	None	None	None	None	1
1.7	2015_Jul_24_1514	s	s	6	4	SIC	534	RC	0	2	23RD	1	0	0.594585895538	-42.0	236.0	-43	243	1
1.7	2015_Jul_24_1514	s	s	6	4	SIC	535	ABS	2	2	24VD	0	1	0.465644836426	None	None	None	None	1
1.7	2015_Jul_24_1514	s	s	6	4	SIC	536	RC	2	1	23VO	1	0	0.547837972641	447.0	309.0	449	305	1
1.7	2015_Jul_24_1514	s	s	6	4	SIC	537	RC	2	0	23VC	1	0	0.411319971085	-414.0	-222.0	-416	-234	1
1.7	2015_Jul_24_1514	s	s	6	4	SIC	538	RC	0	1	23RO	0	1	0.737728834152	-174.0	-408.0	None	None	0
1.7	2015_Jul_24_1514	s	s	6	4	SIC	539	ABS	0	1	24RO	0	1	0.799763917923	None	None	None	None	1
1.7	2015_Jul_24_1514	s	s	6	4	SIC	540	ABS	1	0	24MC	0	1	1.18320608139	None	None	None	None	1
1.7	2015_Jul_24_1514	s	s	6	4	SIC	541	RC	2	2	23VD	1	0	0.361311912537	194.0	236.0	198	236	1
1.7	2015_Jul_24_1514	s	s	6	4	SIC	542	RC	1	0	23MC	1	0	1.28605389595	-171.0	-311.0	-175	-307	1
1.7	2015_Jul_24_1514	s	s	6	4	SIC	543	ABS	1	2	24MD	0	1	0.465305089951	None	None	None	None	1
1.7	2015_Jul_24_1514	s	s	6	4	SIC	544	ABS	2	1	24VO	0	1	0.387823820114	None	None	None	None	1
1.7	2015_Jul_24_1514	s	s	6	4	SIC	545	ABS	0	2	24RD	0	1	0.476901769638	None	None	None	None	1
1.7	2015_Jul_24_1514	s	s	6	4	SIC	546	ABS	0	1	24RO	0	1	0.650377988815	None	None	None	None	1
1.7	2015_Jul_24_1514	s	s	6	4	SIC	547	ABS	2	1	24VO	0	1	0.364253997803	None	None	None	None	1
1.7	2015_Jul_24_1514	s	s	6	4	SIC	548	RC	0	1	23RO	0	1	1.18821120262	247.0	-61.0	None	None	0
1.7	2015_Jul_24_1514	s	s	6	4	SIC	549	RC	2	0	23VC	1	0	2.85966610909	488.0	122.0	486	121	1
1.7	2015_Jul_24_1514	s	s	6	4	SIC	550	RC	2	1	23VO	1	0	7.79140591621	245.0	-249.0	241	-244	1
1.7	2015_Jul_24_1514	s	s	6	4	SIC	551	ABS	1	2	24MD	0	1	0.729247093201	None	None	None	None	1
1.7	2015_Jul_24_1514	s	s	6	4	SIC	552	ABS	1	0	24MC	0	1	0.641577005386	None	None	None	None	1
1.7	2015_Jul_24_1514	s	s	6	4	SIC	553	RC	1	0	23MC	0	1	0.642298936844	160.0	266.0	None	None	0
1.7	2015_Jul_24_1514	s	s	6	4	SIC	554	RC	1	1	23MO	0	1	0.552737951279	-408.0	-336.0	None	None	0
1.7	2015_Jul_24_1514	s	s	6	4	SIC	555	ABS	2	0	24VC	0	1	0.399425983429	None	None	None	None	1
1.7	2015_Jul_24_1514	s	s	6	4	SIC	556	RC	1	2	23MD	0	1	0.371361017227	-126.0	378.0	None	None	0
1.7	2015_Jul_24_1514	s	s	6	4	SIC	557	RC	0	2	23RD	1	0	0.552587985992	530.0	38.0	536	46	1
1.7	2015_Jul_24_1514	s	s	6	4	SIC	558	RC	2	2	23VD	1	0	0.39408493042	-61.0	-57.0	-52	-59	1
1.7	2015_Jul_24_1514	s	s	6	4	SIC	559	ABS	2	2	24VD	0	1	0.423168897629	None	None	None	None	1
1.7	2015_Jul_24_1514	s	s	6	4	SIC	560	ABS	1	1	24MO	0	1	0.729171037674	None	None	None	None	1
1.7	2015_Jul_24_1514	s	s	6	4	SIC	561	RC	2	1	23VO	1	0	0.564363956451	78.0	372.0	85	374	1
1.7	2015_Jul_24_1514	s	s	6	4	SIC	562	ABS	1	2	24MD	0	1	0.512354135513	None	None	None	None	1
1.7	2015_Jul_24_1514	s	s	6	4	SIC	563	ABS	1	0	24MC	0	1	0.54088807106	None	None	None	None	1
1.7	2015_Jul_24_1514	s	s	6	4	SIC	564	RC	2	2	23VD	1	0	0.458389997482	11.0	-398.0	9	-397	1
1.7	2015_Jul_24_1514	s	s	6	4	SIC	565	ABS	1	1	24MO	0	1	0.693891048431	None	None	None	None	1
1.7	2015_Jul_24_1514	s	s	6	4	SIC	566	RC	0	2	23RD	1	0	0.618152856827	313.0	229.0	318	231	1
1.7	2015_Jul_24_1514	s	s	6	4	SIC	567	ABS	0	1	24RO	0	1	0.632003068924	None	None	None	None	1
1.7	2015_Jul_24_1514	s	s	6	4	SIC	568	ABS	2	2	24VD	0	1	0.455883026123	None	None	None	None	1
1.7	2015_Jul_24_1514	s	s	6	4	SIC	569	ABS	2	1	24VO	0	1	0.418731927872	None	None	None	None	1
1.7	2015_Jul_24_1514	s	s	6	4	SIC	570	RC	1	0	23MC	1	0	0.752720117569	42.0	-62.0	48	-62	1
1.7	2015_Jul_24_1514	s	s	6	4	SIC	571	ABS	0	2	24RD	0	1	0.441653013229	None	None	None	None	1
1.7	2015_Jul_24_1514	s	s	6	4	SIC	572	ABS	2	0	24VC	0	1	0.446679830551	None	None	None	None	1
1.7	2015_Jul_24_1514	s	s	6	4	SIC	573	RC	2	0	23VC	1	0	0.458377122879	-3.0	-294.0	-11	-297	1
1.7	2015_Jul_24_1514	s	s	6	4	SIC	574	RC	0	1	23RO	1	0	0.791662931442	-75.0	-141.0	-78	-139	1
1.7	2015_Jul_24_1514	s	s	6	4	SIC	575	RC	1	2	23MD	1	0	0.364316940308	-56.0	-29.0	-54	-21	1
1.7	2015_Jul_24_1514	s	s	6	4	SIC	576	RC	1	1	23MO	1	0	0.741672992706	399.0	123.0	401	122	1
1.7	2015_Jul_24_1514	s	s	6	4	SIC	577	ABS	2	1	24VO	0	1	0.641940116882	None	None	None	None	1
1.7	2015_Jul_24_1514	s	s	6	4	SIC	578	ABS	1	0	24MC	0	1	0.994957923889	None	None	None	None	1
1.7	2015_Jul_24_1514	s	s	6	4	SIC	579	RC	0	1	23RO	0	1	1.32944393158	-3.0	-241.0	None	None	0
1.7	2015_Jul_24_1514	s	s	6	4	SIC	580	RC	1	0	23MC	0	1	1.12930417061	413.0	-364.0	None	None	0
1.7	2015_Jul_24_1514	s	s	6	4	SIC	581	RC	1	2	23MD	1	0	0.8386759758	101.0	378.0	112	381	1
1.7	2015_Jul_24_1514	s	s	6	4	SIC	582	RC	2	1	23VO	1	0	0.62350320816	262.0	-408.0	263	-404	1
1.7	2015_Jul_24_1514	s	s	6	4	SIC	583	RC	2	0	23VC	1	0	0.417989015579	242.0	-354.0	243	-349	1
1.7	2015_Jul_24_1514	s	s	6	4	SIC	584	RC	2	2	23VD	1	0	0.747011899948	13.0	0.0	16	2	1
1.7	2015_Jul_24_1514	s	s	6	4	SIC	585	ABS	1	1	24MO	0	1	0.982990980148	None	None	None	None	1
1.7	2015_Jul_24_1514	s	s	6	4	SIC	586	ABS	0	1	24RO	0	1	1.43539190292	None	None	None	None	1
1.7	2015_Jul_24_1514	s	s	6	4	SIC	587	ABS	2	0	24VC	0	1	0.512351036072	None	None	None	None	1
1.7	2015_Jul_24_1514	s	s	6	4	SIC	588	RC	1	1	23MO	0	1	0.664878129959	-490.0	-401.0	None	None	0
1.7	2015_Jul_24_1514	s	s	6	4	SIC	589	RC	0	2	23RD	1	0	0.724090099335	-140.0	-201.0	-138	-208	1
1.7	2015_Jul_24_1514	s	s	6	4	SIC	590	ABS	0	2	24RD	0	1	0.454756975174	None	None	None	None	1
1.7	2015_Jul_24_1514	s	s	6	4	SIC	591	ABS	2	2	24VD	0	1	0.434878826141	None	None	None	None	1
1.7	2015_Jul_24_1514	s	s	6	4	SIC	592	ABS	1	2	24MD	0	1	0.477047920227	None	None	None	None	1
