Version	Date	Stimuli	Method	Subject	Session	Condition	Trial	Target	Channel1	Channel2	Distractors	LMouseButton	RMouseButton	RT	TargetX	TargetY	ResponseX	ResponseY	Correct
1.7	2015_Jul_31_1302	s	s	9	4	Capacity	1	RC	1	0	23MC	0	1	1.01166296005	-147.0	304.0	None	None	0
1.7	2015_Jul_31_1302	s	s	9	4	Capacity	2	ABS	2	0	24VC	0	1	0.688565015793	None	None	None	None	1
1.7	2015_Jul_31_1302	s	s	9	4	Capacity	3	RC	2	0	23VC	1	0	0.493839979172	-513.0	225.0	-511	215	1
1.7	2015_Jul_31_1302	s	s	9	4	Capacity	4	ABS	1	0	24MC	0	1	0.76201915741	None	None	None	None	1
1.7	2015_Jul_31_1302	s	s	9	4	Capacity	5	RC	1	0	23MC	0	1	0.561852931976	208.0	-240.0	None	None	0
1.7	2015_Jul_31_1302	s	s	9	4	Capacity	6	ABS	1	0	24MC	0	1	0.662145853043	None	None	None	None	1
1.7	2015_Jul_31_1302	s	s	9	4	Capacity	7	RC	2	0	23VC	1	0	0.524248123169	422.0	-199.0	420	-202	1
1.7	2015_Jul_31_1302	s	s	9	4	Capacity	8	ABS	2	0	24VC	0	1	0.335223913193	None	None	None	None	1
1.7	2015_Jul_31_1302	s	s	9	4	Capacity	9	ABS	2	0	24VC	0	1	1.81203699112	None	None	None	None	1
1.7	2015_Jul_31_1302	s	s	9	4	Capacity	10	RC	1	0	23MC	0	1	0.348057985306	369.0	-237.0	None	None	0
1.7	2015_Jul_31_1302	s	s	9	4	Capacity	11	ABS	1	0	24MC	0	1	0.462193012238	None	None	None	None	1
1.7	2015_Jul_31_1302	s	s	9	4	Capacity	12	RC	2	0	23VC	1	0	0.538522005081	-281.0	306.0	-277	310	1
1.7	2015_Jul_31_1302	s	s	9	4	Capacity	13	ABS	1	0	24MC	0	1	0.808927059174	None	None	None	None	1
1.7	2015_Jul_31_1302	s	s	9	4	Capacity	14	RC	2	0	23VC	1	0	0.646730184555	440.0	407.0	438	399	1
1.7	2015_Jul_31_1302	s	s	9	4	Capacity	15	RC	1	0	23MC	0	1	0.652819156647	54.0	-373.0	None	None	0
1.7	2015_Jul_31_1302	s	s	9	4	Capacity	16	ABS	2	0	24VC	0	1	0.700282096863	None	None	None	None	1
1.7	2015_Jul_31_1302	s	s	9	4	Capacity	17	RC	1	0	23MC	0	1	0.924292087555	-535.0	-337.0	None	None	0
1.7	2015_Jul_31_1302	s	s	9	4	Capacity	18	RC	2	0	23VC	1	0	0.54087305069	505.0	208.0	503	217	1
1.7	2015_Jul_31_1302	s	s	9	4	Capacity	19	ABS	2	0	24VC	0	1	0.287980079651	None	None	None	None	1
1.7	2015_Jul_31_1302	s	s	9	4	Capacity	20	ABS	1	0	24MC	0	1	0.24183177948	None	None	None	None	1
1.7	2015_Jul_31_1302	s	s	9	4	Capacity	21	RC	2	0	23VC	0	1	0.22299695015	216.0	146.0	None	None	0
1.7	2015_Jul_31_1302	s	s	9	4	Capacity	22	ABS	2	0	24VC	0	1	0.865343093872	None	None	None	None	1
1.7	2015_Jul_31_1302	s	s	9	4	Capacity	23	RC	1	0	23MC	1	0	0.682867050171	-24.0	407.0	-26	399	1
1.7	2015_Jul_31_1302	s	s	9	4	Capacity	24	ABS	1	0	24MC	0	1	0.550080060959	None	None	None	None	1
1.7	2015_Jul_31_1302	s	s	9	4	Capacity	25	ABS	1	0	24MC	0	1	3.80124902725	None	None	None	None	1
1.7	2015_Jul_31_1302	s	s	9	4	Capacity	26	RC	1	0	23MC	1	0	0.811559200287	-247.0	47.0	-246	48	1
1.7	2015_Jul_31_1302	s	s	9	4	Capacity	27	RC	2	0	23VC	1	0	0.853379964828	24.0	-200.0	26	-202	1
1.7	2015_Jul_31_1302	s	s	9	4	Capacity	28	ABS	2	0	24VC	0	1	0.42332482338	None	None	None	None	1
1.7	2015_Jul_31_1302	s	s	9	4	Capacity	29	RC	2	0	23VC	1	0	0.656311035156	233.0	357.0	232	359	1
1.7	2015_Jul_31_1302	s	s	9	4	Capacity	30	ABS	2	0	24VC	0	1	0.440641880035	None	None	None	None	1
1.7	2015_Jul_31_1302	s	s	9	4	Capacity	31	RC	1	0	23MC	1	0	1.26529788971	114.0	329.0	110	328	1
1.7	2015_Jul_31_1302	s	s	9	4	Capacity	32	ABS	1	0	24MC	0	1	0.644315004349	None	None	None	None	1
1.7	2015_Jul_31_1302	s	s	9	4	Capacity	33	ABS	1	0	24MC	0	1	0.289029836655	None	None	None	None	1
1.7	2015_Jul_31_1302	s	s	9	4	Capacity	34	RC	1	0	23MC	0	1	0.350340127945	-441.0	-96.0	None	None	0
1.7	2015_Jul_31_1302	s	s	9	4	Capacity	35	ABS	2	0	24VC	0	1	0.691612005234	None	None	None	None	1
1.7	2015_Jul_31_1302	s	s	9	4	Capacity	36	RC	2	0	23VC	1	0	0.505311012268	239.0	-193.0	248	-196	1
1.7	2015_Jul_31_1302	s	s	9	4	Capacity	37	ABS	2	0	24VC	0	1	0.582538127899	None	None	None	None	1
1.7	2015_Jul_31_1302	s	s	9	4	Capacity	38	ABS	1	0	24MC	0	1	0.38561797142	None	None	None	None	1
1.7	2015_Jul_31_1302	s	s	9	4	Capacity	39	RC	2	0	23VC	0	1	0.173655986786	-282.0	239.0	None	None	0
1.7	2015_Jul_31_1302	s	s	9	4	Capacity	40	RC	1	0	23MC	0	1	0.281855106354	76.0	-395.0	None	None	0
1.7	2015_Jul_31_1302	s	s	9	4	Capacity	41	ABS	2	0	24VC	0	1	0.434875965118	None	None	None	None	1
1.7	2015_Jul_31_1302	s	s	9	4	Capacity	42	ABS	1	0	24MC	0	1	0.886476993561	None	None	None	None	1
1.7	2015_Jul_31_1302	s	s	9	4	Capacity	43	RC	1	0	23MC	1	0	0.72344994545	-63.0	137.0	-63	135	1
1.7	2015_Jul_31_1302	s	s	9	4	Capacity	44	RC	2	0	23VC	1	0	0.599611997604	-515.0	363.0	-520	354	1
1.7	2015_Jul_31_1302	s	s	9	4	Capacity	45	ABS	1	0	24MC	0	1	0.663607120514	None	None	None	None	1
1.7	2015_Jul_31_1302	s	s	9	4	Capacity	46	RC	2	0	23VC	1	0	0.564419031143	454.0	-301.0	464	-303	1
1.7	2015_Jul_31_1302	s	s	9	4	Capacity	47	ABS	2	0	24VC	0	1	0.771078109741	None	None	None	None	1
1.7	2015_Jul_31_1302	s	s	9	4	Capacity	48	RC	1	0	23MC	1	0	0.69386100769	21.0	204.0	16	200	1
1.7	2015_Jul_31_1302	s	s	9	4	Capacity	49	RC	2	0	23VC	1	0	0.653631925583	488.0	324.0	488	321	1
1.7	2015_Jul_31_1302	s	s	9	4	Capacity	50	ABS	1	0	24MC	0	1	1.04158210754	None	None	None	None	1
1.7	2015_Jul_31_1302	s	s	9	4	Capacity	51	RC	1	0	23MC	0	1	0.852816820145	329.0	-230.0	None	None	0
1.7	2015_Jul_31_1302	s	s	9	4	Capacity	52	ABS	2	0	24VC	0	1	0.540867090225	None	None	None	None	1
1.7	2015_Jul_31_1302	s	s	9	4	Capacity	53	ABS	1	0	24MC	0	1	0.620921134949	None	None	None	None	1
1.7	2015_Jul_31_1302	s	s	9	4	Capacity	54	ABS	2	0	24VC	0	1	0.559191942215	None	None	None	None	1
1.7	2015_Jul_31_1302	s	s	9	4	Capacity	55	RC	1	0	23MC	1	0	0.842381954193	-43.0	215.0	-51	209	1
1.7	2015_Jul_31_1302	s	s	9	4	Capacity	56	RC	2	0	23VC	1	0	0.654688119888	-303.0	-124.0	-295	-119	1
1.7	2015_Jul_31_1302	s	s	9	4	Capacity	57	ABS	2	0	24VC	0	1	0.832619190216	None	None	None	None	1
1.7	2015_Jul_31_1302	s	s	9	4	Capacity	58	RC	1	0	23MC	1	0	1.00697994232	433.0	-20.0	434	-24	1
1.7	2015_Jul_31_1302	s	s	9	4	Capacity	59	ABS	1	0	24MC	0	1	1.05311203003	None	None	None	None	1
1.7	2015_Jul_31_1302	s	s	9	4	Capacity	60	RC	2	0	23VC	1	0	0.607795000076	-499.0	377.0	-501	379	1
1.7	2015_Jul_31_1302	s	s	9	4	Capacity	61	RC	1	0	23MC	0	1	0.623265028	182.0	294.0	None	None	0
1.7	2015_Jul_31_1302	s	s	9	4	Capacity	62	ABS	1	0	24MC	0	1	6.94152808189	None	None	None	None	1
1.7	2015_Jul_31_1302	s	s	9	4	Capacity	63	RC	2	0	23VC	1	0	0.858669996262	-465.0	376.0	-464	370	1
1.7	2015_Jul_31_1302	s	s	9	4	Capacity	64	ABS	2	0	24VC	0	1	3.95179080963	None	None	None	None	1
1.7	2015_Jul_31_1302	s	s	9	4	Capacity	65	RC	1	0	23MC	0	1	1.10581898689	-123.0	48.0	None	None	0
1.7	2015_Jul_31_1302	s	s	9	4	Capacity	66	ABS	2	0	24VC	0	1	2.71841907501	None	None	None	None	1
1.7	2015_Jul_31_1302	s	s	9	4	Capacity	67	RC	2	0	23VC	1	0	2.3272819519	-246.0	-306.0	-249	-307	1
1.7	2015_Jul_31_1302	s	s	9	4	Capacity	68	ABS	1	0	24MC	0	1	2.07127022743	None	None	None	None	1
1.7	2015_Jul_31_1302	s	s	9	4	Capacity	69	RC	2	0	23VC	1	0	0.517384052277	109.0	384.0	115	384	1
1.7	2015_Jul_31_1302	s	s	9	4	Capacity	70	RC	1	0	23MC	1	0	1.03503704071	159.0	-285.0	153	-287	1
1.7	2015_Jul_31_1302	s	s	9	4	Capacity	71	ABS	1	0	24MC	0	1	0.999899864197	None	None	None	None	1
1.7	2015_Jul_31_1302	s	s	9	4	Capacity	72	ABS	2	0	24VC	0	1	0.529521942139	None	None	None	None	1
1.7	2015_Jul_31_1302	s	s	9	4	Capacity	73	RC	1	0	23MC	0	1	0.420741081238	321.0	248.0	None	None	0
1.7	2015_Jul_31_1302	s	s	9	4	Capacity	74	RC	2	0	23VC	1	0	0.54801607132	402.0	379.0	406	373	1
1.7	2015_Jul_31_1302	s	s	9	4	Capacity	75	ABS	2	0	24VC	0	1	0.882235050201	None	None	None	None	1
1.7	2015_Jul_31_1302	s	s	9	4	Capacity	76	ABS	1	0	24MC	0	1	0.537285089493	None	None	None	None	1
1.7	2015_Jul_31_1302	s	s	9	4	Capacity	77	ABS	2	0	24VC	0	1	0.929171085358	None	None	None	None	1
1.7	2015_Jul_31_1302	s	s	9	4	Capacity	78	RC	2	0	23VC	1	0	0.587838888168	140.0	20.0	137	15	1
1.7	2015_Jul_31_1302	s	s	9	4	Capacity	79	ABS	1	0	24MC	0	1	0.835237026215	None	None	None	None	1
1.7	2015_Jul_31_1302	s	s	9	4	Capacity	80	RC	1	0	23MC	0	1	0.936150074005	450.0	-239.0	None	None	0
1.7	2015_Jul_31_1302	s	s	9	4	Capacity	81	RC	2	0	23VC	1	0	0.711622953415	146.0	-63.0	146	-60	1
1.7	2015_Jul_31_1302	s	s	9	4	Capacity	82	RC	1	0	23MC	0	1	1.02024793625	-475.0	31.0	None	None	0
1.7	2015_Jul_31_1302	s	s	9	4	Capacity	83	ABS	1	0	24MC	0	1	0.482445001602	None	None	None	None	1
1.7	2015_Jul_31_1302	s	s	9	4	Capacity	84	ABS	2	0	24VC	0	1	0.65167093277	None	None	None	None	1
1.7	2015_Jul_31_1302	s	s	9	4	Capacity	85	RC	1	0	23MC	1	0	1.85669994354	348.0	-293.0	357	-289	1
1.7	2015_Jul_31_1302	s	s	9	4	Capacity	86	RC	2	0	23VC	1	0	1.91378092766	264.0	-258.0	262	-256	1
1.7	2015_Jul_31_1302	s	s	9	4	Capacity	87	ABS	1	0	24MC	0	1	1.43289589882	None	None	None	None	1
1.7	2015_Jul_31_1302	s	s	9	4	Capacity	88	ABS	2	0	24VC	0	1	0.623177051544	None	None	None	None	1
1.7	2015_Jul_31_1302	s	s	9	4	Capacity	89	RC	2	0	23VC	0	0	-1	-453.0	-325.0	None	None	-1
1.7	2015_Jul_31_1302	s	s	9	4	Capacity	90	ABS	2	0	24VC	0	1	10.239782095	None	None	None	None	1
1.7	2015_Jul_31_1302	s	s	9	4	Capacity	91	ABS	1	0	24MC	0	1	1.07980918884	None	None	None	None	1
1.7	2015_Jul_31_1302	s	s	9	4	Capacity	92	RC	1	0	23MC	0	1	1.05317401886	10.0	-400.0	None	None	0
1.7	2015_Jul_31_1302	s	s	9	4	Capacity	1	ABS	0	2	24RD	0	1	0.440363883972	None	None	None	None	1
1.7	2015_Jul_31_1302	s	s	9	4	Capacity	2	RC	0	1	23RO	0	1	0.340591907501	211.0	170.0	None	None	0
1.7	2015_Jul_31_1302	s	s	9	4	Capacity	3	ABS	0	1	24RO	0	1	0.25829911232	None	None	None	None	1
1.7	2015_Jul_31_1302	s	s	9	4	Capacity	4	RC	0	2	23RD	1	0	0.714579820633	113.0	-176.0	114	-172	1
1.7	2015_Jul_31_1302	s	s	9	4	Capacity	5	RC	0	1	23RO	0	1	1.31483602524	-347.0	-100.0	None	None	0
1.7	2015_Jul_31_1302	s	s	9	4	Capacity	6	RC	0	2	23RD	1	0	0.594556093216	0.0	1.0	1	-1	1
1.7	2015_Jul_31_1302	s	s	9	4	Capacity	7	ABS	0	1	24RO	0	1	0.819360017776	None	None	None	None	1
1.7	2015_Jul_31_1302	s	s	9	4	Capacity	8	ABS	0	2	24RD	0	1	1.75006484985	None	None	None	None	1
1.7	2015_Jul_31_1302	s	s	9	4	Capacity	9	ABS	0	1	24RO	0	1	2.7183868885	None	None	None	None	1
1.7	2015_Jul_31_1302	s	s	9	4	Capacity	10	ABS	0	2	24RD	0	1	0.493803024292	None	None	None	None	1
1.7	2015_Jul_31_1302	s	s	9	4	Capacity	11	RC	0	2	23RD	1	0	0.60888004303	-219.0	-395.0	-224	-397	1
1.7	2015_Jul_31_1302	s	s	9	4	Capacity	12	RC	0	1	23RO	0	1	0.535148143768	-331.0	188.0	None	None	0
1.7	2015_Jul_31_1302	s	s	9	4	Capacity	13	RC	0	2	23RD	1	0	0.595997095108	-270.0	-130.0	-264	-134	1
1.7	2015_Jul_31_1302	s	s	9	4	Capacity	14	ABS	0	2	24RD	0	1	0.88901591301	None	None	None	None	1
1.7	2015_Jul_31_1302	s	s	9	4	Capacity	15	RC	0	1	23RO	0	1	1.85467505455	-518.0	-73.0	None	None	0
1.7	2015_Jul_31_1302	s	s	9	4	Capacity	16	ABS	0	1	24RO	0	1	0.747266054153	None	None	None	None	1
1.7	2015_Jul_31_1302	s	s	9	4	Capacity	17	RC	0	2	23RD	1	0	0.740960121155	31.0	344.0	31	346	1
1.7	2015_Jul_31_1302	s	s	9	4	Capacity	18	ABS	0	1	24RO	0	1	4.18562602997	None	None	None	None	1
1.7	2015_Jul_31_1302	s	s	9	4	Capacity	19	ABS	0	2	24RD	0	1	0.595283031464	None	None	None	None	1
1.7	2015_Jul_31_1302	s	s	9	4	Capacity	20	RC	0	1	23RO	1	0	1.38853788376	168.0	-73.0	174	-72	1
1.7	2015_Jul_31_1302	s	s	9	4	Capacity	21	RC	0	1	23RO	0	1	0.703068971634	-222.0	341.0	None	None	0
1.7	2015_Jul_31_1302	s	s	9	4	Capacity	22	ABS	0	1	24RO	0	1	2.38882803917	None	None	None	None	1
1.7	2015_Jul_31_1302	s	s	9	4	Capacity	23	RC	0	2	23RD	1	0	0.611376047134	-232.0	311.0	-226	302	1
1.7	2015_Jul_31_1302	s	s	9	4	Capacity	24	ABS	0	2	24RD	0	1	1.31509494781	None	None	None	None	1
1.7	2015_Jul_31_1302	s	s	9	4	Capacity	25	ABS	0	1	24RO	0	1	0.6938829422	None	None	None	None	1
1.7	2015_Jul_31_1302	s	s	9	4	Capacity	26	RC	0	1	23RO	1	0	1.18575000763	273.0	189.0	270	184	1
1.7	2015_Jul_31_1302	s	s	9	4	Capacity	27	ABS	0	2	24RD	0	1	0.713048934937	None	None	None	None	1
1.7	2015_Jul_31_1302	s	s	9	4	Capacity	28	RC	0	2	23RD	1	0	0.488017082214	-392.0	-12.0	-384	-12	1
1.7	2015_Jul_31_1302	s	s	9	4	Capacity	29	ABS	0	1	24RO	0	1	0.92368888855	None	None	None	None	1
1.7	2015_Jul_31_1302	s	s	9	4	Capacity	30	RC	0	2	23RD	1	0	1.14113116264	-236.0	382.0	-243	381	1
1.7	2015_Jul_31_1302	s	s	9	4	Capacity	31	RC	0	1	23RO	0	1	0.738386154175	409.0	388.0	None	None	0
1.7	2015_Jul_31_1302	s	s	9	4	Capacity	32	ABS	0	2	24RD	0	1	0.370823860168	None	None	None	None	1
1.7	2015_Jul_31_1302	s	s	9	4	Capacity	33	ABS	0	2	24RD	0	1	0.364201068878	None	None	None	None	1
1.7	2015_Jul_31_1302	s	s	9	4	Capacity	34	RC	0	1	23RO	0	1	0.489875078201	-321.0	275.0	None	None	0
1.7	2015_Jul_31_1302	s	s	9	4	Capacity	35	RC	0	2	23RD	1	0	1.04406881332	516.0	364.0	522	357	1
1.7	2015_Jul_31_1302	s	s	9	4	Capacity	36	ABS	0	1	24RO	0	1	1.07963109016	None	None	None	None	1
1.7	2015_Jul_31_1302	s	s	9	4	Capacity	37	ABS	0	2	24RD	0	1	8.32800412178	None	None	None	None	1
1.7	2015_Jul_31_1302	s	s	9	4	Capacity	38	RC	0	2	23RD	1	0	0.725574970245	158.0	330.0	157	320	1
1.7	2015_Jul_31_1302	s	s	9	4	Capacity	39	RC	0	1	23RO	0	1	0.677628040314	150.0	200.0	None	None	0
1.7	2015_Jul_31_1302	s	s	9	4	Capacity	40	ABS	0	1	24RO	1	0	0.799813985825	None	None	-68	10	0
1.7	2015_Jul_31_1302	s	s	9	4	Capacity	41	ABS	0	2	24RD	0	1	0.512146949768	None	None	None	None	1
1.7	2015_Jul_31_1302	s	s	9	4	Capacity	42	RC	0	2	23RD	1	0	0.582748889923	-406.0	184.0	-406	190	1
1.7	2015_Jul_31_1302	s	s	9	4	Capacity	43	ABS	0	1	24RO	0	1	0.638705015182	None	None	None	None	1
1.7	2015_Jul_31_1302	s	s	9	4	Capacity	44	RC	0	1	23RO	0	1	0.482002019882	288.0	-188.0	None	None	0
1.7	2015_Jul_31_1302	s	s	9	4	Capacity	45	RC	0	1	23RO	1	0	0.905724048615	-318.0	-208.0	-316	-211	1
1.7	2015_Jul_31_1302	s	s	9	4	Capacity	46	ABS	0	2	24RD	0	1	0.444048881531	None	None	None	None	1
1.7	2015_Jul_31_1302	s	s	9	4	Capacity	47	RC	0	2	23RD	1	0	0.479767084122	244.0	-282.0	247	-287	1
1.7	2015_Jul_31_1302	s	s	9	4	Capacity	48	ABS	0	1	24RO	0	1	0.314516067505	None	None	None	None	1
1.7	2015_Jul_31_1302	s	s	9	4	Capacity	49	RC	0	2	23RD	1	0	0.51322889328	-57.0	-105.0	-53	-108	1
1.7	2015_Jul_31_1302	s	s	9	4	Capacity	50	RC	0	1	23RO	0	1	0.241583108902	344.0	246.0	None	None	0
1.7	2015_Jul_31_1302	s	s	9	4	Capacity	51	ABS	0	1	24RO	0	1	0.276952028275	None	None	None	None	1
1.7	2015_Jul_31_1302	s	s	9	4	Capacity	52	ABS	0	2	24RD	0	1	0.629529953003	None	None	None	None	1
1.7	2015_Jul_31_1302	s	s	9	4	Capacity	53	ABS	0	1	24RO	0	1	1.80032014847	None	None	None	None	1
1.7	2015_Jul_31_1302	s	s	9	4	Capacity	54	ABS	0	2	24RD	0	1	0.642531871796	None	None	None	None	1
1.7	2015_Jul_31_1302	s	s	9	4	Capacity	55	RC	0	2	23RD	1	0	0.687954187393	-511.0	-186.0	-512	-187	1
1.7	2015_Jul_31_1302	s	s	9	4	Capacity	56	RC	0	1	23RO	0	1	0.7761490345	536.0	86.0	None	None	0
1.7	2015_Jul_31_1302	s	s	9	4	Capacity	57	RC	0	1	23RO	0	1	3.96382498741	180.0	183.0	None	None	0
1.7	2015_Jul_31_1302	s	s	9	4	Capacity	58	ABS	0	2	24RD	0	1	0.658571958542	None	None	None	None	1
1.7	2015_Jul_31_1302	s	s	9	4	Capacity	59	ABS	0	1	24RO	0	1	2.70445990562	None	None	None	None	1
1.7	2015_Jul_31_1302	s	s	9	4	Capacity	60	RC	0	2	23RD	1	0	0.694125175476	302.0	222.0	304	226	1
1.7	2015_Jul_31_1302	s	s	9	4	Capacity	61	ABS	0	2	24RD	0	1	0.682029008865	None	None	None	None	1
1.7	2015_Jul_31_1302	s	s	9	4	Capacity	62	RC	0	1	23RO	1	0	1.03286600113	287.0	177.0	283	178	1
1.7	2015_Jul_31_1302	s	s	9	4	Capacity	63	RC	0	2	23RD	1	0	0.843577861786	-370.0	-239.0	-371	-242	1
1.7	2015_Jul_31_1302	s	s	9	4	Capacity	64	ABS	0	1	24RO	0	1	0.371856927872	None	None	None	None	1
1.7	2015_Jul_31_1302	s	s	9	4	Capacity	65	RC	0	1	23RO	0	1	0.41745018959	-82.0	-338.0	None	None	0
1.7	2015_Jul_31_1302	s	s	9	4	Capacity	66	RC	0	2	23RD	1	0	0.773776054382	414.0	-384.0	416	-386	1
1.7	2015_Jul_31_1302	s	s	9	4	Capacity	67	ABS	0	1	24RO	0	1	0.818015098572	None	None	None	None	1
1.7	2015_Jul_31_1302	s	s	9	4	Capacity	68	ABS	0	2	24RD	0	1	0.540812015533	None	None	None	None	1
1.7	2015_Jul_31_1302	s	s	9	4	Capacity	69	RC	0	1	23RO	0	1	0.407126903534	-93.0	308.0	None	None	0
1.7	2015_Jul_31_1302	s	s	9	4	Capacity	70	ABS	0	1	24RO	0	1	0.552934885025	None	None	None	None	1
1.7	2015_Jul_31_1302	s	s	9	4	Capacity	71	RC	0	2	23RD	0	1	0.408293962479	-456.0	254.0	None	None	0
1.7	2015_Jul_31_1302	s	s	9	4	Capacity	72	ABS	0	2	24RD	0	1	0.670279026031	None	None	None	None	1
1.7	2015_Jul_31_1302	s	s	9	4	Capacity	73	ABS	0	2	24RD	0	1	0.647052049637	None	None	None	None	1
1.7	2015_Jul_31_1302	s	s	9	4	Capacity	74	ABS	0	1	24RO	0	1	2.76074385643	None	None	None	None	1
1.7	2015_Jul_31_1302	s	s	9	4	Capacity	75	RC	0	1	23RO	1	0	2.32977700233	152.0	-44.0	151	-48	1
1.7	2015_Jul_31_1302	s	s	9	4	Capacity	76	RC	0	2	23RD	1	0	0.650422096252	-61.0	-365.0	-55	-363	1
1.7	2015_Jul_31_1302	s	s	9	4	Capacity	77	ABS	0	2	24RD	0	1	0.585566997528	None	None	None	None	1
1.7	2015_Jul_31_1302	s	s	9	4	Capacity	78	ABS	0	1	24RO	0	1	1.52692103386	None	None	None	None	1
1.7	2015_Jul_31_1302	s	s	9	4	Capacity	79	RC	0	1	23RO	1	0	2.01223802567	294.0	-275.0	293	-276	1
1.7	2015_Jul_31_1302	s	s	9	4	Capacity	80	RC	0	2	23RD	1	0	0.58780503273	121.0	14.0	124	3	1
1.7	2015_Jul_31_1302	s	s	9	4	Capacity	81	RC	0	1	23RO	1	0	1.02338504791	-77.0	-357.0	-73	-354	1
1.7	2015_Jul_31_1302	s	s	9	4	Capacity	82	RC	0	2	23RD	1	0	0.865545988083	120.0	312.0	121	316	1
1.7	2015_Jul_31_1302	s	s	9	4	Capacity	83	ABS	0	1	24RO	0	1	1.92509007454	None	None	None	None	1
1.7	2015_Jul_31_1302	s	s	9	4	Capacity	84	ABS	0	2	24RD	0	1	0.729071855545	None	None	None	None	1
1.7	2015_Jul_31_1302	s	s	9	4	Capacity	85	ABS	0	2	24RD	0	1	0.599611997604	None	None	None	None	1
1.7	2015_Jul_31_1302	s	s	9	4	Capacity	86	RC	0	1	23RO	0	1	1.38365793228	365.0	240.0	None	None	0
1.7	2015_Jul_31_1302	s	s	9	4	Capacity	87	ABS	0	1	24RO	0	1	3.08091187477	None	None	None	None	1
1.7	2015_Jul_31_1302	s	s	9	4	Capacity	88	RC	0	2	23RD	1	0	0.597419977188	287.0	-40.0	291	-36	1
1.7	2015_Jul_31_1302	s	s	9	4	Capacity	89	RC	0	1	23RO	0	1	1.78272199631	-146.0	-316.0	None	None	0
1.7	2015_Jul_31_1302	s	s	9	4	Capacity	90	ABS	0	2	24RD	0	1	0.652302980423	None	None	None	None	1
1.7	2015_Jul_31_1302	s	s	9	4	Capacity	91	RC	0	2	23RD	1	0	0.470263004303	-480.0	-346.0	-482	-347	1
1.7	2015_Jul_31_1302	s	s	9	4	Capacity	92	ABS	0	1	24RO	0	1	0.438555955887	None	None	None	None	1
1.7	2015_Jul_31_1302	s	s	9	4	SIC	1	RC	2	1	23VO	1	0	0.662207841873	-420.0	-399.0	-433	-390	1
1.7	2015_Jul_31_1302	s	s	9	4	SIC	2	RC	0	2	23RD	0	1	0.737682104111	531.0	127.0	None	None	0
1.7	2015_Jul_31_1302	s	s	9	4	SIC	3	ABS	0	1	24RO	0	1	0.693906068802	None	None	None	None	1
1.7	2015_Jul_31_1302	s	s	9	4	SIC	4	ABS	0	2	24RD	0	1	0.418031930923	None	None	None	None	1
1.7	2015_Jul_31_1302	s	s	9	4	SIC	5	RC	2	2	23VD	0	1	0.86531996727	168.0	402.0	None	None	0
1.7	2015_Jul_31_1302	s	s	9	4	SIC	6	RC	0	1	23RO	0	1	2.85970687866	-272.0	398.0	None	None	0
1.7	2015_Jul_31_1302	s	s	9	4	SIC	7	RC	1	2	23MD	1	0	0.524061918259	485.0	-385.0	494	-387	1
1.7	2015_Jul_31_1302	s	s	9	4	SIC	8	ABS	2	2	24VD	0	1	0.197041988373	None	None	None	None	1
1.7	2015_Jul_31_1302	s	s	9	4	SIC	9	ABS	2	1	24VO	0	1	0.481986999512	None	None	None	None	1
1.7	2015_Jul_31_1302	s	s	9	4	SIC	10	ABS	2	0	24VC	0	1	0.4974629879	None	None	None	None	1
1.7	2015_Jul_31_1302	s	s	9	4	SIC	11	RC	2	0	23VC	1	0	0.758535146713	-285.0	-82.0	-294	-81	1
1.7	2015_Jul_31_1302	s	s	9	4	SIC	12	ABS	1	1	24MO	1	0	0.752688884735	None	None	196	-16	0
1.7	2015_Jul_31_1302	s	s	9	4	SIC	13	RC	1	1	23MO	1	0	1.60013699532	82.0	62.0	90	57	1
1.7	2015_Jul_31_1302	s	s	9	4	SIC	14	ABS	1	2	24MD	0	1	0.623176813126	None	None	None	None	1
1.7	2015_Jul_31_1302	s	s	9	4	SIC	15	ABS	1	0	24MC	1	0	1.38268184662	None	None	-383	316	0
1.7	2015_Jul_31_1302	s	s	9	4	SIC	16	RC	1	0	23MC	1	0	0.47004199028	-169.0	134.0	-174	140	1
1.7	2015_Jul_31_1302	s	s	9	4	SIC	17	RC	1	2	23MD	1	0	0.64684009552	-463.0	-70.0	-468	-74	1
1.7	2015_Jul_31_1302	s	s	9	4	SIC	18	ABS	1	1	24MO	0	1	0.81139087677	None	None	None	None	1
1.7	2015_Jul_31_1302	s	s	9	4	SIC	19	RC	2	0	23VC	1	0	0.561231136322	-153.0	339.0	-149	339	1
1.7	2015_Jul_31_1302	s	s	9	4	SIC	20	RC	1	1	23MO	1	0	0.664975881577	-393.0	297.0	-384	301	1
1.7	2015_Jul_31_1302	s	s	9	4	SIC	21	RC	0	1	23RO	0	1	0.632768154144	22.0	-395.0	None	None	0
1.7	2015_Jul_31_1302	s	s	9	4	SIC	22	RC	2	1	23VO	1	0	0.552567958832	-119.0	-139.0	-125	-145	1
1.7	2015_Jul_31_1302	s	s	9	4	SIC	23	ABS	2	1	24VO	0	1	0.500557899475	None	None	None	None	1
1.7	2015_Jul_31_1302	s	s	9	4	SIC	24	RC	2	2	23VD	0	1	9.3936920166e-05	271.0	256.0	None	None	0
1.7	2015_Jul_31_1302	s	s	9	4	SIC	25	ABS	2	2	24VD	0	1	0.267534971237	None	None	None	None	1
1.7	2015_Jul_31_1302	s	s	9	4	SIC	26	ABS	0	2	24RD	0	1	0.255242109299	None	None	None	None	1
1.7	2015_Jul_31_1302	s	s	9	4	SIC	27	RC	1	0	23MC	0	1	0.211239099503	60.0	135.0	None	None	0
1.7	2015_Jul_31_1302	s	s	9	4	SIC	28	ABS	2	0	24VC	0	1	0.787967920303	None	None	None	None	1
1.7	2015_Jul_31_1302	s	s	9	4	SIC	29	ABS	1	2	24MD	0	1	0.634969949722	None	None	None	None	1
1.7	2015_Jul_31_1302	s	s	9	4	SIC	30	ABS	1	0	24MC	0	1	0.632652997971	None	None	None	None	1
1.7	2015_Jul_31_1302	s	s	9	4	SIC	31	RC	0	2	23RD	1	0	0.752748012543	61.0	-192.0	65	-189	1
1.7	2015_Jul_31_1302	s	s	9	4	SIC	32	ABS	0	1	24RO	0	1	3.35405898094	None	None	None	None	1
1.7	2015_Jul_31_1302	s	s	9	4	SIC	33	ABS	1	0	24MC	0	1	3.36046910286	None	None	None	None	1
1.7	2015_Jul_31_1302	s	s	9	4	SIC	34	RC	1	1	23MO	0	1	0.791707038879	254.0	266.0	None	None	0
1.7	2015_Jul_31_1302	s	s	9	4	SIC	35	RC	1	0	23MC	1	0	0.795050144196	168.0	292.0	169	286	1
1.7	2015_Jul_31_1302	s	s	9	4	SIC	36	ABS	0	2	24RD	0	1	0.690744161606	None	None	None	None	1
1.7	2015_Jul_31_1302	s	s	9	4	SIC	37	ABS	2	2	24VD	0	1	1.12924790382	None	None	None	None	1
1.7	2015_Jul_31_1302	s	s	9	4	SIC	38	ABS	2	1	24VO	0	1	1.17651414871	None	None	None	None	1
1.7	2015_Jul_31_1302	s	s	9	4	SIC	39	RC	0	1	23RO	0	1	2.85500097275	128.0	-123.0	None	None	0
1.7	2015_Jul_31_1302	s	s	9	4	SIC	40	RC	0	2	23RD	1	0	0.594521999359	85.0	235.0	83	237	1
1.7	2015_Jul_31_1302	s	s	9	4	SIC	41	RC	2	0	23VC	1	0	0.517358064651	-352.0	-79.0	-350	-89	1
1.7	2015_Jul_31_1302	s	s	9	4	SIC	42	ABS	0	1	24RO	0	1	1.23321604729	None	None	None	None	1
1.7	2015_Jul_31_1302	s	s	9	4	SIC	43	RC	2	2	23VD	1	0	0.524102926254	169.0	143.0	175	144	1
1.7	2015_Jul_31_1302	s	s	9	4	SIC	44	RC	2	1	23VO	1	0	0.517277002335	461.0	26.0	458	29	1
1.7	2015_Jul_31_1302	s	s	9	4	SIC	45	RC	1	2	23MD	1	0	0.717402935028	-80.0	348.0	-77	350	1
1.7	2015_Jul_31_1302	s	s	9	4	SIC	46	ABS	1	1	24MO	0	1	0.717435121536	None	None	None	None	1
1.7	2015_Jul_31_1302	s	s	9	4	SIC	47	ABS	2	0	24VC	0	1	0.808781862259	None	None	None	None	1
1.7	2015_Jul_31_1302	s	s	9	4	SIC	48	ABS	1	2	24MD	0	1	0.550293922424	None	None	None	None	1
1.7	2015_Jul_31_1302	s	s	9	4	SIC	49	ABS	2	1	24VO	0	1	0.512325048447	None	None	None	None	1
1.7	2015_Jul_31_1302	s	s	9	4	SIC	50	ABS	1	0	24MC	0	1	0.64372587204	None	None	None	None	1
1.7	2015_Jul_31_1302	s	s	9	4	SIC	51	RC	2	2	23VD	1	0	0.926260948181	-440.0	-37.0	-448	-35	1
1.7	2015_Jul_31_1302	s	s	9	4	SIC	52	RC	1	0	23MC	0	1	0.787980079651	251.0	-238.0	None	None	0
1.7	2015_Jul_31_1302	s	s	9	4	SIC	53	RC	1	2	23MD	1	0	0.830034017563	245.0	48.0	243	48	1
1.7	2015_Jul_31_1302	s	s	9	4	SIC	54	RC	2	1	23VO	0	1	2.59298801422	433.0	-82.0	None	None	0
1.7	2015_Jul_31_1302	s	s	9	4	SIC	55	RC	2	0	23VC	0	1	0.729151010513	-347.0	99.0	None	None	0
1.7	2015_Jul_31_1302	s	s	9	4	SIC	56	RC	0	1	23RO	0	1	0.580137014389	-397.0	-299.0	None	None	0
1.7	2015_Jul_31_1302	s	s	9	4	SIC	57	ABS	1	1	24MO	0	1	0.629940032959	None	None	None	None	1
1.7	2015_Jul_31_1302	s	s	9	4	SIC	58	ABS	0	2	24RD	0	1	0.171365022659	None	None	None	None	1
1.7	2015_Jul_31_1302	s	s	9	4	SIC	59	ABS	2	0	24VC	0	1	0.193766832352	None	None	None	None	1
1.7	2015_Jul_31_1302	s	s	9	4	SIC	60	RC	1	1	23MO	1	0	1.25881695747	251.0	102.0	248	99	1
1.7	2015_Jul_31_1302	s	s	9	4	SIC	61	ABS	0	1	24RO	0	1	2.95369386673	None	None	None	None	1
1.7	2015_Jul_31_1302	s	s	9	4	SIC	62	ABS	1	2	24MD	0	1	5.57870292664	None	None	None	None	1
1.7	2015_Jul_31_1302	s	s	9	4	SIC	63	RC	0	2	23RD	0	1	3.19618082047	-100.0	22.0	None	None	0
1.7	2015_Jul_31_1302	s	s	9	4	SIC	64	ABS	2	2	24VD	0	1	0.771844863892	None	None	None	None	1
1.7	2015_Jul_31_1302	s	s	9	4	SIC	65	RC	0	2	23RD	0	1	0.787964105606	409.0	-293.0	None	None	0
1.7	2015_Jul_31_1302	s	s	9	4	SIC	66	ABS	2	0	24VC	0	1	0.559464931488	None	None	None	None	1
1.7	2015_Jul_31_1302	s	s	9	4	SIC	67	ABS	1	2	24MD	0	1	0.564279079437	None	None	None	None	1
1.7	2015_Jul_31_1302	s	s	9	4	SIC	68	ABS	0	2	24RD	0	1	0.5326359272	None	None	None	None	1
1.7	2015_Jul_31_1302	s	s	9	4	SIC	69	RC	2	0	23VC	1	0	0.60636305809	-471.0	-316.0	-474	-312	1
1.7	2015_Jul_31_1302	s	s	9	4	SIC	70	ABS	0	1	24RO	0	1	1.09433817863	None	None	None	None	1
1.7	2015_Jul_31_1302	s	s	9	4	SIC	71	RC	0	1	23RO	1	0	2.86895704269	-247.0	44.0	-251	45	1
1.7	2015_Jul_31_1302	s	s	9	4	SIC	72	ABS	2	2	24VD	0	1	0.643554210663	None	None	None	None	1
1.7	2015_Jul_31_1302	s	s	9	4	SIC	73	RC	2	2	23VD	1	0	0.858482837677	-528.0	249.0	-524	243	1
1.7	2015_Jul_31_1302	s	s	9	4	SIC	74	RC	1	0	23MC	1	0	1.78581094742	218.0	304.0	210	302	1
1.7	2015_Jul_31_1302	s	s	9	4	SIC	75	ABS	2	1	24VO	0	1	0.611377000809	None	None	None	None	1
1.7	2015_Jul_31_1302	s	s	9	4	SIC	76	RC	1	2	23MD	1	0	0.528960943222	-341.0	90.0	-333	85	1
1.7	2015_Jul_31_1302	s	s	9	4	SIC	77	ABS	1	1	24MO	0	1	0.711656093597	None	None	None	None	1
1.7	2015_Jul_31_1302	s	s	9	4	SIC	78	ABS	1	0	24MC	0	1	1.47077298164	None	None	None	None	1
1.7	2015_Jul_31_1302	s	s	9	4	SIC	79	RC	1	1	23MO	1	0	0.517255783081	29.0	163.0	28	159	1
1.7	2015_Jul_31_1302	s	s	9	4	SIC	80	RC	2	1	23VO	1	0	2.24754595757	-444.0	89.0	-442	91	1
1.7	2015_Jul_31_1302	s	s	9	4	SIC	81	ABS	0	1	24RO	0	1	0.655086040497	None	None	None	None	1
1.7	2015_Jul_31_1302	s	s	9	4	SIC	82	RC	1	2	23MD	0	1	0.196942090988	22.0	127.0	None	None	0
1.7	2015_Jul_31_1302	s	s	9	4	SIC	83	RC	2	2	23VD	1	0	0.729542016983	-375.0	-26.0	-369	-21	1
1.7	2015_Jul_31_1302	s	s	9	4	SIC	84	RC	0	1	23RO	0	1	0.60564494133	374.0	-325.0	None	None	0
1.7	2015_Jul_31_1302	s	s	9	4	SIC	85	ABS	1	1	24MO	0	1	0.679821014404	None	None	None	None	1
1.7	2015_Jul_31_1302	s	s	9	4	SIC	86	RC	0	2	23RD	1	0	0.729076147079	243.0	155.0	237	156	1
1.7	2015_Jul_31_1302	s	s	9	4	SIC	87	ABS	2	2	24VD	0	1	0.764833927155	None	None	None	None	1
1.7	2015_Jul_31_1302	s	s	9	4	SIC	88	RC	2	0	23VC	1	0	0.499920129776	-247.0	363.0	-242	362	1
1.7	2015_Jul_31_1302	s	s	9	4	SIC	89	RC	1	1	23MO	1	0	0.987941980362	-31.0	114.0	-33	108	1
1.7	2015_Jul_31_1302	s	s	9	4	SIC	90	RC	1	0	23MC	1	0	0.759449005127	-339.0	409.0	-55	36	0
1.7	2015_Jul_31_1302	s	s	9	4	SIC	91	ABS	1	0	24MC	0	1	0.505478143692	None	None	None	None	1
1.7	2015_Jul_31_1302	s	s	9	4	SIC	92	ABS	2	1	24VO	0	1	1.37175703049	None	None	None	None	1
1.7	2015_Jul_31_1302	s	s	9	4	SIC	93	ABS	2	0	24VC	0	1	0.929259061813	None	None	None	None	1
1.7	2015_Jul_31_1302	s	s	9	4	SIC	94	ABS	1	2	24MD	0	1	0.546869039536	None	None	None	None	1
1.7	2015_Jul_31_1302	s	s	9	4	SIC	95	ABS	0	2	24RD	0	1	0.618553161621	None	None	None	None	1
1.7	2015_Jul_31_1302	s	s	9	4	SIC	96	RC	2	1	23VO	1	0	0.599732160568	-211.0	395.0	-210	385	1
1.7	2015_Jul_31_1302	s	s	9	4	SIC	97	RC	0	1	23RO	0	1	0.599625825882	-284.0	-111.0	None	None	0
1.7	2015_Jul_31_1302	s	s	9	4	SIC	98	RC	0	2	23RD	1	0	0.893994092941	503.0	85.0	503	82	1
1.7	2015_Jul_31_1302	s	s	9	4	SIC	99	ABS	1	2	24MD	0	1	0.738481044769	None	None	None	None	1
1.7	2015_Jul_31_1302	s	s	9	4	SIC	100	RC	1	0	23MC	0	1	0.75267791748	320.0	366.0	None	None	0
1.7	2015_Jul_31_1302	s	s	9	4	SIC	101	ABS	1	0	24MC	0	1	0.7481341362	None	None	None	None	1
1.7	2015_Jul_31_1302	s	s	9	4	SIC	102	RC	2	1	23VO	1	0	0.711683034897	-353.0	-100.0	-355	-103	1
1.7	2015_Jul_31_1302	s	s	9	4	SIC	103	ABS	1	1	24MO	0	1	0.914767026901	None	None	None	None	1
1.7	2015_Jul_31_1302	s	s	9	4	SIC	104	ABS	0	2	24RD	0	1	0.842399835587	None	None	None	None	1
1.7	2015_Jul_31_1302	s	s	9	4	SIC	105	ABS	2	1	24VO	0	1	0.770655155182	None	None	None	None	1
1.7	2015_Jul_31_1302	s	s	9	4	SIC	106	RC	2	2	23VD	1	0	0.794754981995	-514.0	194.0	-505	199	1
1.7	2015_Jul_31_1302	s	s	9	4	SIC	107	ABS	2	0	24VC	0	1	1.0743060112	None	None	None	None	1
1.7	2015_Jul_31_1302	s	s	9	4	SIC	108	ABS	2	2	24VD	0	1	0.458337068558	None	None	None	None	1
1.7	2015_Jul_31_1302	s	s	9	4	SIC	109	RC	1	1	23MO	0	1	0.606581926346	65.0	-142.0	None	None	0
1.7	2015_Jul_31_1302	s	s	9	4	SIC	110	RC	1	2	23MD	1	0	0.782852888107	332.0	407.0	331	412	1
1.7	2015_Jul_31_1302	s	s	9	4	SIC	111	RC	2	0	23VC	0	1	0.538707017899	-303.0	-180.0	None	None	0
1.7	2015_Jul_31_1302	s	s	9	4	SIC	112	ABS	0	1	24RO	0	1	0.976307153702	None	None	None	None	1
1.7	2015_Jul_31_1302	s	s	9	4	SIC	113	RC	1	0	23MC	0	1	1.19526982307	181.0	-53.0	None	None	0
1.7	2015_Jul_31_1302	s	s	9	4	SIC	114	RC	1	1	23MO	0	1	0.773689031601	-393.0	-255.0	None	None	0
1.7	2015_Jul_31_1302	s	s	9	4	SIC	115	ABS	2	1	24VO	0	1	0.681987047195	None	None	None	None	1
1.7	2015_Jul_31_1302	s	s	9	4	SIC	116	RC	2	2	23VD	1	0	0.631633996964	-453.0	158.0	-453	157	1
1.7	2015_Jul_31_1302	s	s	9	4	SIC	117	ABS	1	0	24MC	0	1	1.1411318779	None	None	None	None	1
1.7	2015_Jul_31_1302	s	s	9	4	SIC	118	ABS	2	0	24VC	0	1	0.71512389183	None	None	None	None	1
1.7	2015_Jul_31_1302	s	s	9	4	SIC	119	RC	2	1	23VO	1	0	0.632708072662	-103.0	74.0	-105	75	1
1.7	2015_Jul_31_1302	s	s	9	4	SIC	120	ABS	1	1	24MO	0	1	0.853005886078	None	None	None	None	1
1.7	2015_Jul_31_1302	s	s	9	4	SIC	121	ABS	1	2	24MD	0	1	0.900753974915	None	None	None	None	1
1.7	2015_Jul_31_1302	s	s	9	4	SIC	122	RC	1	2	23MD	1	0	0.5996530056	-176.0	-30.0	-166	-22	1
1.7	2015_Jul_31_1302	s	s	9	4	SIC	123	RC	0	2	23RD	1	0	0.599662065506	-185.0	173.0	-184	174	1
1.7	2015_Jul_31_1302	s	s	9	4	SIC	124	ABS	2	2	24VD	0	1	1.18822693825	None	None	None	None	1
1.7	2015_Jul_31_1302	s	s	9	4	SIC	125	RC	0	1	23RO	0	1	2.41907501221	-162.0	-181.0	None	None	0
1.7	2015_Jul_31_1302	s	s	9	4	SIC	126	RC	2	0	23VC	1	0	0.533093929291	440.0	70.0	438	73	1
1.7	2015_Jul_31_1302	s	s	9	4	SIC	127	ABS	0	2	24RD	0	1	0.641376972198	None	None	None	None	1
1.7	2015_Jul_31_1302	s	s	9	4	SIC	128	ABS	0	1	24RO	0	1	0.723206996918	None	None	None	None	1
1.7	2015_Jul_31_1302	s	s	9	4	SIC	129	ABS	0	1	24RO	0	1	0.670305013657	None	None	None	None	1
1.7	2015_Jul_31_1302	s	s	9	4	SIC	130	RC	1	0	23MC	0	1	0.632686853409	-164.0	-253.0	None	None	0
1.7	2015_Jul_31_1302	s	s	9	4	SIC	131	ABS	0	2	24RD	0	1	0.752779006958	None	None	None	None	1
1.7	2015_Jul_31_1302	s	s	9	4	SIC	132	RC	2	1	23VO	1	0	0.585051059723	-89.0	-163.0	-86	-157	1
1.7	2015_Jul_31_1302	s	s	9	4	SIC	133	RC	2	2	23VD	1	0	0.548979043961	-214.0	-399.0	-221	-393	1
1.7	2015_Jul_31_1302	s	s	9	4	SIC	134	ABS	1	2	24MD	0	1	0.667855978012	None	None	None	None	1
1.7	2015_Jul_31_1302	s	s	9	4	SIC	135	ABS	2	1	24VO	1	0	0.536596059799	None	None	-2	-19	0
1.7	2015_Jul_31_1302	s	s	9	4	SIC	136	ABS	2	0	24VC	0	1	0.36420416832	None	None	None	None	1
1.7	2015_Jul_31_1302	s	s	9	4	SIC	137	ABS	1	0	24MC	0	1	0.517311096191	None	None	None	None	1
1.7	2015_Jul_31_1302	s	s	9	4	SIC	138	ABS	2	2	24VD	0	1	0.443516016006	None	None	None	None	1
1.7	2015_Jul_31_1302	s	s	9	4	SIC	139	RC	2	0	23VC	1	0	0.571759939194	-398.0	36.0	-395	31	1
1.7	2015_Jul_31_1302	s	s	9	4	SIC	140	RC	0	1	23RO	0	1	1.2327439785	-427.0	80.0	None	None	0
1.7	2015_Jul_31_1302	s	s	9	4	SIC	141	RC	1	1	23MO	0	1	0.361757993698	-75.0	300.0	None	None	0
1.7	2015_Jul_31_1302	s	s	9	4	SIC	142	ABS	1	1	24MO	0	1	0.360620975494	None	None	None	None	1
1.7	2015_Jul_31_1302	s	s	9	4	SIC	143	RC	0	2	23RD	1	0	0.726172924042	62.0	19.0	56	16	1
1.7	2015_Jul_31_1302	s	s	9	4	SIC	144	RC	1	2	23MD	1	0	0.500576972961	51.0	31.0	50	25	1
1.7	2015_Jul_31_1302	s	s	9	4	SIC	145	ABS	2	1	24VO	0	1	0.670336008072	None	None	None	None	1
1.7	2015_Jul_31_1302	s	s	9	4	SIC	146	RC	2	1	23VO	1	0	0.780000925064	394.0	-253.0	396	-251	1
1.7	2015_Jul_31_1302	s	s	9	4	SIC	147	ABS	1	1	24MO	0	1	0.658576011658	None	None	None	None	1
1.7	2015_Jul_31_1302	s	s	9	4	SIC	148	RC	0	1	23RO	0	1	0.587985992432	-93.0	136.0	None	None	0
1.7	2015_Jul_31_1302	s	s	9	4	SIC	149	ABS	0	1	24RO	0	1	0.584896087646	None	None	None	None	1
1.7	2015_Jul_31_1302	s	s	9	4	SIC	150	RC	2	0	23VC	1	0	0.629637956619	-440.0	180.0	-433	178	1
1.7	2015_Jul_31_1302	s	s	9	4	SIC	151	RC	1	1	23MO	1	0	1.08221292496	371.0	-231.0	372	-229	1
1.7	2015_Jul_31_1302	s	s	9	4	SIC	152	ABS	1	0	24MC	0	1	0.686388969421	None	None	None	None	1
1.7	2015_Jul_31_1302	s	s	9	4	SIC	153	RC	0	2	23RD	0	1	0.559239864349	360.0	243.0	None	None	0
1.7	2015_Jul_31_1302	s	s	9	4	SIC	154	ABS	1	2	24MD	0	1	0.856060028076	None	None	None	None	1
1.7	2015_Jul_31_1302	s	s	9	4	SIC	155	ABS	0	2	24RD	0	1	0.470186948776	None	None	None	None	1
1.7	2015_Jul_31_1302	s	s	9	4	SIC	156	ABS	2	2	24VD	0	1	0.505619049072	None	None	None	None	1
1.7	2015_Jul_31_1302	s	s	9	4	SIC	157	RC	1	0	23MC	0	1	1.68260908127	-364.0	-345.0	None	None	0
1.7	2015_Jul_31_1302	s	s	9	4	SIC	158	RC	1	2	23MD	1	0	0.611541032791	209.0	334.0	210	335	1
1.7	2015_Jul_31_1302	s	s	9	4	SIC	159	ABS	2	0	24VC	0	1	0.735842943192	None	None	None	None	1
1.7	2015_Jul_31_1302	s	s	9	4	SIC	160	RC	2	2	23VD	1	0	0.611483097076	79.0	-127.0	84	-134	1
1.7	2015_Jul_31_1302	s	s	9	4	SIC	161	RC	2	2	23VD	1	0	0.535263061523	246.0	-235.0	242	-232	1
1.7	2015_Jul_31_1302	s	s	9	4	SIC	162	RC	1	0	23MC	1	0	1.05411601067	-500.0	-6.0	-499	-8	1
1.7	2015_Jul_31_1302	s	s	9	4	SIC	163	RC	1	1	23MO	1	0	0.503114938736	51.0	9.0	43	3	1
1.7	2015_Jul_31_1302	s	s	9	4	SIC	164	RC	0	1	23RO	0	1	0.600075006485	502.0	165.0	None	None	0
1.7	2015_Jul_31_1302	s	s	9	4	SIC	165	ABS	0	2	24RD	0	1	0.454952955246	None	None	None	None	1
1.7	2015_Jul_31_1302	s	s	9	4	SIC	166	ABS	1	1	24MO	0	1	0.941083908081	None	None	None	None	1
1.7	2015_Jul_31_1302	s	s	9	4	SIC	167	RC	2	1	23VO	1	0	1.16220712662	45.0	-359.0	42	-364	1
1.7	2015_Jul_31_1302	s	s	9	4	SIC	168	RC	1	2	23MD	1	0	0.59633898735	-499.0	314.0	-500	301	1
1.7	2015_Jul_31_1302	s	s	9	4	SIC	169	ABS	2	2	24VD	0	1	0.281715869904	None	None	None	None	1
1.7	2015_Jul_31_1302	s	s	9	4	SIC	170	RC	0	2	23RD	0	1	0.22332406044	254.0	-314.0	None	None	0
1.7	2015_Jul_31_1302	s	s	9	4	SIC	171	ABS	1	0	24MC	1	0	0.41192984581	None	None	29	60	0
1.7	2015_Jul_31_1302	s	s	9	4	SIC	172	RC	2	0	23VC	1	0	0.569069862366	81.0	-58.0	77	-51	1
1.7	2015_Jul_31_1302	s	s	9	4	SIC	173	ABS	0	1	24RO	0	1	0.432646989822	None	None	None	None	1
1.7	2015_Jul_31_1302	s	s	9	4	SIC	174	ABS	2	1	24VO	0	1	0.811417102814	None	None	None	None	1
1.7	2015_Jul_31_1302	s	s	9	4	SIC	175	ABS	1	2	24MD	0	1	0.336321115494	None	None	None	None	1
1.7	2015_Jul_31_1302	s	s	9	4	SIC	176	ABS	2	0	24VC	0	1	0.490238189697	None	None	None	None	1
1.7	2015_Jul_31_1302	s	s	9	4	SIC	177	ABS	2	0	24VC	0	1	0.446579933167	None	None	None	None	1
1.7	2015_Jul_31_1302	s	s	9	4	SIC	178	RC	0	1	23RO	0	1	0.478703022003	-387.0	-214.0	None	None	0
1.7	2015_Jul_31_1302	s	s	9	4	SIC	179	ABS	1	2	24MD	0	1	0.64130115509	None	None	None	None	1
1.7	2015_Jul_31_1302	s	s	9	4	SIC	180	RC	1	2	23MD	1	0	0.552654981613	-306.0	287.0	-302	282	1
1.7	2015_Jul_31_1302	s	s	9	4	SIC	181	RC	2	0	23VC	1	0	0.615270137787	-39.0	-240.0	-30	-240	1
1.7	2015_Jul_31_1302	s	s	9	4	SIC	182	RC	1	0	23MC	1	0	1.23252892494	277.0	-296.0	283	-296	1
1.7	2015_Jul_31_1302	s	s	9	4	SIC	183	RC	2	2	23VD	1	0	0.522842884064	-92.0	268.0	-95	258	1
1.7	2015_Jul_31_1302	s	s	9	4	SIC	184	ABS	1	1	24MO	0	1	0.917371988297	None	None	None	None	1
1.7	2015_Jul_31_1302	s	s	9	4	SIC	185	RC	0	2	23RD	1	0	0.600156068802	513.0	-114.0	519	-121	1
1.7	2015_Jul_31_1302	s	s	9	4	SIC	186	RC	2	1	23VO	1	0	0.537006139755	-103.0	-158.0	-103	-167	1
1.7	2015_Jul_31_1302	s	s	9	4	SIC	187	RC	1	1	23MO	1	0	0.717411994934	-425.0	154.0	-421	145	1
1.7	2015_Jul_31_1302	s	s	9	4	SIC	188	ABS	1	0	24MC	0	1	2.92773485184	None	None	None	None	1
1.7	2015_Jul_31_1302	s	s	9	4	SIC	189	ABS	0	1	24RO	0	1	1.1144220829	None	None	None	None	1
1.7	2015_Jul_31_1302	s	s	9	4	SIC	190	ABS	0	2	24RD	0	1	0.843826055527	None	None	None	None	1
1.7	2015_Jul_31_1302	s	s	9	4	SIC	191	ABS	2	2	24VD	0	1	0.54074716568	None	None	None	None	1
1.7	2015_Jul_31_1302	s	s	9	4	SIC	192	ABS	2	1	24VO	0	1	7.40073108673	None	None	None	None	1
1.7	2015_Jul_31_1302	s	s	9	4	SIC	193	RC	2	1	23VO	1	0	0.643283128738	-15.0	-296.0	-6	-299	1
1.7	2015_Jul_31_1302	s	s	9	4	SIC	194	ABS	0	2	24RD	0	1	3.80128002167	None	None	None	None	1
1.7	2015_Jul_31_1302	s	s	9	4	SIC	195	RC	0	1	23RO	0	1	0.585441112518	-416.0	-164.0	None	None	0
1.7	2015_Jul_31_1302	s	s	9	4	SIC	196	ABS	1	0	24MC	0	1	0.970280885696	None	None	None	None	1
1.7	2015_Jul_31_1302	s	s	9	4	SIC	197	ABS	1	2	24MD	0	1	0.432061910629	None	None	None	None	1
1.7	2015_Jul_31_1302	s	s	9	4	SIC	198	ABS	1	1	24MO	0	1	0.444261074066	None	None	None	None	1
1.7	2015_Jul_31_1302	s	s	9	4	SIC	199	RC	0	2	23RD	0	1	0.41134595871	369.0	-256.0	None	None	0
1.7	2015_Jul_31_1302	s	s	9	4	SIC	200	RC	1	2	23MD	1	0	0.52323102951	39.0	-57.0	38	-60	1
1.7	2015_Jul_31_1302	s	s	9	4	SIC	201	RC	2	0	23VC	1	0	0.465518951416	265.0	-325.0	266	-324	1
1.7	2015_Jul_31_1302	s	s	9	4	SIC	202	ABS	2	1	24VO	0	1	0.611418008804	None	None	None	None	1
1.7	2015_Jul_31_1302	s	s	9	4	SIC	203	RC	1	1	23MO	0	1	0.784519910812	117.0	325.0	None	None	0
1.7	2015_Jul_31_1302	s	s	9	4	SIC	204	ABS	0	1	24RO	0	1	0.82351899147	None	None	None	None	1
1.7	2015_Jul_31_1302	s	s	9	4	SIC	205	ABS	2	0	24VC	0	1	0.611677885056	None	None	None	None	1
1.7	2015_Jul_31_1302	s	s	9	4	SIC	206	RC	1	0	23MC	0	1	0.478498935699	347.0	100.0	None	None	0
1.7	2015_Jul_31_1302	s	s	9	4	SIC	207	ABS	2	2	24VD	0	1	0.540835857391	None	None	None	None	1
1.7	2015_Jul_31_1302	s	s	9	4	SIC	208	RC	2	2	23VD	1	0	0.454692840576	496.0	320.0	496	315	1
1.7	2015_Jul_31_1302	s	s	9	4	SIC	209	ABS	2	2	24VD	0	1	0.576143026352	None	None	None	None	1
1.7	2015_Jul_31_1302	s	s	9	4	SIC	210	ABS	1	0	24MC	0	1	0.641975164413	None	None	None	None	1
1.7	2015_Jul_31_1302	s	s	9	4	SIC	211	RC	2	1	23VO	1	0	0.535549879074	-105.0	-87.0	-101	-80	1
1.7	2015_Jul_31_1302	s	s	9	4	SIC	212	ABS	2	1	24VO	0	1	0.515055179596	None	None	None	None	1
1.7	2015_Jul_31_1302	s	s	9	4	SIC	213	RC	0	2	23RD	1	0	0.549832820892	-74.0	-139.0	-73	-135	1
1.7	2015_Jul_31_1302	s	s	9	4	SIC	214	RC	2	0	23VC	1	0	0.514845132828	536.0	200.0	537	200	1
1.7	2015_Jul_31_1302	s	s	9	4	SIC	215	ABS	1	1	24MO	0	1	0.587866067886	None	None	None	None	1
1.7	2015_Jul_31_1302	s	s	9	4	SIC	216	RC	1	0	23MC	0	1	0.497378110886	-185.0	-320.0	None	None	0
1.7	2015_Jul_31_1302	s	s	9	4	SIC	217	ABS	0	2	24RD	0	1	2.32689499855	None	None	None	None	1
1.7	2015_Jul_31_1302	s	s	9	4	SIC	218	ABS	1	2	24MD	0	1	0.538280010223	None	None	None	None	1
1.7	2015_Jul_31_1302	s	s	9	4	SIC	219	RC	1	1	23MO	1	0	0.823275089264	-14.0	395.0	-15	400	1
1.7	2015_Jul_31_1302	s	s	9	4	SIC	220	ABS	2	0	24VC	0	1	0.729191064835	None	None	None	None	1
1.7	2015_Jul_31_1302	s	s	9	4	SIC	221	RC	2	2	23VD	1	0	0.517257928848	147.0	251.0	143	255	1
1.7	2015_Jul_31_1302	s	s	9	4	SIC	222	RC	1	2	23MD	1	0	0.78181385994	-315.0	-227.0	-312	-223	1
1.7	2015_Jul_31_1302	s	s	9	4	SIC	223	ABS	0	1	24RO	0	1	2.88308620453	None	None	None	None	1
1.7	2015_Jul_31_1302	s	s	9	4	SIC	224	RC	0	1	23RO	1	0	1.92966508865	405.0	362.0	405	366	1
1.7	2015_Jul_31_1302	s	s	9	4	SIC	225	RC	0	2	23RD	1	0	0.68203997612	45.0	-199.0	41	-202	1
1.7	2015_Jul_31_1302	s	s	9	4	SIC	226	RC	2	2	23VD	1	0	0.505578994751	-10.0	386.0	-13	386	1
1.7	2015_Jul_31_1302	s	s	9	4	SIC	227	ABS	0	2	24RD	0	1	1.62000513077	None	None	None	None	1
1.7	2015_Jul_31_1302	s	s	9	4	SIC	228	ABS	2	2	24VD	0	1	0.729107141495	None	None	None	None	1
1.7	2015_Jul_31_1302	s	s	9	4	SIC	229	ABS	2	1	24VO	0	1	0.782627105713	None	None	None	None	1
1.7	2015_Jul_31_1302	s	s	9	4	SIC	230	ABS	1	2	24MD	0	1	0.666059970856	None	None	None	None	1
1.7	2015_Jul_31_1302	s	s	9	4	SIC	231	RC	1	2	23MD	1	0	0.678766012192	-3.0	55.0	-6	55	1
1.7	2015_Jul_31_1302	s	s	9	4	SIC	232	RC	1	1	23MO	1	0	1.41912722588	344.0	-95.0	345	-95	1
1.7	2015_Jul_31_1302	s	s	9	4	SIC	233	ABS	0	1	24RO	0	1	4.22167801857	None	None	None	None	1
1.7	2015_Jul_31_1302	s	s	9	4	SIC	234	RC	1	0	23MC	0	1	1.02744102478	500.0	342.0	None	None	0
1.7	2015_Jul_31_1302	s	s	9	4	SIC	235	RC	2	1	23VO	1	0	0.597147941589	-114.0	321.0	-109	317	1
1.7	2015_Jul_31_1302	s	s	9	4	SIC	236	ABS	1	1	24MO	0	1	2.85955095291	None	None	None	None	1
1.7	2015_Jul_31_1302	s	s	9	4	SIC	237	ABS	1	0	24MC	0	1	1.37733101845	None	None	None	None	1
1.7	2015_Jul_31_1302	s	s	9	4	SIC	238	RC	2	0	23VC	1	0	0.623292922974	309.0	-243.0	308	-242	1
1.7	2015_Jul_31_1302	s	s	9	4	SIC	239	ABS	2	0	24VC	0	1	0.717283964157	None	None	None	None	1
1.7	2015_Jul_31_1302	s	s	9	4	SIC	240	RC	0	1	23RO	0	1	1.38833093643	408.0	243.0	None	None	0
1.7	2015_Jul_31_1302	s	s	9	4	SIC	241	RC	1	1	23MO	1	0	1.14514398575	-304.0	268.0	-300	268	1
1.7	2015_Jul_31_1302	s	s	9	4	SIC	242	RC	1	0	23MC	0	1	11.2825620174	232.0	35.0	None	None	0
1.7	2015_Jul_31_1302	s	s	9	4	SIC	243	ABS	0	1	24RO	0	1	7.91589403152	None	None	None	None	1
1.7	2015_Jul_31_1302	s	s	9	4	SIC	244	RC	1	2	23MD	0	1	0.988066911697	-154.0	-79.0	None	None	0
1.7	2015_Jul_31_1302	s	s	9	4	SIC	245	ABS	2	2	24VD	0	1	0.505525112152	None	None	None	None	1
1.7	2015_Jul_31_1302	s	s	9	4	SIC	246	ABS	1	0	24MC	0	1	0.599726200104	None	None	None	None	1
1.7	2015_Jul_31_1302	s	s	9	4	SIC	247	ABS	2	1	24VO	0	1	0.470188140869	None	None	None	None	1
1.7	2015_Jul_31_1302	s	s	9	4	SIC	248	RC	0	2	23RD	1	0	0.618360042572	-138.0	-213.0	-137	-213	1
1.7	2015_Jul_31_1302	s	s	9	4	SIC	249	RC	2	1	23VO	1	0	0.903012990952	-127.0	-131.0	-128	-143	1
1.7	2015_Jul_31_1302	s	s	9	4	SIC	250	RC	2	2	23VD	1	0	0.564709186554	98.0	126.0	105	127	1
1.7	2015_Jul_31_1302	s	s	9	4	SIC	251	ABS	0	2	24RD	0	1	0.606003046036	None	None	None	None	1
1.7	2015_Jul_31_1302	s	s	9	4	SIC	252	RC	2	0	23VC	0	1	0.278105974197	-395.0	342.0	None	None	0
1.7	2015_Jul_31_1302	s	s	9	4	SIC	253	ABS	1	1	24MO	0	1	0.682055950165	None	None	None	None	1
1.7	2015_Jul_31_1302	s	s	9	4	SIC	254	ABS	1	2	24MD	0	1	1.47705388069	None	None	None	None	1
1.7	2015_Jul_31_1302	s	s	9	4	SIC	255	ABS	2	0	24VC	0	1	0.370990991592	None	None	None	None	1
1.7	2015_Jul_31_1302	s	s	9	4	SIC	256	RC	0	1	23RO	0	1	0.51257610321	153.0	-132.0	None	None	0
1.7	2015_Jul_31_1302	s	s	9	4	SIC	257	ABS	2	1	24VO	0	1	0.0347080230713	None	None	None	None	1
1.7	2015_Jul_31_1302	s	s	9	4	SIC	258	RC	0	2	23RD	0	1	0.223026037216	-26.0	-274.0	None	None	0
1.7	2015_Jul_31_1302	s	s	9	4	SIC	259	RC	1	1	23MO	0	1	0.434687852859	81.0	285.0	None	None	0
1.7	2015_Jul_31_1302	s	s	9	4	SIC	260	RC	2	1	23VO	0	1	0.276288032532	-240.0	-104.0	None	None	0
1.7	2015_Jul_31_1302	s	s	9	4	SIC	261	ABS	0	1	24RO	0	1	0.244670152664	None	None	None	None	1
1.7	2015_Jul_31_1302	s	s	9	4	SIC	262	ABS	1	0	24MC	0	1	0.267951011658	None	None	None	None	1
1.7	2015_Jul_31_1302	s	s	9	4	SIC	263	RC	1	2	23MD	0	1	0.408895015717	465.0	296.0	None	None	0
1.7	2015_Jul_31_1302	s	s	9	4	SIC	264	RC	0	1	23RO	0	1	0.258302927017	466.0	-138.0	None	None	0
1.7	2015_Jul_31_1302	s	s	9	4	SIC	265	ABS	0	2	24RD	0	1	1.24449300766	None	None	None	None	1
1.7	2015_Jul_31_1302	s	s	9	4	SIC	266	RC	2	0	23VC	1	0	0.606568098068	119.0	149.0	117	151	1
1.7	2015_Jul_31_1302	s	s	9	4	SIC	267	RC	1	0	23MC	1	0	0.952836036682	-237.0	400.0	-240	397	1
1.7	2015_Jul_31_1302	s	s	9	4	SIC	268	ABS	2	0	24VC	0	1	0.588344097137	None	None	None	None	1
1.7	2015_Jul_31_1302	s	s	9	4	SIC	269	ABS	2	2	24VD	0	1	0.458376169205	None	None	None	None	1
1.7	2015_Jul_31_1302	s	s	9	4	SIC	270	RC	2	2	23VD	1	0	0.540913105011	539.0	-22.0	537	-20	1
1.7	2015_Jul_31_1302	s	s	9	4	SIC	271	ABS	1	2	24MD	0	1	0.493801832199	None	None	None	None	1
1.7	2015_Jul_31_1302	s	s	9	4	SIC	272	ABS	1	1	24MO	0	1	0.509261131287	None	None	None	None	1
1.7	2015_Jul_31_1302	s	s	9	4	SIC	273	ABS	0	1	24RO	0	1	0.587730169296	None	None	None	None	1
1.7	2015_Jul_31_1302	s	s	9	4	SIC	274	ABS	2	0	24VC	0	1	0.384423017502	None	None	None	None	1
1.7	2015_Jul_31_1302	s	s	9	4	SIC	275	ABS	1	0	24MC	0	1	0.408360004425	None	None	None	None	1
1.7	2015_Jul_31_1302	s	s	9	4	SIC	276	ABS	1	2	24MD	0	1	0.281736135483	None	None	None	None	1
1.7	2015_Jul_31_1302	s	s	9	4	SIC	277	ABS	2	2	24VD	0	1	0.364130973816	None	None	None	None	1
1.7	2015_Jul_31_1302	s	s	9	4	SIC	278	RC	0	1	23RO	0	1	0.587953090668	5.0	36.0	None	None	0
1.7	2015_Jul_31_1302	s	s	9	4	SIC	279	ABS	1	1	24MO	0	1	0.573662996292	None	None	None	None	1
1.7	2015_Jul_31_1302	s	s	9	4	SIC	280	RC	1	0	23MC	0	1	0.634998083115	-158.0	213.0	None	None	0
1.7	2015_Jul_31_1302	s	s	9	4	SIC	281	RC	2	0	23VC	1	0	0.988047122955	487.0	-115.0	485	-117	1
1.7	2015_Jul_31_1302	s	s	9	4	SIC	282	RC	2	1	23VO	0	1	0.623208045959	-73.0	-372.0	None	None	0
1.7	2015_Jul_31_1302	s	s	9	4	SIC	283	ABS	0	2	24RD	0	1	4.20987296104	None	None	None	None	1
1.7	2015_Jul_31_1302	s	s	9	4	SIC	284	ABS	2	1	24VO	0	1	0.387724161148	None	None	None	None	1
1.7	2015_Jul_31_1302	s	s	9	4	SIC	285	RC	1	2	23MD	1	0	0.546411037445	-241.0	-364.0	-237	-371	1
1.7	2015_Jul_31_1302	s	s	9	4	SIC	286	RC	1	1	23MO	0	1	0.376076221466	538.0	281.0	None	None	0
1.7	2015_Jul_31_1302	s	s	9	4	SIC	287	RC	2	2	23VD	1	0	0.584674119949	191.0	197.0	194	196	1
1.7	2015_Jul_31_1302	s	s	9	4	SIC	288	RC	0	2	23RD	1	0	0.689058065414	84.0	-287.0	86	-283	1
1.7	2015_Jul_31_1302	s	s	9	4	SIC	289	ABS	0	2	24RD	0	1	0.270134925842	None	None	None	None	1
1.7	2015_Jul_31_1302	s	s	9	4	SIC	290	ABS	1	0	24MC	0	1	0.171196937561	None	None	None	None	1
1.7	2015_Jul_31_1302	s	s	9	4	SIC	291	RC	0	2	23RD	1	0	7.82694292068	405.0	193.0	400	197	1
1.7	2015_Jul_31_1302	s	s	9	4	SIC	292	ABS	0	1	24RO	0	1	0.705677032471	None	None	None	None	1
1.7	2015_Jul_31_1302	s	s	9	4	SIC	293	ABS	2	1	24VO	0	1	0.452944040298	None	None	None	None	1
1.7	2015_Jul_31_1302	s	s	9	4	SIC	294	ABS	2	0	24VC	0	1	0.509349107742	None	None	None	None	1
1.7	2015_Jul_31_1302	s	s	9	4	SIC	295	ABS	1	1	24MO	0	1	0.658632040024	None	None	None	None	1
1.7	2015_Jul_31_1302	s	s	9	4	SIC	296	RC	1	0	23MC	1	0	0.961661100388	-321.0	62.0	-320	60	1
1.7	2015_Jul_31_1302	s	s	9	4	SIC	297	RC	1	2	23MD	1	0	1.88262605667	312.0	-144.0	311	-152	1
1.7	2015_Jul_31_1302	s	s	9	4	SIC	298	ABS	2	2	24VD	0	1	0.594506025314	None	None	None	None	1
1.7	2015_Jul_31_1302	s	s	9	4	SIC	299	RC	1	1	23MO	0	1	0.528886079788	132.0	-86.0	None	None	0
1.7	2015_Jul_31_1302	s	s	9	4	SIC	300	ABS	1	2	24MD	0	1	0.5760679245	None	None	None	None	1
1.7	2015_Jul_31_1302	s	s	9	4	SIC	301	RC	2	2	23VD	1	0	0.776238918304	425.0	-141.0	422	-145	1
1.7	2015_Jul_31_1302	s	s	9	4	SIC	302	RC	0	1	23RO	0	1	0.384514093399	-477.0	223.0	None	None	0
1.7	2015_Jul_31_1302	s	s	9	4	SIC	303	RC	2	0	23VC	0	1	0.276131153107	473.0	336.0	None	None	0
1.7	2015_Jul_31_1302	s	s	9	4	SIC	304	RC	2	1	23VO	1	0	0.407288074493	-193.0	160.0	-199	161	1
1.7	2015_Jul_31_1302	s	s	9	4	SIC	305	RC	2	0	23VC	1	0	0.40623998642	-365.0	113.0	-361	103	1
1.7	2015_Jul_31_1302	s	s	9	4	SIC	306	RC	0	2	23RD	1	0	0.454235076904	65.0	117.0	56	116	1
1.7	2015_Jul_31_1302	s	s	9	4	SIC	307	ABS	2	1	24VO	0	1	0.705615997314	None	None	None	None	1
1.7	2015_Jul_31_1302	s	s	9	4	SIC	308	RC	1	2	23MD	1	0	0.582439899445	-496.0	175.0	-495	173	1
1.7	2015_Jul_31_1302	s	s	9	4	SIC	309	RC	0	1	23RO	1	0	1.61866807938	394.0	289.0	398	284	1
1.7	2015_Jul_31_1302	s	s	9	4	SIC	310	ABS	0	1	24RO	0	1	1.85909080505	None	None	None	None	1
1.7	2015_Jul_31_1302	s	s	9	4	SIC	311	ABS	1	0	24MC	0	1	2.12429308891	None	None	None	None	1
1.7	2015_Jul_31_1302	s	s	9	4	SIC	312	ABS	1	1	24MO	0	1	0.682009935379	None	None	None	None	1
1.7	2015_Jul_31_1302	s	s	9	4	SIC	313	ABS	2	2	24VD	0	1	0.670336008072	None	None	None	None	1
1.7	2015_Jul_31_1302	s	s	9	4	SIC	314	RC	1	0	23MC	1	0	0.940981149673	23.0	40.0	25	37	1
1.7	2015_Jul_31_1302	s	s	9	4	SIC	315	RC	1	1	23MO	0	1	1.47595310211	69.0	211.0	None	None	0
1.7	2015_Jul_31_1302	s	s	9	4	SIC	316	ABS	0	2	24RD	0	1	0.914285898209	None	None	None	None	1
1.7	2015_Jul_31_1302	s	s	9	4	SIC	317	ABS	2	0	24VC	0	1	1.43531703949	None	None	None	None	1
1.7	2015_Jul_31_1302	s	s	9	4	SIC	318	RC	2	1	23VO	1	0	0.75269818306	-498.0	-293.0	-491	-296	1
1.7	2015_Jul_31_1302	s	s	9	4	SIC	319	RC	2	2	23VD	1	0	0.500460147858	273.0	-376.0	270	-369	1
1.7	2015_Jul_31_1302	s	s	9	4	SIC	320	ABS	1	2	24MD	0	1	0.587832927704	None	None	None	None	1
1.7	2015_Jul_31_1302	s	s	9	4	SIC	321	RC	2	0	23VC	1	0	0.500910997391	-74.0	-107.0	-76	-107	1
1.7	2015_Jul_31_1302	s	s	9	4	SIC	322	ABS	0	2	24RD	0	1	0.818111181259	None	None	None	None	1
1.7	2015_Jul_31_1302	s	s	9	4	SIC	323	ABS	1	2	24MD	0	1	0.623252868652	None	None	None	None	1
1.7	2015_Jul_31_1302	s	s	9	4	SIC	324	RC	1	2	23MD	0	1	0.917464971542	-540.0	161.0	None	None	0
1.7	2015_Jul_31_1302	s	s	9	4	SIC	325	RC	1	1	23MO	0	1	0.52283000946	-504.0	-120.0	None	None	0
1.7	2015_Jul_31_1302	s	s	9	4	SIC	326	ABS	2	2	24VD	0	1	2.40050292015	None	None	None	None	1
1.7	2015_Jul_31_1302	s	s	9	4	SIC	327	RC	0	2	23RD	1	0	0.95897603035	-232.0	124.0	-229	119	1
1.7	2015_Jul_31_1302	s	s	9	4	SIC	328	ABS	1	1	24MO	0	1	0.891316890717	None	None	None	None	1
1.7	2015_Jul_31_1302	s	s	9	4	SIC	329	ABS	2	1	24VO	0	1	0.811715841293	None	None	None	None	1
1.7	2015_Jul_31_1302	s	s	9	4	SIC	330	ABS	1	0	24MC	0	1	0.576189994812	None	None	None	None	1
1.7	2015_Jul_31_1302	s	s	9	4	SIC	331	RC	1	0	23MC	0	1	0.735620975494	-138.0	230.0	None	None	0
1.7	2015_Jul_31_1302	s	s	9	4	SIC	332	RC	2	1	23VO	1	0	0.632602930069	344.0	88.0	340	84	1
1.7	2015_Jul_31_1302	s	s	9	4	SIC	333	RC	0	1	23RO	1	0	1.17641091347	71.0	-195.0	73	-208	1
1.7	2015_Jul_31_1302	s	s	9	4	SIC	334	ABS	2	0	24VC	0	1	0.654240846634	None	None	None	None	1
1.7	2015_Jul_31_1302	s	s	9	4	SIC	335	ABS	0	1	24RO	0	1	2.99497008324	None	None	None	None	1
1.7	2015_Jul_31_1302	s	s	9	4	SIC	336	RC	2	2	23VD	1	0	0.973773956299	-391.0	321.0	-399	320	1
1.7	2015_Jul_31_1302	s	s	9	4	SIC	337	RC	1	1	23MO	1	0	1.40007901192	70.0	-356.0	72	-362	1
1.7	2015_Jul_31_1302	s	s	9	4	SIC	338	RC	0	1	23RO	0	1	4.83720993996	-537.0	-34.0	None	None	0
1.7	2015_Jul_31_1302	s	s	9	4	SIC	339	RC	0	2	23RD	1	0	0.741363048553	-178.0	-383.0	-171	-382	1
1.7	2015_Jul_31_1302	s	s	9	4	SIC	340	ABS	2	0	24VC	0	1	0.635012149811	None	None	None	None	1
1.7	2015_Jul_31_1302	s	s	9	4	SIC	341	RC	2	1	23VO	0	1	0.55259513855	-331.0	-262.0	None	None	0
1.7	2015_Jul_31_1302	s	s	9	4	SIC	342	RC	1	0	23MC	0	1	6.62408685684	-481.0	-229.0	None	None	0
1.7	2015_Jul_31_1302	s	s	9	4	SIC	343	RC	1	2	23MD	1	0	11.8170819283	414.0	-181.0	418	-176	1
1.7	2015_Jul_31_1302	s	s	9	4	SIC	344	RC	2	2	23VD	1	0	0.538690090179	119.0	-362.0	128	-359	1
1.7	2015_Jul_31_1302	s	s	9	4	SIC	345	ABS	2	2	24VD	0	1	10.5998120308	None	None	None	None	1
1.7	2015_Jul_31_1302	s	s	9	4	SIC	346	ABS	0	2	24RD	0	1	3.39836001396	None	None	None	None	1
1.7	2015_Jul_31_1302	s	s	9	4	SIC	347	ABS	1	2	24MD	0	1	3.03675889969	None	None	None	None	1
1.7	2015_Jul_31_1302	s	s	9	4	SIC	348	ABS	1	1	24MO	0	1	1.89980697632	None	None	None	None	1
1.7	2015_Jul_31_1302	s	s	9	4	SIC	349	ABS	0	1	24RO	0	1	0.529093980789	None	None	None	None	1
1.7	2015_Jul_31_1302	s	s	9	4	SIC	350	ABS	1	0	24MC	0	1	0.74942111969	None	None	None	None	1
1.7	2015_Jul_31_1302	s	s	9	4	SIC	351	RC	2	0	23VC	1	0	0.688374042511	473.0	1.0	477	2	1
1.7	2015_Jul_31_1302	s	s	9	4	SIC	352	ABS	2	1	24VO	0	1	0.564356088638	None	None	None	None	1
1.7	2015_Jul_31_1302	s	s	9	4	SIC	353	RC	2	0	23VC	1	0	0.517309904099	-502.0	-83.0	-489	-74	1
1.7	2015_Jul_31_1302	s	s	9	4	SIC	354	RC	1	1	23MO	0	1	0.64218211174	388.0	-102.0	None	None	0
1.7	2015_Jul_31_1302	s	s	9	4	SIC	355	RC	1	2	23MD	1	0	0.497353076935	-425.0	-238.0	-427	-230	1
1.7	2015_Jul_31_1302	s	s	9	4	SIC	356	ABS	1	0	24MC	0	1	0.740827798843	None	None	None	None	1
1.7	2015_Jul_31_1302	s	s	9	4	SIC	357	ABS	1	1	24MO	0	1	5.52344083786	None	None	None	None	1
1.7	2015_Jul_31_1302	s	s	9	4	SIC	358	RC	0	2	23RD	1	0	0.665266990662	-72.0	-279.0	-66	-285	1
1.7	2015_Jul_31_1302	s	s	9	4	SIC	359	ABS	2	1	24VO	0	1	0.647233963013	None	None	None	None	1
1.7	2015_Jul_31_1302	s	s	9	4	SIC	360	ABS	1	2	24MD	0	1	0.740975141525	None	None	None	None	1
1.7	2015_Jul_31_1302	s	s	9	4	SIC	361	ABS	2	0	24VC	0	1	0.61149597168	None	None	None	None	1
1.7	2015_Jul_31_1302	s	s	9	4	SIC	362	RC	2	2	23VD	1	0	0.53281712532	-211.0	-257.0	-205	-254	1
1.7	2015_Jul_31_1302	s	s	9	4	SIC	363	ABS	0	1	24RO	0	1	0.795136928558	None	None	None	None	1
1.7	2015_Jul_31_1302	s	s	9	4	SIC	364	RC	2	1	23VO	1	0	0.714590072632	-418.0	-165.0	-423	-156	1
1.7	2015_Jul_31_1302	s	s	9	4	SIC	365	ABS	2	2	24VD	0	1	3.61025905609	None	None	None	None	1
1.7	2015_Jul_31_1302	s	s	9	4	SIC	366	RC	0	1	23RO	0	1	1.32535099983	-18.0	193.0	None	None	0
1.7	2015_Jul_31_1302	s	s	9	4	SIC	367	RC	1	0	23MC	0	1	1.09773993492	-284.0	203.0	None	None	0
1.7	2015_Jul_31_1302	s	s	9	4	SIC	368	ABS	0	2	24RD	0	1	0.403262138367	None	None	None	None	1
1.7	2015_Jul_31_1302	s	s	9	4	SIC	369	ABS	2	1	24VO	0	1	0.960916042328	None	None	None	None	1
1.7	2015_Jul_31_1302	s	s	9	4	SIC	370	ABS	1	0	24MC	0	1	0.455543041229	None	None	None	None	1
1.7	2015_Jul_31_1302	s	s	9	4	SIC	371	ABS	2	2	24VD	0	1	0.634928941727	None	None	None	None	1
1.7	2015_Jul_31_1302	s	s	9	4	SIC	372	ABS	1	2	24MD	0	1	0.835180997849	None	None	None	None	1
1.7	2015_Jul_31_1302	s	s	9	4	SIC	373	ABS	0	1	24RO	0	1	8.69554185867	None	None	None	None	1
1.7	2015_Jul_31_1302	s	s	9	4	SIC	374	ABS	0	2	24RD	0	1	0.505542993546	None	None	None	None	1
1.7	2015_Jul_31_1302	s	s	9	4	SIC	375	RC	1	2	23MD	1	0	0.473932981491	-194.0	74.0	-198	74	1
1.7	2015_Jul_31_1302	s	s	9	4	SIC	376	RC	0	1	23RO	0	1	0.470303058624	-306.0	-408.0	None	None	0
1.7	2015_Jul_31_1302	s	s	9	4	SIC	377	ABS	1	1	24MO	0	1	0.679584980011	None	None	None	None	1
1.7	2015_Jul_31_1302	s	s	9	4	SIC	378	ABS	2	0	24VC	0	1	0.617816209793	None	None	None	None	1
1.7	2015_Jul_31_1302	s	s	9	4	SIC	379	RC	2	1	23VO	1	0	0.470504999161	-2.0	393.0	1	380	1
1.7	2015_Jul_31_1302	s	s	9	4	SIC	380	RC	1	0	23MC	0	1	0.658573150635	518.0	-266.0	None	None	0
1.7	2015_Jul_31_1302	s	s	9	4	SIC	381	RC	2	0	23VC	1	0	0.536411046982	281.0	390.0	282	393	1
1.7	2015_Jul_31_1302	s	s	9	4	SIC	382	RC	1	1	23MO	0	1	0.479737043381	65.0	-327.0	None	None	0
1.7	2015_Jul_31_1302	s	s	9	4	SIC	383	RC	0	2	23RD	1	0	0.517326831818	-153.0	51.0	-166	59	1
1.7	2015_Jul_31_1302	s	s	9	4	SIC	384	RC	2	2	23VD	1	0	0.500105857849	215.0	313.0	218	307	1
1.7	2015_Jul_31_1302	s	s	9	4	SIC	385	RC	2	1	23VO	1	0	0.502897024155	-258.0	-348.0	-256	-357	1
1.7	2015_Jul_31_1302	s	s	9	4	SIC	386	ABS	2	2	24VD	0	1	0.658517122269	None	None	None	None	1
1.7	2015_Jul_31_1302	s	s	9	4	SIC	387	ABS	0	2	24RD	0	1	0.675847053528	None	None	None	None	1
1.7	2015_Jul_31_1302	s	s	9	4	SIC	388	RC	0	2	23RD	1	0	0.524103879929	-495.0	-382.0	-493	-381	1
1.7	2015_Jul_31_1302	s	s	9	4	SIC	389	ABS	1	1	24MO	0	1	0.957452058792	None	None	None	None	1
1.7	2015_Jul_31_1302	s	s	9	4	SIC	390	ABS	0	1	24RO	0	1	1.20457386971	None	None	None	None	1
1.7	2015_Jul_31_1302	s	s	9	4	SIC	391	RC	2	0	23VC	1	0	0.740828990936	111.0	-261.0	119	-262	1
1.7	2015_Jul_31_1302	s	s	9	4	SIC	392	ABS	2	0	24VC	0	1	0.254822015762	None	None	None	None	1
1.7	2015_Jul_31_1302	s	s	9	4	SIC	393	RC	2	2	23VD	1	0	1.22353196144	-522.0	-77.0	-512	-76	1
1.7	2015_Jul_31_1302	s	s	9	4	SIC	394	RC	0	1	23RO	0	1	0.559099912643	489.0	-6.0	None	None	0
1.7	2015_Jul_31_1302	s	s	9	4	SIC	395	ABS	1	2	24MD	0	1	0.846911907196	None	None	None	None	1
1.7	2015_Jul_31_1302	s	s	9	4	SIC	396	ABS	2	1	24VO	0	1	0.405805110931	None	None	None	None	1
1.7	2015_Jul_31_1302	s	s	9	4	SIC	397	RC	1	1	23MO	0	1	0.652240037918	-129.0	196.0	None	None	0
1.7	2015_Jul_31_1302	s	s	9	4	SIC	398	RC	1	0	23MC	0	1	0.11749792099	-173.0	317.0	None	None	0
1.7	2015_Jul_31_1302	s	s	9	4	SIC	399	RC	1	2	23MD	0	1	0.28995513916	-104.0	75.0	None	None	0
1.7	2015_Jul_31_1302	s	s	9	4	SIC	400	ABS	1	0	24MC	0	1	0.167913198471	None	None	None	None	1
1.7	2015_Jul_31_1302	s	s	9	4	SIC	401	ABS	2	0	24VC	0	1	0.206511974335	None	None	None	None	1
1.7	2015_Jul_31_1302	s	s	9	4	SIC	402	RC	2	1	23VO	0	1	0.693794965744	-469.0	-337.0	None	None	0
1.7	2015_Jul_31_1302	s	s	9	4	SIC	403	RC	2	0	23VC	0	1	0.665246963501	-263.0	58.0	None	None	0
1.7	2015_Jul_31_1302	s	s	9	4	SIC	404	ABS	2	2	24VD	0	1	0.717340946198	None	None	None	None	1
1.7	2015_Jul_31_1302	s	s	9	4	SIC	405	RC	2	2	23VD	0	1	3.2337679863	133.0	-240.0	None	None	0
1.7	2015_Jul_31_1302	s	s	9	4	SIC	406	ABS	1	2	24MD	0	1	1.20568919182	None	None	None	None	1
1.7	2015_Jul_31_1302	s	s	9	4	SIC	407	RC	0	1	23RO	0	1	0.43487906456	-186.0	354.0	None	None	0
1.7	2015_Jul_31_1302	s	s	9	4	SIC	408	RC	0	2	23RD	0	1	0.357868909836	532.0	94.0	None	None	0
1.7	2015_Jul_31_1302	s	s	9	4	SIC	409	RC	1	1	23MO	0	1	0.405254125595	363.0	202.0	None	None	0
1.7	2015_Jul_31_1302	s	s	9	4	SIC	410	ABS	1	0	24MC	0	1	0.54730796814	None	None	None	None	1
1.7	2015_Jul_31_1302	s	s	9	4	SIC	411	ABS	0	2	24RD	0	1	4.06921696663	None	None	None	None	1
1.7	2015_Jul_31_1302	s	s	9	4	SIC	412	RC	1	0	23MC	0	1	0.576164007187	-330.0	-353.0	None	None	0
1.7	2015_Jul_31_1302	s	s	9	4	SIC	413	ABS	2	1	24VO	0	1	2.93920707703	None	None	None	None	1
1.7	2015_Jul_31_1302	s	s	9	4	SIC	414	ABS	0	1	24RO	0	1	3.92824888229	None	None	None	None	1
1.7	2015_Jul_31_1302	s	s	9	4	SIC	415	ABS	1	1	24MO	0	1	2.30638098717	None	None	None	None	1
1.7	2015_Jul_31_1302	s	s	9	4	SIC	416	RC	1	2	23MD	1	0	3.6199901104	-8.0	234.0	-14	231	1
1.7	2015_Jul_31_1302	s	s	9	4	SIC	417	ABS	1	2	24MD	0	1	0.373615980148	None	None	None	None	1
1.7	2015_Jul_31_1302	s	s	9	4	SIC	418	ABS	2	1	24VO	0	1	1.94142317772	None	None	None	None	1
1.7	2015_Jul_31_1302	s	s	9	4	SIC	419	RC	2	0	23VC	1	0	0.540855169296	-340.0	113.0	-345	118	1
1.7	2015_Jul_31_1302	s	s	9	4	SIC	420	RC	2	1	23VO	1	0	0.481965065002	119.0	182.0	127	179	1
1.7	2015_Jul_31_1302	s	s	9	4	SIC	421	RC	1	1	23MO	0	1	2.04502296448	-461.0	356.0	None	None	0
1.7	2015_Jul_31_1302	s	s	9	4	SIC	422	ABS	0	2	24RD	0	1	0.576009988785	None	None	None	None	1
1.7	2015_Jul_31_1302	s	s	9	4	SIC	423	RC	0	2	23RD	1	0	0.628804922104	7.0	403.0	5	401	1
1.7	2015_Jul_31_1302	s	s	9	4	SIC	424	ABS	2	0	24VC	0	1	0.752684831619	None	None	None	None	1
1.7	2015_Jul_31_1302	s	s	9	4	SIC	425	ABS	1	1	24MO	0	1	0.682075023651	None	None	None	None	1
1.7	2015_Jul_31_1302	s	s	9	4	SIC	426	RC	1	2	23MD	1	0	0.458480834961	-91.0	253.0	-94	245	1
1.7	2015_Jul_31_1302	s	s	9	4	SIC	427	RC	1	0	23MC	1	0	1.03244400024	-427.0	349.0	-422	342	1
1.7	2015_Jul_31_1302	s	s	9	4	SIC	428	ABS	1	0	24MC	0	1	0.740960121155	None	None	None	None	1
1.7	2015_Jul_31_1302	s	s	9	4	SIC	429	ABS	2	2	24VD	0	1	0.70295214653	None	None	None	None	1
1.7	2015_Jul_31_1302	s	s	9	4	SIC	430	RC	0	1	23RO	0	1	0.682108163834	189.0	393.0	None	None	0
1.7	2015_Jul_31_1302	s	s	9	4	SIC	431	RC	2	2	23VD	1	0	0.620133876801	437.0	-330.0	438	-329	1
1.7	2015_Jul_31_1302	s	s	9	4	SIC	432	ABS	0	1	24RO	0	1	2.24220585823	None	None	None	None	1
1.7	2015_Jul_31_1302	s	s	9	4	SIC	433	RC	1	2	23MD	1	0	0.57351899147	-1.0	-372.0	4	-365	1
1.7	2015_Jul_31_1302	s	s	9	4	SIC	434	RC	0	2	23RD	1	0	0.481990098953	-403.0	-265.0	-395	-257	1
1.7	2015_Jul_31_1302	s	s	9	4	SIC	435	ABS	1	2	24MD	0	1	0.511662960052	None	None	None	None	1
1.7	2015_Jul_31_1302	s	s	9	4	SIC	436	RC	2	2	23VD	1	0	0.534271001816	-383.0	-302.0	-385	-298	1
1.7	2015_Jul_31_1302	s	s	9	4	SIC	437	RC	2	0	23VC	1	0	0.444282054901	377.0	-61.0	383	-60	1
1.7	2015_Jul_31_1302	s	s	9	4	SIC	438	ABS	0	2	24RD	0	1	0.611467838287	None	None	None	None	1
1.7	2015_Jul_31_1302	s	s	9	4	SIC	439	RC	1	0	23MC	1	0	0.973695993423	241.0	335.0	241	330	1
1.7	2015_Jul_31_1302	s	s	9	4	SIC	440	RC	1	1	23MO	0	1	4.27205514908	-424.0	388.0	None	None	0
1.7	2015_Jul_31_1302	s	s	9	4	SIC	441	RC	0	1	23RO	0	1	3.16568589211	-46.0	73.0	None	None	0
1.7	2015_Jul_31_1302	s	s	9	4	SIC	442	ABS	1	1	24MO	0	1	0.524469137192	None	None	None	None	1
1.7	2015_Jul_31_1302	s	s	9	4	SIC	443	ABS	2	2	24VD	0	1	8.07908701897	None	None	None	None	1
1.7	2015_Jul_31_1302	s	s	9	4	SIC	444	ABS	0	1	24RO	0	1	3.68360495567	None	None	None	None	1
1.7	2015_Jul_31_1302	s	s	9	4	SIC	445	ABS	2	1	24VO	0	1	0.611464977264	None	None	None	None	1
1.7	2015_Jul_31_1302	s	s	9	4	SIC	446	ABS	2	0	24VC	0	1	0.901483058929	None	None	None	None	1
1.7	2015_Jul_31_1302	s	s	9	4	SIC	447	RC	2	1	23VO	1	0	0.717306137085	-448.0	-119.0	-452	-132	1
1.7	2015_Jul_31_1302	s	s	9	4	SIC	448	ABS	1	0	24MC	0	1	0.44663310051	None	None	None	None	1
1.7	2015_Jul_31_1302	s	s	9	4	SIC	449	RC	2	1	23VO	0	1	0.477248907089	126.0	215.0	None	None	0
1.7	2015_Jul_31_1302	s	s	9	4	SIC	450	ABS	1	0	24MC	0	1	0.422976970673	None	None	None	None	1
1.7	2015_Jul_31_1302	s	s	9	4	SIC	451	ABS	1	2	24MD	0	1	0.375924110413	None	None	None	None	1
1.7	2015_Jul_31_1302	s	s	9	4	SIC	452	RC	1	0	23MC	0	1	0.347282171249	-518.0	331.0	None	None	0
1.7	2015_Jul_31_1302	s	s	9	4	SIC	453	RC	2	0	23VC	0	1	0.173413038254	292.0	-35.0	None	None	0
1.7	2015_Jul_31_1302	s	s	9	4	SIC	454	ABS	2	2	24VD	0	1	0.26500916481	None	None	None	None	1
1.7	2015_Jul_31_1302	s	s	9	4	SIC	455	ABS	1	1	24MO	0	1	1.18263196945	None	None	None	None	1
1.7	2015_Jul_31_1302	s	s	9	4	SIC	456	RC	1	2	23MD	1	0	1.77436590195	529.0	-43.0	532	-46	1
1.7	2015_Jul_31_1302	s	s	9	4	SIC	457	ABS	0	1	24RO	0	1	0.288888931274	None	None	None	None	1
1.7	2015_Jul_31_1302	s	s	9	4	SIC	458	RC	2	2	23VD	0	1	0.253710985184	-520.0	-135.0	None	None	0
1.7	2015_Jul_31_1302	s	s	9	4	SIC	459	RC	0	2	23RD	0	1	0.644237041473	-396.0	-74.0	None	None	0
1.7	2015_Jul_31_1302	s	s	9	4	SIC	460	ABS	0	2	24RD	0	1	0.479724884033	None	None	None	None	1
1.7	2015_Jul_31_1302	s	s	9	4	SIC	461	ABS	2	1	24VO	0	1	0.835082054138	None	None	None	None	1
1.7	2015_Jul_31_1302	s	s	9	4	SIC	462	RC	0	1	23RO	0	1	0.46794295311	-315.0	-162.0	None	None	0
1.7	2015_Jul_31_1302	s	s	9	4	SIC	463	RC	1	1	23MO	0	1	2.06521105766	-425.0	288.0	None	None	0
1.7	2015_Jul_31_1302	s	s	9	4	SIC	464	ABS	2	0	24VC	0	1	1.03529906273	None	None	None	None	1
1.7	2015_Jul_31_1302	s	s	9	4	SIC	465	RC	1	0	23MC	0	1	3.03407907486	205.0	389.0	None	None	0
1.7	2015_Jul_31_1302	s	s	9	4	SIC	466	ABS	2	0	24VC	0	1	1.10010194778	None	None	None	None	1
1.7	2015_Jul_31_1302	s	s	9	4	SIC	467	RC	0	1	23RO	0	1	0.317201137543	-460.0	-35.0	None	None	0
1.7	2015_Jul_31_1302	s	s	9	4	SIC	468	RC	2	0	23VC	0	1	0.829121112823	396.0	316.0	None	None	0
1.7	2015_Jul_31_1302	s	s	9	4	SIC	469	ABS	1	1	24MO	0	1	0.641980171204	None	None	None	None	1
1.7	2015_Jul_31_1302	s	s	9	4	SIC	470	ABS	0	2	24RD	0	1	3.08905410767	None	None	None	None	1
1.7	2015_Jul_31_1302	s	s	9	4	SIC	471	ABS	0	1	24RO	0	1	2.64771103859	None	None	None	None	1
1.7	2015_Jul_31_1302	s	s	9	4	SIC	472	ABS	1	0	24MC	0	1	0.361695051193	None	None	None	None	1
1.7	2015_Jul_31_1302	s	s	9	4	SIC	473	RC	1	1	23MO	0	1	1.24169301987	394.0	388.0	None	None	0
1.7	2015_Jul_31_1302	s	s	9	4	SIC	474	RC	2	1	23VO	0	1	0.882277011871	88.0	269.0	None	None	0
1.7	2015_Jul_31_1302	s	s	9	4	SIC	475	ABS	1	2	24MD	0	1	2.05351805687	None	None	None	None	1
1.7	2015_Jul_31_1302	s	s	9	4	SIC	476	RC	0	2	23RD	1	0	1.5015809536	-518.0	-387.0	-526	-386	1
1.7	2015_Jul_31_1302	s	s	9	4	SIC	477	RC	2	2	23VD	0	1	0.194267988205	10.0	298.0	None	None	0
1.7	2015_Jul_31_1302	s	s	9	4	SIC	478	ABS	2	1	24VO	0	1	1.27763009071	None	None	None	None	1
1.7	2015_Jul_31_1302	s	s	9	4	SIC	479	ABS	2	2	24VD	0	1	6.02157616615	None	None	None	None	1
1.7	2015_Jul_31_1302	s	s	9	4	SIC	480	RC	1	2	23MD	0	1	0.576184034348	373.0	301.0	None	None	0
1.7	2015_Jul_31_1302	s	s	9	4	SIC	481	RC	1	0	23MC	0	1	0.218113899231	-163.0	347.0	None	None	0
1.7	2015_Jul_31_1302	s	s	9	4	SIC	482	ABS	0	2	24RD	0	1	1.68270301819	None	None	None	None	1
1.7	2015_Jul_31_1302	s	s	9	4	SIC	483	RC	1	1	23MO	0	1	4.57819104195	-526.0	-392.0	None	None	0
1.7	2015_Jul_31_1302	s	s	9	4	SIC	484	RC	2	1	23VO	0	1	0.865385055542	-92.0	-44.0	None	None	0
1.7	2015_Jul_31_1302	s	s	9	4	SIC	485	RC	0	1	23RO	0	1	0.0422430038452	-41.0	-227.0	None	None	0
1.7	2015_Jul_31_1302	s	s	9	4	SIC	486	RC	1	2	23MD	0	1	0.258389949799	127.0	-81.0	None	None	0
1.7	2015_Jul_31_1302	s	s	9	4	SIC	487	ABS	1	0	24MC	0	1	0.12881398201	None	None	None	None	1
1.7	2015_Jul_31_1302	s	s	9	4	SIC	488	RC	2	2	23VD	0	1	1.46685910225	259.0	-240.0	None	None	0
1.7	2015_Jul_31_1302	s	s	9	4	SIC	489	ABS	1	2	24MD	0	1	0.514066934586	None	None	None	None	1
1.7	2015_Jul_31_1302	s	s	9	4	SIC	490	ABS	2	2	24VD	0	1	0.529471158981	None	None	None	None	1
1.7	2015_Jul_31_1302	s	s	9	4	SIC	491	ABS	1	1	24MO	0	1	0.659018039703	None	None	None	None	1
1.7	2015_Jul_31_1302	s	s	9	4	SIC	492	ABS	2	0	24VC	0	1	0.805217027664	None	None	None	None	1
1.7	2015_Jul_31_1302	s	s	9	4	SIC	493	ABS	0	1	24RO	0	1	0.587718963623	None	None	None	None	1
1.7	2015_Jul_31_1302	s	s	9	4	SIC	494	ABS	2	1	24VO	0	1	0.499795913696	None	None	None	None	1
1.7	2015_Jul_31_1302	s	s	9	4	SIC	495	RC	0	2	23RD	0	1	1.5034160614	-540.0	-358.0	None	None	0
1.7	2015_Jul_31_1302	s	s	9	4	SIC	496	RC	2	0	23VC	0	1	0.891296863556	332.0	74.0	None	None	0
1.7	2015_Jul_31_1302	s	s	9	4	SIC	497	RC	2	1	23VO	1	0	2.78436613083	279.0	218.0	269	220	1
1.7	2015_Jul_31_1302	s	s	9	4	SIC	498	ABS	0	2	24RD	0	1	0.223153114319	None	None	None	None	1
1.7	2015_Jul_31_1302	s	s	9	4	SIC	499	ABS	1	1	24MO	0	1	1.72688794136	None	None	None	None	1
1.7	2015_Jul_31_1302	s	s	9	4	SIC	500	ABS	2	0	24VC	0	1	2.31573200226	None	None	None	None	1
1.7	2015_Jul_31_1302	s	s	9	4	SIC	501	ABS	1	2	24MD	0	1	0.100036859512	None	None	None	None	1
1.7	2015_Jul_31_1302	s	s	9	4	SIC	502	RC	0	2	23RD	0	1	1.21169686317	488.0	208.0	None	None	0
1.7	2015_Jul_31_1302	s	s	9	4	SIC	503	RC	0	1	23RO	0	1	1.74778389931	-158.0	275.0	None	None	0
1.7	2015_Jul_31_1302	s	s	9	4	SIC	504	RC	1	1	23MO	0	1	7.56205201149	169.0	-99.0	None	None	0
1.7	2015_Jul_31_1302	s	s	9	4	SIC	505	ABS	2	2	24VD	0	1	0.32089304924	None	None	None	None	1
1.7	2015_Jul_31_1302	s	s	9	4	SIC	506	RC	1	0	23MC	0	1	1.55902004242	435.0	13.0	None	None	0
1.7	2015_Jul_31_1302	s	s	9	4	SIC	507	ABS	1	0	24MC	0	1	0.540879011154	None	None	None	None	1
1.7	2015_Jul_31_1302	s	s	9	4	SIC	508	RC	2	2	23VD	0	1	0.544417142868	-490.0	77.0	None	None	0
1.7	2015_Jul_31_1302	s	s	9	4	SIC	509	ABS	2	1	24VO	0	1	0.513126850128	None	None	None	None	1
1.7	2015_Jul_31_1302	s	s	9	4	SIC	510	RC	2	0	23VC	0	1	1.95952606201	234.0	15.0	None	None	0
1.7	2015_Jul_31_1302	s	s	9	4	SIC	511	ABS	0	1	24RO	0	1	0.532811880112	None	None	None	None	1
1.7	2015_Jul_31_1302	s	s	9	4	SIC	512	RC	1	2	23MD	0	1	0.726727962494	236.0	-159.0	None	None	0
1.7	2015_Jul_31_1302	s	s	9	4	SIC	513	RC	1	0	23MC	0	1	1.88274693489	-508.0	-236.0	None	None	0
1.7	2015_Jul_31_1302	s	s	9	4	SIC	514	RC	0	1	23RO	0	1	1.92596912384	-501.0	36.0	None	None	0
1.7	2015_Jul_31_1302	s	s	9	4	SIC	515	ABS	1	0	24MC	0	1	0.794111967087	None	None	None	None	1
1.7	2015_Jul_31_1302	s	s	9	4	SIC	516	ABS	2	1	24VO	0	1	1.98511385918	None	None	None	None	1
1.7	2015_Jul_31_1302	s	s	9	4	SIC	517	ABS	0	2	24RD	0	1	1.35975503922	None	None	None	None	1
1.7	2015_Jul_31_1302	s	s	9	4	SIC	518	ABS	2	2	24VD	0	1	2.25480294228	None	None	None	None	1
1.7	2015_Jul_31_1302	s	s	9	4	SIC	519	ABS	1	1	24MO	0	1	1.20926403999	None	None	None	None	1
1.7	2015_Jul_31_1302	s	s	9	4	SIC	520	RC	2	2	23VD	0	1	1.57717704773	123.0	-39.0	None	None	0
1.7	2015_Jul_31_1302	s	s	9	4	SIC	521	RC	0	2	23RD	0	1	2.15077400208	-104.0	-34.0	None	None	0
1.7	2015_Jul_31_1302	s	s	9	4	SIC	522	RC	2	1	23VO	0	1	1.07768893242	-472.0	181.0	None	None	0
1.7	2015_Jul_31_1302	s	s	9	4	SIC	523	ABS	1	2	24MD	0	1	1.06851315498	None	None	None	None	1
1.7	2015_Jul_31_1302	s	s	9	4	SIC	524	RC	1	1	23MO	0	1	1.41223192215	277.0	91.0	None	None	0
1.7	2015_Jul_31_1302	s	s	9	4	SIC	525	RC	1	2	23MD	0	1	0.301800966263	-177.0	254.0	None	None	0
1.7	2015_Jul_31_1302	s	s	9	4	SIC	526	ABS	2	0	24VC	0	1	0.489530801773	None	None	None	None	1
1.7	2015_Jul_31_1302	s	s	9	4	SIC	527	ABS	0	1	24RO	0	1	0.305392980576	None	None	None	None	1
1.7	2015_Jul_31_1302	s	s	9	4	SIC	528	RC	2	0	23VC	0	1	0.547472000122	-242.0	-247.0	None	None	0
1.7	2015_Jul_31_1302	s	s	9	4	SIC	529	ABS	1	0	24MC	0	1	0.376050949097	None	None	None	None	1
1.7	2015_Jul_31_1302	s	s	9	4	SIC	530	ABS	2	1	24VO	0	1	2.01200699806	None	None	None	None	1
1.7	2015_Jul_31_1302	s	s	9	4	SIC	531	RC	0	1	23RO	0	1	8.28042912483	-413.0	-182.0	None	None	0
1.7	2015_Jul_31_1302	s	s	9	4	SIC	532	RC	1	1	23MO	0	1	0.560854196548	114.0	-396.0	None	None	0
1.7	2015_Jul_31_1302	s	s	9	4	SIC	533	RC	2	2	23VD	0	1	0.976345062256	163.0	-6.0	None	None	0
1.7	2015_Jul_31_1302	s	s	9	4	SIC	534	RC	0	2	23RD	0	1	0.266602039337	230.0	-319.0	None	None	0
1.7	2015_Jul_31_1302	s	s	9	4	SIC	535	RC	2	1	23VO	0	1	0.658962011337	538.0	127.0	None	None	0
1.7	2015_Jul_31_1302	s	s	9	4	SIC	536	ABS	1	2	24MD	0	1	0.455384969711	None	None	None	None	1
1.7	2015_Jul_31_1302	s	s	9	4	SIC	537	ABS	2	2	24VD	0	1	0.123776912689	None	None	None	None	1
1.7	2015_Jul_31_1302	s	s	9	4	SIC	538	RC	1	0	23MC	0	1	1.27047109604	402.0	400.0	None	None	0
1.7	2015_Jul_31_1302	s	s	9	4	SIC	539	RC	2	0	23VC	0	1	0.173746824265	432.0	-279.0	None	None	0
1.7	2015_Jul_31_1302	s	s	9	4	SIC	540	ABS	0	1	24RO	0	1	1.14114403725	None	None	None	None	1
1.7	2015_Jul_31_1302	s	s	9	4	SIC	541	ABS	2	0	24VC	0	1	1.25374698639	None	None	None	None	1
1.7	2015_Jul_31_1302	s	s	9	4	SIC	542	ABS	0	2	24RD	0	1	0.95937204361	None	None	None	None	1
1.7	2015_Jul_31_1302	s	s	9	4	SIC	543	ABS	1	1	24MO	0	1	0.585410118103	None	None	None	None	1
1.7	2015_Jul_31_1302	s	s	9	4	SIC	544	RC	1	2	23MD	0	1	1.36136102676	-452.0	-112.0	None	None	0
1.7	2015_Jul_31_1302	s	s	9	4	SIC	545	RC	2	1	23VO	0	1	0.759761095047	-320.0	-215.0	None	None	0
1.7	2015_Jul_31_1302	s	s	9	4	SIC	546	RC	2	0	23VC	0	1	0.164136886597	123.0	-148.0	None	None	0
1.7	2015_Jul_31_1302	s	s	9	4	SIC	547	ABS	1	2	24MD	0	1	0.964518070221	None	None	None	None	1
1.7	2015_Jul_31_1302	s	s	9	4	SIC	548	ABS	2	2	24VD	0	1	1.60879087448	None	None	None	None	1
1.7	2015_Jul_31_1302	s	s	9	4	SIC	549	ABS	2	0	24VC	0	1	0.359757900238	None	None	None	None	1
1.7	2015_Jul_31_1302	s	s	9	4	SIC	550	RC	0	1	23RO	0	1	0.246605157852	396.0	175.0	None	None	0
1.7	2015_Jul_31_1302	s	s	9	4	SIC	551	RC	1	1	23MO	0	1	0.854064941406	437.0	-194.0	None	None	0
1.7	2015_Jul_31_1302	s	s	9	4	SIC	552	ABS	2	1	24VO	0	1	0.11714720726	None	None	None	None	1
1.7	2015_Jul_31_1302	s	s	9	4	SIC	553	RC	0	2	23RD	0	1	0.525824069977	373.0	366.0	None	None	0
1.7	2015_Jul_31_1302	s	s	9	4	SIC	554	ABS	0	2	24RD	0	1	0.559293985367	None	None	None	None	1
1.7	2015_Jul_31_1302	s	s	9	4	SIC	555	ABS	0	1	24RO	0	1	0.903473854065	None	None	None	None	1
1.7	2015_Jul_31_1302	s	s	9	4	SIC	556	ABS	1	0	24MC	1	0	0.383123874664	None	None	12	29	0
1.7	2015_Jul_31_1302	s	s	9	4	SIC	557	RC	2	2	23VD	0	1	0.208770990372	333.0	298.0	None	None	0
1.7	2015_Jul_31_1302	s	s	9	4	SIC	558	RC	1	0	23MC	0	1	0.913142204285	336.0	49.0	None	None	0
1.7	2015_Jul_31_1302	s	s	9	4	SIC	559	ABS	1	1	24MO	0	1	0.723122119904	None	None	None	None	1
1.7	2015_Jul_31_1302	s	s	9	4	SIC	560	RC	1	2	23MD	0	1	0.540838956833	-339.0	297.0	None	None	0
1.7	2015_Jul_31_1302	s	s	9	4	SIC	561	RC	2	1	23VO	0	1	1.63248705864	156.0	-320.0	None	None	0
1.7	2015_Jul_31_1302	s	s	9	4	SIC	562	ABS	1	1	24MO	0	1	1.19763612747	None	None	None	None	1
1.7	2015_Jul_31_1302	s	s	9	4	SIC	563	RC	1	2	23MD	0	1	0.140651226044	-416.0	-381.0	None	None	0
1.7	2015_Jul_31_1302	s	s	9	4	SIC	564	RC	2	0	23VC	0	1	0.924484968185	-237.0	165.0	None	None	0
1.7	2015_Jul_31_1302	s	s	9	4	SIC	565	RC	1	1	23MO	0	1	0.258795022964	103.0	316.0	None	None	0
1.7	2015_Jul_31_1302	s	s	9	4	SIC	566	ABS	0	2	24RD	0	1	0.347377061844	None	None	None	None	1
1.7	2015_Jul_31_1302	s	s	9	4	SIC	567	ABS	1	2	24MD	0	1	0.313007831573	None	None	None	None	1
1.7	2015_Jul_31_1302	s	s	9	4	SIC	568	RC	0	2	23RD	0	1	0.585282802582	425.0	-37.0	None	None	0
1.7	2015_Jul_31_1302	s	s	9	4	SIC	569	ABS	2	1	24VO	0	1	0.528994083405	None	None	None	None	1
1.7	2015_Jul_31_1302	s	s	9	4	SIC	570	RC	1	0	23MC	0	1	1.10582995415	174.0	-249.0	None	None	0
1.7	2015_Jul_31_1302	s	s	9	4	SIC	571	RC	0	1	23RO	0	1	0.658396959305	265.0	-156.0	None	None	0
1.7	2015_Jul_31_1302	s	s	9	4	SIC	572	ABS	2	0	24VC	0	1	0.773065090179	None	None	None	None	1
1.7	2015_Jul_31_1302	s	s	9	4	SIC	573	RC	2	2	23VD	0	1	0.288890838623	258.0	-238.0	None	None	0
1.7	2015_Jul_31_1302	s	s	9	4	SIC	574	ABS	0	1	24RO	0	1	0.305809020996	None	None	None	None	1
1.7	2015_Jul_31_1302	s	s	9	4	SIC	575	ABS	1	0	24MC	0	1	0.529423952103	None	None	None	None	1
1.7	2015_Jul_31_1302	s	s	9	4	SIC	576	ABS	2	2	24VD	0	1	0.164100885391	None	None	None	None	1
1.7	2015_Jul_31_1302	s	s	9	4	SIC	577	ABS	0	2	24RD	0	1	0.270174980164	None	None	None	None	1
1.7	2015_Jul_31_1302	s	s	9	4	SIC	578	RC	2	1	23VO	0	1	0.269999027252	-116.0	147.0	None	None	0
1.7	2015_Jul_31_1302	s	s	9	4	SIC	579	RC	1	2	23MD	0	1	0.199486017227	53.0	-150.0	None	None	0
1.7	2015_Jul_31_1302	s	s	9	4	SIC	580	ABS	1	1	24MO	0	1	0.658528089523	None	None	None	None	1
1.7	2015_Jul_31_1302	s	s	9	4	SIC	581	ABS	2	1	24VO	0	1	0.234767913818	None	None	None	None	1
1.7	2015_Jul_31_1302	s	s	9	4	SIC	582	ABS	1	2	24MD	0	1	0.582980155945	None	None	None	None	1
1.7	2015_Jul_31_1302	s	s	9	4	SIC	583	RC	0	1	23RO	0	1	0.63512802124	212.0	-348.0	None	None	0
1.7	2015_Jul_31_1302	s	s	9	4	SIC	584	ABS	1	0	24MC	0	1	0.406413078308	None	None	None	None	1
1.7	2015_Jul_31_1302	s	s	9	4	SIC	585	RC	0	2	23RD	0	1	2.90244889259	-95.0	-115.0	None	None	0
1.7	2015_Jul_31_1302	s	s	9	4	SIC	586	RC	1	1	23MO	0	1	1.40889382362	-219.0	-57.0	None	None	0
1.7	2015_Jul_31_1302	s	s	9	4	SIC	587	RC	2	2	23VD	0	1	1.29413604736	-336.0	75.0	None	None	0
1.7	2015_Jul_31_1302	s	s	9	4	SIC	588	ABS	0	1	24RO	0	1	0.985600948334	None	None	None	None	1
1.7	2015_Jul_31_1302	s	s	9	4	SIC	589	RC	1	0	23MC	0	1	1.67676615715	495.0	-271.0	None	None	0
1.7	2015_Jul_31_1302	s	s	9	4	SIC	590	ABS	2	0	24VC	0	1	0.281896829605	None	None	None	None	1
1.7	2015_Jul_31_1302	s	s	9	4	SIC	591	RC	2	0	23VC	0	1	1.83558702469	149.0	-19.0	None	None	0
1.7	2015_Jul_31_1302	s	s	9	4	SIC	592	ABS	2	2	24VD	0	1	1.63578701019	None	None	None	None	1
