Version	Date	Stimuli	Method	Subject	Session	Condition	Trial	Target	Channel1	Channel2	Distractors	LMouseButton	RMouseButton	RT	TargetX	TargetY	ResponseX	ResponseY	Correct
1.7	2015_Jul_30_1306	s	s	9	3	Capacity	1	ABS	0	1	24RO	0	0	-1	None	None	None	None	-1
1.7	2015_Jul_30_1306	s	s	9	3	Capacity	2	RC	0	2	23RD	1	0	1.91537904739	-273.0	-174.0	-267	-174	1
1.7	2015_Jul_30_1306	s	s	9	3	Capacity	3	ABS	0	2	24RD	0	1	2.0070810318	None	None	None	None	1
1.7	2015_Jul_30_1306	s	s	9	3	Capacity	4	RC	0	1	23RO	1	0	1.14113807678	-283.0	187.0	-280	186	1
1.7	2015_Jul_30_1306	s	s	9	3	Capacity	5	ABS	0	2	24RD	0	1	2.78375482559	None	None	None	None	1
1.7	2015_Jul_30_1306	s	s	9	3	Capacity	6	RC	0	2	23RD	1	0	0.587847948074	386.0	-56.0	379	-56	1
1.7	2015_Jul_30_1306	s	s	9	3	Capacity	7	RC	0	1	23RO	1	0	4.60159397125	70.0	372.0	71	368	1
1.7	2015_Jul_30_1306	s	s	9	3	Capacity	8	ABS	0	1	24RO	0	0	-1	None	None	None	None	-1
1.7	2015_Jul_30_1306	s	s	9	3	Capacity	9	RC	0	1	23RO	1	0	16.543118	97.0	-229.0	95	-234	1
1.7	2015_Jul_30_1306	s	s	9	3	Capacity	10	ABS	0	2	24RD	0	1	6.08478498459	None	None	None	None	1
1.7	2015_Jul_30_1306	s	s	9	3	Capacity	11	RC	0	2	23RD	1	0	0.664725780487	-16.0	381.0	-13	378	1
1.7	2015_Jul_30_1306	s	s	9	3	Capacity	12	ABS	0	1	24RO	0	1	1.10308790207	None	None	None	None	1
1.7	2015_Jul_30_1306	s	s	9	3	Capacity	13	ABS	0	1	24RO	0	1	3.58932185173	None	None	None	None	1
1.7	2015_Jul_30_1306	s	s	9	3	Capacity	14	RC	0	1	23RO	0	1	2.98358798027	-490.0	-126.0	None	None	0
1.7	2015_Jul_30_1306	s	s	9	3	Capacity	15	ABS	0	2	24RD	0	1	0.617974042892	None	None	None	None	1
1.7	2015_Jul_30_1306	s	s	9	3	Capacity	16	RC	0	2	23RD	1	0	0.514387845993	-189.0	308.0	-193	309	1
1.7	2015_Jul_30_1306	s	s	9	3	Capacity	17	ABS	0	1	24RO	0	1	0.632583141327	None	None	None	None	1
1.7	2015_Jul_30_1306	s	s	9	3	Capacity	18	RC	0	1	23RO	1	0	1.8329398632	81.0	-236.0	81	-227	1
1.7	2015_Jul_30_1306	s	s	9	3	Capacity	19	RC	0	2	23RD	1	0	0.599629878998	-251.0	20.0	-248	20	1
1.7	2015_Jul_30_1306	s	s	9	3	Capacity	20	ABS	0	2	24RD	0	1	0.776220083237	None	None	None	None	1
1.7	2015_Jul_30_1306	s	s	9	3	Capacity	21	ABS	0	2	24RD	0	1	1.16465711594	None	None	None	None	1
1.7	2015_Jul_30_1306	s	s	9	3	Capacity	22	RC	0	2	23RD	1	0	0.499963998795	223.0	24.0	219	22	1
1.7	2015_Jul_30_1306	s	s	9	3	Capacity	23	RC	0	1	23RO	1	0	0.809171915054	-178.0	296.0	-179	290	1
1.7	2015_Jul_30_1306	s	s	9	3	Capacity	24	ABS	0	1	24RO	0	1	4.03344416618	None	None	None	None	1
1.7	2015_Jul_30_1306	s	s	9	3	Capacity	25	RC	0	1	23RO	1	0	0.714650154114	242.0	83.0	240	72	1
1.7	2015_Jul_30_1306	s	s	9	3	Capacity	26	RC	0	2	23RD	1	0	0.984359025955	-43.0	76.0	-40	73	1
1.7	2015_Jul_30_1306	s	s	9	3	Capacity	27	ABS	0	2	24RD	0	1	1.2940030098	None	None	None	None	1
1.7	2015_Jul_30_1306	s	s	9	3	Capacity	28	ABS	0	1	24RO	0	1	3.21887922287	None	None	None	None	1
1.7	2015_Jul_30_1306	s	s	9	3	Capacity	29	ABS	0	2	24RD	1	0	2.44751000404	None	None	-64	12	0
1.7	2015_Jul_30_1306	s	s	9	3	Capacity	30	ABS	0	1	24RO	0	1	1.95326185226	None	None	None	None	1
1.7	2015_Jul_30_1306	s	s	9	3	Capacity	31	RC	0	1	23RO	1	0	1.88897800446	-150.0	-316.0	-140	-317	1
1.7	2015_Jul_30_1306	s	s	9	3	Capacity	32	RC	0	2	23RD	1	0	0.935309171677	-262.0	-298.0	-262	-301	1
1.7	2015_Jul_30_1306	s	s	9	3	Capacity	33	RC	0	1	23RO	1	0	1.59450984001	104.0	229.0	101	238	1
1.7	2015_Jul_30_1306	s	s	9	3	Capacity	34	ABS	0	1	24RO	0	1	2.15339398384	None	None	None	None	1
1.7	2015_Jul_30_1306	s	s	9	3	Capacity	35	RC	0	2	23RD	0	1	0.31116104126	300.0	339.0	None	None	0
1.7	2015_Jul_30_1306	s	s	9	3	Capacity	36	ABS	0	2	24RD	0	1	0.281738996506	None	None	None	None	1
1.7	2015_Jul_30_1306	s	s	9	3	Capacity	37	ABS	0	2	24RD	0	1	2.07117891312	None	None	None	None	1
1.7	2015_Jul_30_1306	s	s	9	3	Capacity	38	ABS	0	1	24RO	0	1	1.43529987335	None	None	None	None	1
1.7	2015_Jul_30_1306	s	s	9	3	Capacity	39	RC	0	1	23RO	1	0	2.10072398186	-124.0	-235.0	-126	-241	1
1.7	2015_Jul_30_1306	s	s	9	3	Capacity	40	RC	0	2	23RD	0	1	0.797372817993	-214.0	-341.0	None	None	0
1.7	2015_Jul_30_1306	s	s	9	3	Capacity	41	ABS	0	1	24RO	0	1	1.86512899399	None	None	None	None	1
1.7	2015_Jul_30_1306	s	s	9	3	Capacity	42	RC	0	1	23RO	0	1	3.45420503616	162.0	-30.0	None	None	0
1.7	2015_Jul_30_1306	s	s	9	3	Capacity	43	ABS	0	2	24RD	0	1	1.38829708099	None	None	None	None	1
1.7	2015_Jul_30_1306	s	s	9	3	Capacity	44	RC	0	2	23RD	1	0	1.30025005341	-59.0	312.0	-63	314	1
1.7	2015_Jul_30_1306	s	s	9	3	Capacity	45	RC	0	2	23RD	1	0	1.18098711967	94.0	-297.0	103	-300	1
1.7	2015_Jul_30_1306	s	s	9	3	Capacity	46	ABS	0	1	24RO	0	1	1.44707894325	None	None	None	None	1
1.7	2015_Jul_30_1306	s	s	9	3	Capacity	47	RC	0	1	23RO	0	1	4.80178308487	210.0	405.0	None	None	0
1.7	2015_Jul_30_1306	s	s	9	3	Capacity	48	ABS	0	2	24RD	0	1	0.905787944794	None	None	None	None	1
1.7	2015_Jul_30_1306	s	s	9	3	Capacity	49	ABS	0	2	24RD	0	1	1.52444791794	None	None	None	None	1
1.7	2015_Jul_30_1306	s	s	9	3	Capacity	50	RC	0	2	23RD	0	1	1.91783499718	103.0	23.0	None	None	0
1.7	2015_Jul_30_1306	s	s	9	3	Capacity	51	RC	0	1	23RO	0	1	3.23626112938	372.0	99.0	None	None	0
1.7	2015_Jul_30_1306	s	s	9	3	Capacity	52	ABS	0	1	24RO	0	1	1.00923514366	None	None	None	None	1
1.7	2015_Jul_30_1306	s	s	9	3	Capacity	53	ABS	0	2	24RD	0	1	1.88269400597	None	None	None	None	1
1.7	2015_Jul_30_1306	s	s	9	3	Capacity	54	RC	0	2	23RD	0	1	1.88267397881	14.0	-336.0	None	None	0
1.7	2015_Jul_30_1306	s	s	9	3	Capacity	55	RC	0	1	23RO	0	1	1.65571594238	-235.0	-171.0	None	None	0
1.7	2015_Jul_30_1306	s	s	9	3	Capacity	56	ABS	0	1	24RO	0	1	1.27747297287	None	None	None	None	1
1.7	2015_Jul_30_1306	s	s	9	3	Capacity	57	RC	0	1	23RO	1	0	4.0788500309	65.0	254.0	67	250	1
1.7	2015_Jul_30_1306	s	s	9	3	Capacity	58	ABS	0	2	24RD	0	1	0.526221990585	None	None	None	None	1
1.7	2015_Jul_30_1306	s	s	9	3	Capacity	59	RC	0	2	23RD	1	0	0.658438920975	479.0	91.0	472	92	1
1.7	2015_Jul_30_1306	s	s	9	3	Capacity	60	ABS	0	1	24RO	0	1	1.95328211784	None	None	None	None	1
1.7	2015_Jul_30_1306	s	s	9	3	Capacity	61	ABS	0	1	24RO	0	1	2.96559000015	None	None	None	None	1
1.7	2015_Jul_30_1306	s	s	9	3	Capacity	62	RC	0	2	23RD	1	0	0.632176876068	-413.0	-97.0	-413	-94	1
1.7	2015_Jul_30_1306	s	s	9	3	Capacity	63	ABS	0	2	24RD	0	1	1.11755013466	None	None	None	None	1
1.7	2015_Jul_30_1306	s	s	9	3	Capacity	64	RC	0	1	23RO	0	1	1.89208292961	400.0	-45.0	None	None	0
1.7	2015_Jul_30_1306	s	s	9	3	Capacity	65	ABS	0	2	24RD	0	1	0.62332201004	None	None	None	None	1
1.7	2015_Jul_30_1306	s	s	9	3	Capacity	66	ABS	0	1	24RO	0	1	0.335421085358	None	None	None	None	1
1.7	2015_Jul_30_1306	s	s	9	3	Capacity	67	RC	0	2	23RD	1	0	0.833089828491	63.0	-222.0	69	-227	1
1.7	2015_Jul_30_1306	s	s	9	3	Capacity	68	RC	0	1	23RO	1	0	1.41194796562	510.0	-249.0	510	-242	1
1.7	2015_Jul_30_1306	s	s	9	3	Capacity	69	RC	0	1	23RO	1	0	2.27145695686	-208.0	392.0	-213	398	1
1.7	2015_Jul_30_1306	s	s	9	3	Capacity	70	ABS	0	1	24RO	0	1	2.4828979969	None	None	None	None	1
1.7	2015_Jul_30_1306	s	s	9	3	Capacity	71	ABS	0	2	24RD	0	1	0.823211193085	None	None	None	None	1
1.7	2015_Jul_30_1306	s	s	9	3	Capacity	72	RC	0	2	23RD	1	0	0.558460950851	124.0	-6.0	122	-11	1
1.7	2015_Jul_30_1306	s	s	9	3	Capacity	73	RC	0	1	23RO	1	0	1.12735319138	375.0	161.0	370	165	1
1.7	2015_Jul_30_1306	s	s	9	3	Capacity	74	RC	0	2	23RD	1	0	0.576137065887	270.0	-221.0	271	-213	1
1.7	2015_Jul_30_1306	s	s	9	3	Capacity	75	ABS	0	1	24RO	0	1	0.91311788559	None	None	None	None	1
1.7	2015_Jul_30_1306	s	s	9	3	Capacity	76	ABS	0	2	24RD	0	1	1.40897607803	None	None	None	None	1
1.7	2015_Jul_30_1306	s	s	9	3	Capacity	77	ABS	0	1	24RO	0	1	1.30132913589	None	None	None	None	1
1.7	2015_Jul_30_1306	s	s	9	3	Capacity	78	RC	0	2	23RD	1	0	0.670318841934	-391.0	-104.0	-392	-99	1
1.7	2015_Jul_30_1306	s	s	9	3	Capacity	79	RC	0	1	23RO	1	0	2.24249505997	437.0	365.0	436	361	1
1.7	2015_Jul_30_1306	s	s	9	3	Capacity	80	ABS	0	2	24RD	0	1	0.905656099319	None	None	None	None	1
1.7	2015_Jul_30_1306	s	s	9	3	Capacity	81	RC	0	2	23RD	1	0	0.549295186996	-393.0	-192.0	-396	-192	1
1.7	2015_Jul_30_1306	s	s	9	3	Capacity	82	RC	0	1	23RO	1	0	3.07853913307	-177.0	-256.0	-170	-258	1
1.7	2015_Jul_30_1306	s	s	9	3	Capacity	83	ABS	0	1	24RO	0	1	3.61958599091	None	None	None	None	1
1.7	2015_Jul_30_1306	s	s	9	3	Capacity	84	ABS	0	2	24RD	0	1	1.78850793839	None	None	None	None	1
1.7	2015_Jul_30_1306	s	s	9	3	Capacity	85	RC	0	2	23RD	1	0	0.559568881989	-179.0	108.0	-171	102	1
1.7	2015_Jul_30_1306	s	s	9	3	Capacity	86	ABS	0	1	24RO	0	1	2.48297810555	None	None	None	None	1
1.7	2015_Jul_30_1306	s	s	9	3	Capacity	87	RC	0	1	23RO	1	0	1.14496707916	409.0	189.0	410	190	1
1.7	2015_Jul_30_1306	s	s	9	3	Capacity	88	ABS	0	2	24RD	0	1	1.15973186493	None	None	None	None	1
1.7	2015_Jul_30_1306	s	s	9	3	Capacity	89	RC	0	2	23RD	1	0	0.808105945587	347.0	-169.0	348	-173	1
1.7	2015_Jul_30_1306	s	s	9	3	Capacity	90	ABS	0	2	24RD	0	1	0.776070833206	None	None	None	None	1
1.7	2015_Jul_30_1306	s	s	9	3	Capacity	91	ABS	0	1	24RO	0	1	2.58891701698	None	None	None	None	1
1.7	2015_Jul_30_1306	s	s	9	3	Capacity	92	RC	0	1	23RO	1	0	3.20484399796	199.0	-130.0	199	-134	1
1.7	2015_Jul_30_1306	s	s	9	3	Capacity	1	RC	2	0	23VC	1	0	0.505549907684	-442.0	310.0	-450	307	1
1.7	2015_Jul_30_1306	s	s	9	3	Capacity	2	ABS	1	0	24MC	0	1	1.07707500458	None	None	None	None	1
1.7	2015_Jul_30_1306	s	s	9	3	Capacity	3	ABS	2	0	24VC	0	1	0.0347580909729	None	None	None	None	1
1.7	2015_Jul_30_1306	s	s	9	3	Capacity	4	RC	1	0	23MC	0	1	0.269994974136	300.0	-260.0	None	None	0
1.7	2015_Jul_30_1306	s	s	9	3	Capacity	5	ABS	2	0	24VC	0	1	0.947915077209	None	None	None	None	1
1.7	2015_Jul_30_1306	s	s	9	3	Capacity	6	RC	1	0	23MC	0	1	0.441786050797	265.0	-224.0	None	None	0
1.7	2015_Jul_30_1306	s	s	9	3	Capacity	7	RC	2	0	23VC	1	0	0.959645986557	269.0	-246.0	270	-251	1
1.7	2015_Jul_30_1306	s	s	9	3	Capacity	8	ABS	1	0	24MC	0	1	1.37644100189	None	None	None	None	1
1.7	2015_Jul_30_1306	s	s	9	3	Capacity	9	ABS	1	0	24MC	0	1	1.03506302834	None	None	None	None	1
1.7	2015_Jul_30_1306	s	s	9	3	Capacity	10	RC	2	0	23VC	0	1	3.49191403389	321.0	-104.0	None	None	0
1.7	2015_Jul_30_1306	s	s	9	3	Capacity	11	ABS	2	0	24VC	0	1	3.60779714584	None	None	None	None	1
1.7	2015_Jul_30_1306	s	s	9	3	Capacity	12	RC	1	0	23MC	1	0	0.846916913986	-169.0	4.0	-167	-11	1
1.7	2015_Jul_30_1306	s	s	9	3	Capacity	13	ABS	2	0	24VC	0	1	0.66600394249	None	None	None	None	1
1.7	2015_Jul_30_1306	s	s	9	3	Capacity	14	RC	1	0	23MC	1	0	0.893738031387	-510.0	188.0	-499	188	1
1.7	2015_Jul_30_1306	s	s	9	3	Capacity	15	ABS	1	0	24MC	0	1	0.529041051865	None	None	None	None	1
1.7	2015_Jul_30_1306	s	s	9	3	Capacity	16	RC	2	0	23VC	0	1	0.187708854675	429.0	-267.0	None	None	0
1.7	2015_Jul_30_1306	s	s	9	3	Capacity	17	RC	1	0	23MC	0	1	0.411265850067	-41.0	-299.0	None	None	0
1.7	2015_Jul_30_1306	s	s	9	3	Capacity	18	RC	2	0	23VC	0	1	0.234659910202	-197.0	88.0	None	None	0
1.7	2015_Jul_30_1306	s	s	9	3	Capacity	19	ABS	1	0	24MC	0	1	1.2450158596	None	None	None	None	1
1.7	2015_Jul_30_1306	s	s	9	3	Capacity	20	ABS	2	0	24VC	0	1	0.831378936768	None	None	None	None	1
1.7	2015_Jul_30_1306	s	s	9	3	Capacity	21	ABS	2	0	24VC	0	1	8.60372304916	None	None	None	None	1
1.7	2015_Jul_30_1306	s	s	9	3	Capacity	22	RC	2	0	23VC	1	0	0.513832092285	227.0	-195.0	226	-199	1
1.7	2015_Jul_30_1306	s	s	9	3	Capacity	23	RC	1	0	23MC	1	0	1.61894607544	106.0	-210.0	95	-209	1
1.7	2015_Jul_30_1306	s	s	9	3	Capacity	24	ABS	1	0	24MC	0	1	0.905673980713	None	None	None	None	1
1.7	2015_Jul_30_1306	s	s	9	3	Capacity	25	ABS	2	0	24VC	0	1	0.599685907364	None	None	None	None	1
1.7	2015_Jul_30_1306	s	s	9	3	Capacity	26	RC	1	0	23MC	1	0	1.28239202499	-250.0	-382.0	-489	332	0
1.7	2015_Jul_30_1306	s	s	9	3	Capacity	27	RC	2	0	23VC	1	0	0.560792922974	117.0	117.0	107	122	1
1.7	2015_Jul_30_1306	s	s	9	3	Capacity	28	ABS	1	0	24MC	0	1	0.964547157288	None	None	None	None	1
1.7	2015_Jul_30_1306	s	s	9	3	Capacity	29	RC	2	0	23VC	1	0	0.583987951279	-340.0	251.0	-341	250	1
1.7	2015_Jul_30_1306	s	s	9	3	Capacity	30	ABS	1	0	24MC	0	1	1.38514900208	None	None	None	None	1
1.7	2015_Jul_30_1306	s	s	9	3	Capacity	31	RC	1	0	23MC	1	0	0.538296937943	-402.0	170.0	-400	165	1
1.7	2015_Jul_30_1306	s	s	9	3	Capacity	32	ABS	2	0	24VC	0	1	0.752784013748	None	None	None	None	1
1.7	2015_Jul_30_1306	s	s	9	3	Capacity	33	RC	2	0	23VC	1	0	0.524514913559	450.0	173.0	445	169	1
1.7	2015_Jul_30_1306	s	s	9	3	Capacity	34	ABS	2	0	24VC	0	1	0.705467939377	None	None	None	None	1
1.7	2015_Jul_30_1306	s	s	9	3	Capacity	35	ABS	1	0	24MC	0	1	1.00784492493	None	None	None	None	1
1.7	2015_Jul_30_1306	s	s	9	3	Capacity	36	RC	1	0	23MC	0	1	0.702264070511	-250.0	-360.0	None	None	0
1.7	2015_Jul_30_1306	s	s	9	3	Capacity	37	ABS	1	0	24MC	0	1	0.623245954514	None	None	None	None	1
1.7	2015_Jul_30_1306	s	s	9	3	Capacity	38	RC	2	0	23VC	1	0	0.83015203476	-12.0	-167.0	-11	-171	1
1.7	2015_Jul_30_1306	s	s	9	3	Capacity	39	ABS	2	0	24VC	0	1	0.750692129135	None	None	None	None	1
1.7	2015_Jul_30_1306	s	s	9	3	Capacity	40	RC	1	0	23MC	1	0	0.618041038513	-299.0	213.0	-302	211	1
1.7	2015_Jul_30_1306	s	s	9	3	Capacity	41	RC	1	0	23MC	0	1	0.960717201233	367.0	316.0	None	None	0
1.7	2015_Jul_30_1306	s	s	9	3	Capacity	42	ABS	2	0	24VC	0	1	1.76016712189	None	None	None	None	1
1.7	2015_Jul_30_1306	s	s	9	3	Capacity	43	ABS	1	0	24MC	0	1	13.3120100498	None	None	None	None	1
1.7	2015_Jul_30_1306	s	s	9	3	Capacity	44	RC	2	0	23VC	1	0	0.682658910751	346.0	-300.0	349	-291	1
1.7	2015_Jul_30_1306	s	s	9	3	Capacity	45	ABS	1	0	24MC	0	1	10.0606491566	None	None	None	None	1
1.7	2015_Jul_30_1306	s	s	9	3	Capacity	46	RC	2	0	23VC	1	0	0.493836164474	263.0	369.0	265	375	1
1.7	2015_Jul_30_1306	s	s	9	3	Capacity	47	RC	1	0	23MC	0	1	1.75087189674	291.0	371.0	None	None	0
1.7	2015_Jul_30_1306	s	s	9	3	Capacity	48	ABS	2	0	24VC	1	0	0.549644947052	None	None	99	120	0
1.7	2015_Jul_30_1306	s	s	9	3	Capacity	49	RC	1	0	23MC	0	1	0.785364866257	8.0	-191.0	None	None	0
1.7	2015_Jul_30_1306	s	s	9	3	Capacity	50	ABS	1	0	24MC	0	1	0.890748977661	None	None	None	None	1
1.7	2015_Jul_30_1306	s	s	9	3	Capacity	51	RC	2	0	23VC	1	0	0.529036045074	208.0	361.0	203	358	1
1.7	2015_Jul_30_1306	s	s	9	3	Capacity	52	ABS	2	0	24VC	0	1	0.514698028564	None	None	None	None	1
1.7	2015_Jul_30_1306	s	s	9	3	Capacity	53	RC	1	0	23MC	0	1	0.61772608757	-332.0	-185.0	None	None	0
1.7	2015_Jul_30_1306	s	s	9	3	Capacity	54	ABS	1	0	24MC	0	1	0.79743885994	None	None	None	None	1
1.7	2015_Jul_30_1306	s	s	9	3	Capacity	55	ABS	2	0	24VC	0	1	0.664776086807	None	None	None	None	1
1.7	2015_Jul_30_1306	s	s	9	3	Capacity	56	RC	2	0	23VC	1	0	0.493594169617	422.0	323.0	421	318	1
1.7	2015_Jul_30_1306	s	s	9	3	Capacity	57	ABS	1	0	24MC	0	1	0.702261209488	None	None	None	None	1
1.7	2015_Jul_30_1306	s	s	9	3	Capacity	58	ABS	2	0	24VC	0	1	0.747762918472	None	None	None	None	1
1.7	2015_Jul_30_1306	s	s	9	3	Capacity	59	RC	1	0	23MC	1	0	0.780025959015	518.0	-348.0	524	-342	1
1.7	2015_Jul_30_1306	s	s	9	3	Capacity	60	RC	2	0	23VC	1	0	0.571753025055	-188.0	-152.0	-184	-150	1
1.7	2015_Jul_30_1306	s	s	9	3	Capacity	61	RC	2	0	23VC	1	0	0.605730056763	520.0	76.0	518	69	1
1.7	2015_Jul_30_1306	s	s	9	3	Capacity	62	ABS	1	0	24MC	0	1	1.23553705215	None	None	None	None	1
1.7	2015_Jul_30_1306	s	s	9	3	Capacity	63	ABS	2	0	24VC	0	1	0.785212993622	None	None	None	None	1
1.7	2015_Jul_30_1306	s	s	9	3	Capacity	64	RC	1	0	23MC	0	1	0.835253953934	113.0	-1.0	None	None	0
1.7	2015_Jul_30_1306	s	s	9	3	Capacity	65	ABS	2	0	24VC	0	1	0.547614097595	None	None	None	None	1
1.7	2015_Jul_30_1306	s	s	9	3	Capacity	66	RC	1	0	23MC	0	1	0.623245954514	-77.0	245.0	None	None	0
1.7	2015_Jul_30_1306	s	s	9	3	Capacity	67	RC	2	0	23VC	1	0	0.523350000381	428.0	395.0	434	396	1
1.7	2015_Jul_30_1306	s	s	9	3	Capacity	68	ABS	1	0	24MC	0	1	0.935454130173	None	None	None	None	1
1.7	2015_Jul_30_1306	s	s	9	3	Capacity	69	RC	2	0	23VC	1	0	0.611358880997	-251.0	-61.0	-249	-62	1
1.7	2015_Jul_30_1306	s	s	9	3	Capacity	70	RC	1	0	23MC	0	1	0.841219186783	-352.0	253.0	None	None	0
1.7	2015_Jul_30_1306	s	s	9	3	Capacity	71	ABS	2	0	24VC	0	1	0.677211999893	None	None	None	None	1
1.7	2015_Jul_30_1306	s	s	9	3	Capacity	72	ABS	1	0	24MC	0	1	1.11762690544	None	None	None	None	1
1.7	2015_Jul_30_1306	s	s	9	3	Capacity	73	ABS	1	0	24MC	0	1	1.03515195847	None	None	None	None	1
1.7	2015_Jul_30_1306	s	s	9	3	Capacity	74	RC	1	0	23MC	0	1	0.782922029495	388.0	201.0	None	None	0
1.7	2015_Jul_30_1306	s	s	9	3	Capacity	75	RC	2	0	23VC	1	0	0.524024009705	91.0	15.0	89	16	1
1.7	2015_Jul_30_1306	s	s	9	3	Capacity	76	ABS	2	0	24VC	0	1	0.870503902435	None	None	None	None	1
1.7	2015_Jul_30_1306	s	s	9	3	Capacity	77	ABS	2	0	24VC	0	1	0.558995008469	None	None	None	None	1
1.7	2015_Jul_30_1306	s	s	9	3	Capacity	78	ABS	1	0	24MC	0	1	0.607200145721	None	None	None	None	1
1.7	2015_Jul_30_1306	s	s	9	3	Capacity	79	RC	2	0	23VC	1	0	0.540844917297	-121.0	304.0	-121	299	1
1.7	2015_Jul_30_1306	s	s	9	3	Capacity	80	RC	1	0	23MC	0	1	1.08889007568	-382.0	-174.0	None	None	0
1.7	2015_Jul_30_1306	s	s	9	3	Capacity	81	RC	1	0	23MC	1	0	0.623212099075	-127.0	191.0	-126	189	1
1.7	2015_Jul_30_1306	s	s	9	3	Capacity	82	RC	2	0	23VC	1	0	0.525851964951	-442.0	-128.0	-440	-130	1
1.7	2015_Jul_30_1306	s	s	9	3	Capacity	83	ABS	1	0	24MC	0	1	0.71741104126	None	None	None	None	1
1.7	2015_Jul_30_1306	s	s	9	3	Capacity	84	ABS	2	0	24VC	0	1	0.690861940384	None	None	None	None	1
1.7	2015_Jul_30_1306	s	s	9	3	Capacity	85	RC	1	0	23MC	0	1	0.609297990799	-13.0	114.0	None	None	0
1.7	2015_Jul_30_1306	s	s	9	3	Capacity	86	ABS	2	0	24VC	0	1	0.6182949543	None	None	None	None	1
1.7	2015_Jul_30_1306	s	s	9	3	Capacity	87	RC	2	0	23VC	1	0	0.615283966064	11.0	17.0	18	12	1
1.7	2015_Jul_30_1306	s	s	9	3	Capacity	88	ABS	1	0	24MC	0	1	1.06722998619	None	None	None	None	1
1.7	2015_Jul_30_1306	s	s	9	3	Capacity	89	ABS	1	0	24MC	0	1	0.797497987747	None	None	None	None	1
1.7	2015_Jul_30_1306	s	s	9	3	Capacity	90	RC	2	0	23VC	1	0	0.634927988052	196.0	-47.0	191	-50	1
1.7	2015_Jul_30_1306	s	s	9	3	Capacity	91	RC	1	0	23MC	1	0	1.16468691826	235.0	137.0	236	134	1
1.7	2015_Jul_30_1306	s	s	9	3	Capacity	92	ABS	2	0	24VC	0	1	0.665203094482	None	None	None	None	1
1.7	2015_Jul_30_1306	s	s	9	3	SIC	1	ABS	2	2	24VD	0	1	0.606845140457	None	None	None	None	1
1.7	2015_Jul_30_1306	s	s	9	3	SIC	2	ABS	2	1	24VO	0	1	1.78645014763	None	None	None	None	1
1.7	2015_Jul_30_1306	s	s	9	3	SIC	3	RC	2	0	23VC	0	1	0.00841903686523	517.0	-400.0	None	None	0
1.7	2015_Jul_30_1306	s	s	9	3	SIC	4	RC	2	2	23VD	1	0	4.70778203011	362.0	-298.0	361	-300	1
1.7	2015_Jul_30_1306	s	s	9	3	SIC	5	ABS	1	0	24MC	0	0	-1	None	None	None	None	-1
1.7	2015_Jul_30_1306	s	s	9	3	SIC	6	RC	0	2	23RD	1	0	7.56577992439	-182.0	294.0	-177	303	1
1.7	2015_Jul_30_1306	s	s	9	3	SIC	7	ABS	2	0	24VC	0	1	0.800244808197	None	None	None	None	1
1.7	2015_Jul_30_1306	s	s	9	3	SIC	8	ABS	1	2	24MD	0	1	0.49998497963	None	None	None	None	1
1.7	2015_Jul_30_1306	s	s	9	3	SIC	9	RC	1	0	23MC	1	0	1.31785583496	-69.0	-72.0	-70	-89	1
1.7	2015_Jul_30_1306	s	s	9	3	SIC	10	ABS	0	1	24RO	0	1	7.42655491829	None	None	None	None	1
1.7	2015_Jul_30_1306	s	s	9	3	SIC	11	RC	0	1	23RO	1	0	2.3481631279	236.0	401.0	234	392	1
1.7	2015_Jul_30_1306	s	s	9	3	SIC	12	RC	2	1	23VO	1	0	0.536092042923	-154.0	71.0	-146	74	1
1.7	2015_Jul_30_1306	s	s	9	3	SIC	13	RC	1	2	23MD	1	0	0.54927611351	-532.0	297.0	-536	297	1
1.7	2015_Jul_30_1306	s	s	9	3	SIC	14	ABS	0	2	24RD	0	1	1.47946190834	None	None	None	None	1
1.7	2015_Jul_30_1306	s	s	9	3	SIC	15	RC	1	1	23MO	0	1	1.15283489227	25.0	-263.0	None	None	0
1.7	2015_Jul_30_1306	s	s	9	3	SIC	16	ABS	1	1	24MO	0	1	1.94150400162	None	None	None	None	1
1.7	2015_Jul_30_1306	s	s	9	3	SIC	17	ABS	0	1	24RO	0	1	2.31817984581	None	None	None	None	1
1.7	2015_Jul_30_1306	s	s	9	3	SIC	18	RC	2	0	23VC	1	0	0.541188001633	-87.0	-235.0	-83	-239	1
1.7	2015_Jul_30_1306	s	s	9	3	SIC	19	RC	2	2	23VD	1	0	0.5475730896	-253.0	-408.0	-259	-404	1
1.7	2015_Jul_30_1306	s	s	9	3	SIC	20	ABS	1	0	24MC	0	1	0.905721902847	None	None	None	None	1
1.7	2015_Jul_30_1306	s	s	9	3	SIC	21	RC	0	1	23RO	0	1	0.737493038177	-219.0	-182.0	None	None	0
1.7	2015_Jul_30_1306	s	s	9	3	SIC	22	ABS	2	0	24VC	0	1	0.576163053513	None	None	None	None	1
1.7	2015_Jul_30_1306	s	s	9	3	SIC	23	RC	1	1	23MO	0	1	0.617198944092	263.0	104.0	None	None	0
1.7	2015_Jul_30_1306	s	s	9	3	SIC	24	RC	2	1	23VO	1	0	0.47012090683	-234.0	-2.0	-232	-11	1
1.7	2015_Jul_30_1306	s	s	9	3	SIC	25	ABS	1	2	24MD	0	1	0.270008087158	None	None	None	None	1
1.7	2015_Jul_30_1306	s	s	9	3	SIC	26	RC	1	2	23MD	1	0	0.914012908936	-291.0	53.0	-292	54	1
1.7	2015_Jul_30_1306	s	s	9	3	SIC	27	ABS	2	2	24VD	0	1	0.520917892456	None	None	None	None	1
1.7	2015_Jul_30_1306	s	s	9	3	SIC	28	ABS	2	1	24VO	0	1	0.630797863007	None	None	None	None	1
1.7	2015_Jul_30_1306	s	s	9	3	SIC	29	RC	1	0	23MC	1	0	1.11280488968	491.0	218.0	487	218	1
1.7	2015_Jul_30_1306	s	s	9	3	SIC	30	RC	0	2	23RD	1	0	0.540771961212	99.0	-25.0	105	-23	1
1.7	2015_Jul_30_1306	s	s	9	3	SIC	31	ABS	1	1	24MO	0	1	0.823222160339	None	None	None	None	1
1.7	2015_Jul_30_1306	s	s	9	3	SIC	32	ABS	0	2	24RD	0	1	1.1010081768	None	None	None	None	1
1.7	2015_Jul_30_1306	s	s	9	3	SIC	33	RC	1	2	23MD	1	0	0.644267082214	32.0	134.0	30	131	1
1.7	2015_Jul_30_1306	s	s	9	3	SIC	34	ABS	1	1	24MO	0	1	0.99707698822	None	None	None	None	1
1.7	2015_Jul_30_1306	s	s	9	3	SIC	35	RC	2	2	23VD	1	0	0.994635105133	508.0	-125.0	512	-123	1
1.7	2015_Jul_30_1306	s	s	9	3	SIC	36	ABS	1	2	24MD	0	1	0.385359048843	None	None	None	None	1
1.7	2015_Jul_30_1306	s	s	9	3	SIC	37	ABS	2	1	24VO	0	1	0.234648942947	None	None	None	None	1
1.7	2015_Jul_30_1306	s	s	9	3	SIC	38	RC	1	0	23MC	0	1	0.263704061508	109.0	-138.0	None	None	0
1.7	2015_Jul_30_1306	s	s	9	3	SIC	39	ABS	2	2	24VD	0	1	0.714962005615	None	None	None	None	1
1.7	2015_Jul_30_1306	s	s	9	3	SIC	40	ABS	0	1	24RO	0	1	0.255950212479	None	None	None	None	1
1.7	2015_Jul_30_1306	s	s	9	3	SIC	41	ABS	2	0	24VC	0	1	0.042622089386	None	None	None	None	1
1.7	2015_Jul_30_1306	s	s	9	3	SIC	42	RC	0	2	23RD	0	1	0.161777019501	-141.0	-16.0	None	None	0
1.7	2015_Jul_30_1306	s	s	9	3	SIC	43	RC	2	0	23VC	0	1	0.313236951828	-272.0	38.0	None	None	0
1.7	2015_Jul_30_1306	s	s	9	3	SIC	44	ABS	0	2	24RD	0	1	0.560525894165	None	None	None	None	1
1.7	2015_Jul_30_1306	s	s	9	3	SIC	45	ABS	1	0	24MC	0	1	0.394868850708	None	None	None	None	1
1.7	2015_Jul_30_1306	s	s	9	3	SIC	46	RC	0	1	23RO	0	1	0.61753487587	159.0	-184.0	None	None	0
1.7	2015_Jul_30_1306	s	s	9	3	SIC	47	RC	2	1	23VO	1	0	0.611268997192	-336.0	-399.0	-338	-394	1
1.7	2015_Jul_30_1306	s	s	9	3	SIC	48	RC	1	1	23MO	1	0	1.03239798546	211.0	87.0	207	82	1
1.7	2015_Jul_30_1306	s	s	9	3	SIC	49	ABS	0	1	24RO	0	1	0.752510070801	None	None	None	None	1
1.7	2015_Jul_30_1306	s	s	9	3	SIC	50	RC	1	2	23MD	1	0	0.687855005264	283.0	-249.0	283	-252	1
1.7	2015_Jul_30_1306	s	s	9	3	SIC	51	ABS	1	2	24MD	0	1	0.788000822067	None	None	None	None	1
1.7	2015_Jul_30_1306	s	s	9	3	SIC	52	ABS	2	0	24VC	0	1	0.905632019043	None	None	None	None	1
1.7	2015_Jul_30_1306	s	s	9	3	SIC	53	ABS	1	1	24MO	0	1	0.784525156021	None	None	None	None	1
1.7	2015_Jul_30_1306	s	s	9	3	SIC	54	RC	2	2	23VD	1	0	0.609027862549	237.0	-248.0	243	-251	1
1.7	2015_Jul_30_1306	s	s	9	3	SIC	55	ABS	2	2	24VD	0	1	0.705991983414	None	None	None	None	1
1.7	2015_Jul_30_1306	s	s	9	3	SIC	56	RC	0	1	23RO	0	1	1.5648419857	331.0	192.0	None	None	0
1.7	2015_Jul_30_1306	s	s	9	3	SIC	57	RC	2	0	23VC	1	0	0.679984092712	533.0	-351.0	532	-353	1
1.7	2015_Jul_30_1306	s	s	9	3	SIC	58	RC	0	2	23RD	1	0	0.646811008453	429.0	-202.0	430	-208	1
1.7	2015_Jul_30_1306	s	s	9	3	SIC	59	RC	1	0	23MC	1	0	1.0419280529	25.0	-156.0	27	-158	1
1.7	2015_Jul_30_1306	s	s	9	3	SIC	60	ABS	2	1	24VO	0	1	0.505454063416	None	None	None	None	1
1.7	2015_Jul_30_1306	s	s	9	3	SIC	61	RC	1	1	23MO	0	1	0.187711000443	191.0	-330.0	None	None	0
1.7	2015_Jul_30_1306	s	s	9	3	SIC	62	ABS	1	0	24MC	0	0	-1	None	None	None	None	-1
1.7	2015_Jul_30_1306	s	s	9	3	SIC	63	ABS	0	2	24RD	0	0	-1	None	None	None	None	-1
1.7	2015_Jul_30_1306	s	s	9	3	SIC	64	RC	2	1	23VO	0	1	12.9185390472	495.0	208.0	None	None	0
1.7	2015_Jul_30_1306	s	s	9	3	SIC	65	ABS	2	2	24VD	0	1	1.56242203712	None	None	None	None	1
1.7	2015_Jul_30_1306	s	s	9	3	SIC	66	ABS	0	1	24RO	0	1	0.113996982574	None	None	None	None	1
1.7	2015_Jul_30_1306	s	s	9	3	SIC	67	ABS	2	1	24VO	0	1	3.26717782021	None	None	None	None	1
1.7	2015_Jul_30_1306	s	s	9	3	SIC	68	ABS	1	1	24MO	0	1	10.5575399399	None	None	None	None	1
1.7	2015_Jul_30_1306	s	s	9	3	SIC	69	RC	1	1	23MO	0	1	0.184053897858	237.0	-16.0	None	None	0
1.7	2015_Jul_30_1306	s	s	9	3	SIC	70	RC	1	2	23MD	0	1	4.19774007797	-95.0	392.0	None	None	0
1.7	2015_Jul_30_1306	s	s	9	3	SIC	71	RC	2	2	23VD	0	1	1.51282215118	358.0	-247.0	None	None	0
1.7	2015_Jul_30_1306	s	s	9	3	SIC	72	RC	1	0	23MC	0	1	1.12625098228	295.0	232.0	None	None	0
1.7	2015_Jul_30_1306	s	s	9	3	SIC	73	ABS	1	0	24MC	0	1	0.230492115021	None	None	None	None	1
1.7	2015_Jul_30_1306	s	s	9	3	SIC	74	ABS	0	2	24RD	0	1	0.726680994034	None	None	None	None	1
1.7	2015_Jul_30_1306	s	s	9	3	SIC	75	RC	0	1	23RO	0	1	5.284471035	106.0	-350.0	None	None	0
1.7	2015_Jul_30_1306	s	s	9	3	SIC	76	ABS	1	2	24MD	0	1	4.79937791824	None	None	None	None	1
1.7	2015_Jul_30_1306	s	s	9	3	SIC	77	ABS	2	0	24VC	0	1	0.587901830673	None	None	None	None	1
1.7	2015_Jul_30_1306	s	s	9	3	SIC	78	RC	2	1	23VO	1	0	0.59627699852	-535.0	87.0	-532	85	1
1.7	2015_Jul_30_1306	s	s	9	3	SIC	79	RC	0	2	23RD	1	0	0.726763963699	44.0	-143.0	42	-142	1
1.7	2015_Jul_30_1306	s	s	9	3	SIC	80	RC	2	0	23VC	1	0	0.525728940964	352.0	-19.0	348	-17	1
1.7	2015_Jul_30_1306	s	s	9	3	SIC	81	ABS	1	1	24MO	0	1	0.776199102402	None	None	None	None	1
1.7	2015_Jul_30_1306	s	s	9	3	SIC	82	RC	2	0	23VC	1	0	0.491328954697	442.0	-239.0	440	-238	1
1.7	2015_Jul_30_1306	s	s	9	3	SIC	83	RC	0	1	23RO	0	1	1.18343091011	47.0	-386.0	None	None	0
1.7	2015_Jul_30_1306	s	s	9	3	SIC	84	RC	0	2	23RD	1	0	0.769430160522	-304.0	175.0	-312	176	1
1.7	2015_Jul_30_1306	s	s	9	3	SIC	85	ABS	0	2	24RD	0	1	0.717401981354	None	None	None	None	1
1.7	2015_Jul_30_1306	s	s	9	3	SIC	86	RC	2	1	23VO	1	0	0.988066911697	-451.0	326.0	-454	317	1
1.7	2015_Jul_30_1306	s	s	9	3	SIC	87	ABS	2	0	24VC	0	1	0.511756181717	None	None	None	None	1
1.7	2015_Jul_30_1306	s	s	9	3	SIC	88	RC	1	0	23MC	0	1	0.750147819519	-474.0	97.0	None	None	0
1.7	2015_Jul_30_1306	s	s	9	3	SIC	89	ABS	2	2	24VD	0	1	0.593916893005	None	None	None	None	1
1.7	2015_Jul_30_1306	s	s	9	3	SIC	90	RC	1	1	23MO	1	0	1.05872416496	-532.0	350.0	-530	346	1
1.7	2015_Jul_30_1306	s	s	9	3	SIC	91	ABS	2	1	24VO	0	1	1.18823003769	None	None	None	None	1
1.7	2015_Jul_30_1306	s	s	9	3	SIC	92	ABS	0	1	24RO	0	1	0.843372106552	None	None	None	None	1
1.7	2015_Jul_30_1306	s	s	9	3	SIC	93	RC	1	2	23MD	1	0	0.787983894348	374.0	-196.0	371	-202	1
1.7	2015_Jul_30_1306	s	s	9	3	SIC	94	RC	2	2	23VD	1	0	0.665761947632	417.0	-158.0	418	-163	1
1.7	2015_Jul_30_1306	s	s	9	3	SIC	95	ABS	1	2	24MD	0	1	1.01899909973	None	None	None	None	1
1.7	2015_Jul_30_1306	s	s	9	3	SIC	96	ABS	1	0	24MC	0	1	2.77477502823	None	None	None	None	1
1.7	2015_Jul_30_1306	s	s	9	3	SIC	97	RC	0	1	23RO	1	0	3.02224206924	232.0	-377.0	235	-389	1
1.7	2015_Jul_30_1306	s	s	9	3	SIC	98	ABS	2	1	24VO	0	1	0.423164844513	None	None	None	None	1
1.7	2015_Jul_30_1306	s	s	9	3	SIC	99	ABS	1	1	24MO	0	1	0.493726015091	None	None	None	None	1
1.7	2015_Jul_30_1306	s	s	9	3	SIC	100	RC	1	1	23MO	0	1	0.431203126907	529.0	348.0	None	None	0
1.7	2015_Jul_30_1306	s	s	9	3	SIC	101	RC	1	2	23MD	1	0	0.756479978561	222.0	214.0	218	211	1
1.7	2015_Jul_30_1306	s	s	9	3	SIC	102	ABS	0	2	24RD	0	1	0.541244983673	None	None	None	None	1
1.7	2015_Jul_30_1306	s	s	9	3	SIC	103	RC	0	2	23RD	0	1	0.182456016541	508.0	-256.0	None	None	0
1.7	2015_Jul_30_1306	s	s	9	3	SIC	104	RC	1	0	23MC	0	1	0.564409971237	-224.0	-94.0	None	None	0
1.7	2015_Jul_30_1306	s	s	9	3	SIC	105	RC	2	1	23VO	0	1	0.0902459621429	21.0	-153.0	None	None	0
1.7	2015_Jul_30_1306	s	s	9	3	SIC	106	ABS	0	1	24RO	0	1	0.811544179916	None	None	None	None	1
1.7	2015_Jul_30_1306	s	s	9	3	SIC	107	RC	2	0	23VC	1	0	0.505509138107	-252.0	57.0	-246	61	1
1.7	2015_Jul_30_1306	s	s	9	3	SIC	108	ABS	1	2	24MD	0	1	0.513617992401	None	None	None	None	1
1.7	2015_Jul_30_1306	s	s	9	3	SIC	109	ABS	2	2	24VD	0	1	0.540746927261	None	None	None	None	1
1.7	2015_Jul_30_1306	s	s	9	3	SIC	110	RC	2	2	23VD	1	0	0.512405157089	-40.0	198.0	-41	192	1
1.7	2015_Jul_30_1306	s	s	9	3	SIC	111	ABS	2	0	24VC	0	1	0.611392974854	None	None	None	None	1
1.7	2015_Jul_30_1306	s	s	9	3	SIC	112	ABS	1	0	24MC	0	1	1.14812803268	None	None	None	None	1
1.7	2015_Jul_30_1306	s	s	9	3	SIC	113	RC	2	2	23VD	1	0	0.717381000519	-519.0	-160.0	-518	-158	1
1.7	2015_Jul_30_1306	s	s	9	3	SIC	114	ABS	0	1	24RO	0	1	1.31245017052	None	None	None	None	1
1.7	2015_Jul_30_1306	s	s	9	3	SIC	115	RC	0	2	23RD	1	0	0.787981033325	534.0	-276.0	534	-281	1
1.7	2015_Jul_30_1306	s	s	9	3	SIC	116	ABS	2	2	24VD	0	1	0.525182962418	None	None	None	None	1
1.7	2015_Jul_30_1306	s	s	9	3	SIC	117	RC	1	0	23MC	1	0	0.996674060822	-406.0	-162.0	-412	-158	1
1.7	2015_Jul_30_1306	s	s	9	3	SIC	118	ABS	1	2	24MD	0	1	4.09551405907	None	None	None	None	1
1.7	2015_Jul_30_1306	s	s	9	3	SIC	119	RC	1	1	23MO	0	1	18.2674200535	220.0	315.0	None	None	0
1.7	2015_Jul_30_1306	s	s	9	3	SIC	120	RC	1	2	23MD	1	0	0.572367191315	-248.0	76.0	-240	77	1
1.7	2015_Jul_30_1306	s	s	9	3	SIC	121	ABS	0	2	24RD	0	1	2.43579387665	None	None	None	None	1
1.7	2015_Jul_30_1306	s	s	9	3	SIC	122	ABS	1	0	24MC	0	1	0.952774047852	None	None	None	None	1
1.7	2015_Jul_30_1306	s	s	9	3	SIC	123	RC	2	0	23VC	1	0	0.57205915451	-295.0	193.0	-289	191	1
1.7	2015_Jul_30_1306	s	s	9	3	SIC	124	RC	2	1	23VO	1	0	0.665218830109	202.0	-78.0	204	-80	1
1.7	2015_Jul_30_1306	s	s	9	3	SIC	125	ABS	1	1	24MO	0	1	1.37642598152	None	None	None	None	1
1.7	2015_Jul_30_1306	s	s	9	3	SIC	126	ABS	2	1	24VO	0	1	0.493740081787	None	None	None	None	1
1.7	2015_Jul_30_1306	s	s	9	3	SIC	127	RC	0	1	23RO	1	0	1.53335905075	-431.0	137.0	-424	132	1
1.7	2015_Jul_30_1306	s	s	9	3	SIC	128	ABS	2	0	24VC	0	1	0.787871837616	None	None	None	None	1
1.7	2015_Jul_30_1306	s	s	9	3	SIC	129	RC	0	2	23RD	1	0	1.04425907135	276.0	263.0	271	254	1
1.7	2015_Jul_30_1306	s	s	9	3	SIC	130	ABS	1	0	24MC	0	1	1.68033099174	None	None	None	None	1
1.7	2015_Jul_30_1306	s	s	9	3	SIC	131	ABS	1	1	24MO	0	1	0.758952140808	None	None	None	None	1
1.7	2015_Jul_30_1306	s	s	9	3	SIC	132	RC	1	1	23MO	0	1	0.584184885025	-90.0	334.0	None	None	0
1.7	2015_Jul_30_1306	s	s	9	3	SIC	133	RC	2	1	23VO	0	1	0.241581916809	75.0	238.0	None	None	0
1.7	2015_Jul_30_1306	s	s	9	3	SIC	134	RC	1	0	23MC	0	1	0.359655857086	118.0	289.0	None	None	0
1.7	2015_Jul_30_1306	s	s	9	3	SIC	135	RC	1	2	23MD	1	0	0.797030925751	-214.0	83.0	-208	76	1
1.7	2015_Jul_30_1306	s	s	9	3	SIC	136	RC	0	1	23RO	0	1	0.540768861771	-41.0	-177.0	None	None	0
1.7	2015_Jul_30_1306	s	s	9	3	SIC	137	ABS	0	2	24RD	0	1	0.500293016434	None	None	None	None	1
1.7	2015_Jul_30_1306	s	s	9	3	SIC	138	RC	2	0	23VC	1	0	0.59949016571	-440.0	231.0	-438	233	1
1.7	2015_Jul_30_1306	s	s	9	3	SIC	139	ABS	0	1	24RO	0	1	0.500339984894	None	None	None	None	1
1.7	2015_Jul_30_1306	s	s	9	3	SIC	140	ABS	2	0	24VC	0	1	0.964630842209	None	None	None	None	1
1.7	2015_Jul_30_1306	s	s	9	3	SIC	141	ABS	2	1	24VO	0	1	12.6684179306	None	None	None	None	1
1.7	2015_Jul_30_1306	s	s	9	3	SIC	142	ABS	2	2	24VD	1	0	0.411174058914	None	None	-42	20	0
1.7	2015_Jul_30_1306	s	s	9	3	SIC	143	RC	2	2	23VD	0	1	0.446535110474	533.0	10.0	None	None	0
1.7	2015_Jul_30_1306	s	s	9	3	SIC	144	ABS	1	2	24MD	0	1	0.693936109543	None	None	None	None	1
1.7	2015_Jul_30_1306	s	s	9	3	SIC	145	ABS	0	2	24RD	0	1	0.540673017502	None	None	None	None	1
1.7	2015_Jul_30_1306	s	s	9	3	SIC	146	ABS	2	2	24VD	0	1	0.450421094894	None	None	None	None	1
1.7	2015_Jul_30_1306	s	s	9	3	SIC	147	RC	1	2	23MD	0	1	0.230164051056	249.0	224.0	None	None	0
1.7	2015_Jul_30_1306	s	s	9	3	SIC	148	ABS	2	1	24VO	0	1	0.240841150284	None	None	None	None	1
1.7	2015_Jul_30_1306	s	s	9	3	SIC	149	RC	1	0	23MC	0	1	0.77664899826	303.0	59.0	None	None	0
1.7	2015_Jul_30_1306	s	s	9	3	SIC	150	ABS	1	0	24MC	0	1	0.941049098969	None	None	None	None	1
1.7	2015_Jul_30_1306	s	s	9	3	SIC	151	ABS	1	1	24MO	0	1	0.470290184021	None	None	None	None	1
1.7	2015_Jul_30_1306	s	s	9	3	SIC	152	RC	0	2	23RD	1	0	0.658520936966	-444.0	76.0	-438	73	1
1.7	2015_Jul_30_1306	s	s	9	3	SIC	153	ABS	1	2	24MD	0	1	0.795074224472	None	None	None	None	1
1.7	2015_Jul_30_1306	s	s	9	3	SIC	154	RC	2	0	23VC	1	0	0.571408033371	-113.0	277.0	-119	269	1
1.7	2015_Jul_30_1306	s	s	9	3	SIC	155	ABS	2	0	24VC	0	1	0.246561050415	None	None	None	None	1
1.7	2015_Jul_30_1306	s	s	9	3	SIC	156	RC	0	1	23RO	0	1	0.45844912529	522.0	-12.0	None	None	0
1.7	2015_Jul_30_1306	s	s	9	3	SIC	157	ABS	0	1	24RO	0	1	0.199270963669	None	None	None	None	1
1.7	2015_Jul_30_1306	s	s	9	3	SIC	158	RC	2	2	23VD	0	1	0.223091125488	246.0	-181.0	None	None	0
1.7	2015_Jul_30_1306	s	s	9	3	SIC	159	RC	1	1	23MO	0	1	0.211298942566	-183.0	50.0	None	None	0
1.7	2015_Jul_30_1306	s	s	9	3	SIC	160	RC	2	1	23VO	0	1	0.490885019302	22.0	308.0	None	None	0
1.7	2015_Jul_30_1306	s	s	9	3	SIC	161	RC	0	2	23RD	0	1	0.220879793167	-285.0	229.0	None	None	0
1.7	2015_Jul_30_1306	s	s	9	3	SIC	162	ABS	2	2	24VD	0	1	0.194807052612	None	None	None	None	1
1.7	2015_Jul_30_1306	s	s	9	3	SIC	163	RC	0	1	23RO	0	1	0.585158824921	432.0	265.0	None	None	0
1.7	2015_Jul_30_1306	s	s	9	3	SIC	164	RC	2	1	23VO	0	1	0.361091136932	-254.0	-59.0	None	None	0
1.7	2015_Jul_30_1306	s	s	9	3	SIC	165	RC	2	2	23VD	1	0	0.607182025909	-10.0	84.0	-12	81	1
1.7	2015_Jul_30_1306	s	s	9	3	SIC	166	RC	1	0	23MC	0	1	0.891793966293	-243.0	175.0	None	None	0
1.7	2015_Jul_30_1306	s	s	9	3	SIC	167	RC	1	1	23MO	0	1	0.705453872681	167.0	22.0	None	None	0
1.7	2015_Jul_30_1306	s	s	9	3	SIC	168	ABS	0	2	24RD	0	1	0.540621042252	None	None	None	None	1
1.7	2015_Jul_30_1306	s	s	9	3	SIC	169	ABS	2	0	24VC	0	1	0.535481929779	None	None	None	None	1
1.7	2015_Jul_30_1306	s	s	9	3	SIC	170	ABS	1	2	24MD	0	1	0.314450979233	None	None	None	None	1
1.7	2015_Jul_30_1306	s	s	9	3	SIC	171	RC	2	0	23VC	1	0	0.80664896965	-493.0	194.0	-496	190	1
1.7	2015_Jul_30_1306	s	s	9	3	SIC	172	RC	1	2	23MD	1	0	0.670377016068	-361.0	134.0	-355	133	1
1.7	2015_Jul_30_1306	s	s	9	3	SIC	173	ABS	1	1	24MO	0	1	1.1293759346	None	None	None	None	1
1.7	2015_Jul_30_1306	s	s	9	3	SIC	174	ABS	2	1	24VO	0	1	0.434870004654	None	None	None	None	1
1.7	2015_Jul_30_1306	s	s	9	3	SIC	175	ABS	0	1	24RO	0	1	1.47917604446	None	None	None	None	1
1.7	2015_Jul_30_1306	s	s	9	3	SIC	176	ABS	1	0	24MC	0	1	1.02717900276	None	None	None	None	1
1.7	2015_Jul_30_1306	s	s	9	3	SIC	177	ABS	0	2	24RD	0	1	0.264409065247	None	None	None	None	1
1.7	2015_Jul_30_1306	s	s	9	3	SIC	178	RC	2	2	23VD	1	0	0.597512960434	-258.0	39.0	-247	43	1
1.7	2015_Jul_30_1306	s	s	9	3	SIC	179	RC	1	2	23MD	1	0	0.682074069977	100.0	-259.0	102	-257	1
1.7	2015_Jul_30_1306	s	s	9	3	SIC	180	ABS	1	0	24MC	0	1	0.576014041901	None	None	None	None	1
1.7	2015_Jul_30_1306	s	s	9	3	SIC	181	ABS	1	1	24MO	0	0	-1	None	None	None	None	-1
1.7	2015_Jul_30_1306	s	s	9	3	SIC	182	RC	0	2	23RD	1	0	7.64542198181	-267.0	122.0	-272	113	1
1.7	2015_Jul_30_1306	s	s	9	3	SIC	183	ABS	2	2	24VD	0	1	0.535228967667	None	None	None	None	1
1.7	2015_Jul_30_1306	s	s	9	3	SIC	184	ABS	2	0	24VC	0	1	0.587734937668	None	None	None	None	1
1.7	2015_Jul_30_1306	s	s	9	3	SIC	185	RC	0	1	23RO	0	1	0.630370855331	316.0	196.0	None	None	0
1.7	2015_Jul_30_1306	s	s	9	3	SIC	186	RC	2	1	23VO	1	0	0.705580949783	422.0	-134.0	430	-137	1
1.7	2015_Jul_30_1306	s	s	9	3	SIC	187	RC	1	1	23MO	0	1	0.646701812744	-169.0	-216.0	None	None	0
1.7	2015_Jul_30_1306	s	s	9	3	SIC	188	ABS	1	2	24MD	0	1	0.647000789642	None	None	None	None	1
1.7	2015_Jul_30_1306	s	s	9	3	SIC	189	ABS	2	1	24VO	0	1	0.658558130264	None	None	None	None	1
1.7	2015_Jul_30_1306	s	s	9	3	SIC	190	RC	2	0	23VC	1	0	0.682144880295	79.0	-334.0	78	-333	1
1.7	2015_Jul_30_1306	s	s	9	3	SIC	191	RC	1	0	23MC	0	1	0.57609796524	187.0	50.0	None	None	0
1.7	2015_Jul_30_1306	s	s	9	3	SIC	192	ABS	0	1	24RO	0	1	1.10586309433	None	None	None	None	1
1.7	2015_Jul_30_1306	s	s	9	3	SIC	193	ABS	1	2	24MD	0	1	0.658580064774	None	None	None	None	1
1.7	2015_Jul_30_1306	s	s	9	3	SIC	194	RC	2	2	23VD	1	0	0.677109956741	-445.0	100.0	-444	97	1
1.7	2015_Jul_30_1306	s	s	9	3	SIC	195	ABS	1	1	24MO	0	1	0.750458955765	None	None	None	None	1
1.7	2015_Jul_30_1306	s	s	9	3	SIC	196	RC	2	1	23VO	1	0	0.831824064255	71.0	-326.0	70	-323	1
1.7	2015_Jul_30_1306	s	s	9	3	SIC	197	ABS	1	0	24MC	0	1	1.37654304504	None	None	None	None	1
1.7	2015_Jul_30_1306	s	s	9	3	SIC	198	RC	1	0	23MC	0	1	1.44091510773	382.0	-89.0	None	None	0
1.7	2015_Jul_30_1306	s	s	9	3	SIC	199	RC	0	2	23RD	1	0	0.623119115829	-194.0	58.0	-206	62	1
1.7	2015_Jul_30_1306	s	s	9	3	SIC	200	ABS	2	0	24VC	0	1	0.823223829269	None	None	None	None	1
1.7	2015_Jul_30_1306	s	s	9	3	SIC	201	RC	1	2	23MD	1	0	0.682146072388	35.0	-271.0	40	-264	1
1.7	2015_Jul_30_1306	s	s	9	3	SIC	202	ABS	0	1	24RO	0	1	0.19952583313	None	None	None	None	1
1.7	2015_Jul_30_1306	s	s	9	3	SIC	203	ABS	0	2	24RD	0	1	0.18280506134	None	None	None	None	1
1.7	2015_Jul_30_1306	s	s	9	3	SIC	204	RC	1	1	23MO	0	1	0.255077838898	-506.0	257.0	None	None	0
1.7	2015_Jul_30_1306	s	s	9	3	SIC	205	ABS	2	1	24VO	0	1	1.30356192589	None	None	None	None	1
1.7	2015_Jul_30_1306	s	s	9	3	SIC	206	ABS	2	2	24VD	0	1	0.891342163086	None	None	None	None	1
1.7	2015_Jul_30_1306	s	s	9	3	SIC	207	RC	0	1	23RO	0	1	0.732841014862	304.0	-319.0	None	None	0
1.7	2015_Jul_30_1306	s	s	9	3	SIC	208	RC	2	0	23VC	0	1	0.211258172989	-12.0	-279.0	None	None	0
1.7	2015_Jul_30_1306	s	s	9	3	SIC	209	RC	0	2	23RD	0	1	0.787980079651	407.0	-292.0	None	None	0
1.7	2015_Jul_30_1306	s	s	9	3	SIC	210	RC	1	1	23MO	0	1	1.3142080307	-367.0	304.0	None	None	0
1.7	2015_Jul_30_1306	s	s	9	3	SIC	211	RC	2	2	23VD	0	1	0.736543893814	252.0	166.0	None	None	0
1.7	2015_Jul_30_1306	s	s	9	3	SIC	212	ABS	1	1	24MO	0	1	0.752682924271	None	None	None	None	1
1.7	2015_Jul_30_1306	s	s	9	3	SIC	213	ABS	1	0	24MC	0	1	2.28991699219	None	None	None	None	1
1.7	2015_Jul_30_1306	s	s	9	3	SIC	214	RC	2	1	23VO	0	1	4.7076420784	-507.0	351.0	None	None	0
1.7	2015_Jul_30_1306	s	s	9	3	SIC	215	RC	1	0	23MC	0	1	2.12988901138	-129.0	180.0	None	None	0
1.7	2015_Jul_30_1306	s	s	9	3	SIC	216	RC	1	2	23MD	1	0	0.670240879059	-540.0	-77.0	-549	-79	1
1.7	2015_Jul_30_1306	s	s	9	3	SIC	217	ABS	0	2	24RD	0	1	0.641759157181	None	None	None	None	1
1.7	2015_Jul_30_1306	s	s	9	3	SIC	218	ABS	2	2	24VD	0	1	0.487972974777	None	None	None	None	1
1.7	2015_Jul_30_1306	s	s	9	3	SIC	219	ABS	2	0	24VC	0	1	0.808348894119	None	None	None	None	1
1.7	2015_Jul_30_1306	s	s	9	3	SIC	220	ABS	2	1	24VO	0	1	0.540853977203	None	None	None	None	1
1.7	2015_Jul_30_1306	s	s	9	3	SIC	221	ABS	1	2	24MD	0	1	1.19479608536	None	None	None	None	1
1.7	2015_Jul_30_1306	s	s	9	3	SIC	222	ABS	0	1	24RO	0	1	1.31767392159	None	None	None	None	1
1.7	2015_Jul_30_1306	s	s	9	3	SIC	223	RC	2	0	23VC	1	0	0.84354019165	-292.0	320.0	-292	316	1
1.7	2015_Jul_30_1306	s	s	9	3	SIC	224	RC	0	1	23RO	1	0	1.094009161	19.0	132.0	13	128	1
1.7	2015_Jul_30_1306	s	s	9	3	SIC	225	ABS	1	1	24MO	0	1	0.952754974365	None	None	None	None	1
1.7	2015_Jul_30_1306	s	s	9	3	SIC	226	ABS	0	2	24RD	0	1	0.712594032288	None	None	None	None	1
1.7	2015_Jul_30_1306	s	s	9	3	SIC	227	ABS	0	1	24RO	0	1	1.37644100189	None	None	None	None	1
1.7	2015_Jul_30_1306	s	s	9	3	SIC	228	RC	1	0	23MC	1	0	1.84732079506	-44.0	-36.0	-38	-37	1
1.7	2015_Jul_30_1306	s	s	9	3	SIC	229	ABS	1	2	24MD	0	1	1.49423789978	None	None	None	None	1
1.7	2015_Jul_30_1306	s	s	9	3	SIC	230	ABS	2	0	24VC	0	1	1.04182887077	None	None	None	None	1
1.7	2015_Jul_30_1306	s	s	9	3	SIC	231	RC	1	2	23MD	1	0	0.705490112305	-94.0	367.0	-100	365	1
1.7	2015_Jul_30_1306	s	s	9	3	SIC	232	RC	0	2	23RD	0	1	0.550122976303	-359.0	-313.0	None	None	0
1.7	2015_Jul_30_1306	s	s	9	3	SIC	233	RC	1	1	23MO	1	0	0.809470891953	-262.0	-152.0	-254	-154	1
1.7	2015_Jul_30_1306	s	s	9	3	SIC	234	RC	2	0	23VC	1	0	0.564332962036	-429.0	240.0	-432	244	1
1.7	2015_Jul_30_1306	s	s	9	3	SIC	235	RC	2	1	23VO	1	0	0.611195087433	347.0	260.0	343	256	1
1.7	2015_Jul_30_1306	s	s	9	3	SIC	236	RC	2	2	23VD	1	0	0.618969917297	-416.0	149.0	-411	143	1
1.7	2015_Jul_30_1306	s	s	9	3	SIC	237	ABS	2	2	24VD	0	1	0.585685014725	None	None	None	None	1
1.7	2015_Jul_30_1306	s	s	9	3	SIC	238	ABS	1	0	24MC	0	1	9.99833703041	None	None	None	None	1
1.7	2015_Jul_30_1306	s	s	9	3	SIC	239	ABS	2	1	24VO	0	1	2.20045304298	None	None	None	None	1
1.7	2015_Jul_30_1306	s	s	9	3	SIC	240	RC	0	1	23RO	0	1	0.481981039047	181.0	-257.0	None	None	0
1.7	2015_Jul_30_1306	s	s	9	3	SIC	241	ABS	2	1	24VO	0	1	1.28232908249	None	None	None	None	1
1.7	2015_Jul_30_1306	s	s	9	3	SIC	242	RC	1	2	23MD	0	1	3.10681986809	445.0	194.0	None	None	0
1.7	2015_Jul_30_1306	s	s	9	3	SIC	243	RC	1	1	23MO	0	1	0.788004159927	423.0	207.0	None	None	0
1.7	2015_Jul_30_1306	s	s	9	3	SIC	244	RC	2	1	23VO	0	1	0.359488964081	-100.0	410.0	None	None	0
1.7	2015_Jul_30_1306	s	s	9	3	SIC	245	RC	2	2	23VD	1	0	0.559283018112	-299.0	209.0	-300	214	1
1.7	2015_Jul_30_1306	s	s	9	3	SIC	246	ABS	0	2	24RD	0	1	0.787976026535	None	None	None	None	1
1.7	2015_Jul_30_1306	s	s	9	3	SIC	247	ABS	1	0	24MC	0	1	0.340669870377	None	None	None	None	1
1.7	2015_Jul_30_1306	s	s	9	3	SIC	248	RC	1	0	23MC	0	1	0.564320087433	-478.0	-328.0	None	None	0
1.7	2015_Jul_30_1306	s	s	9	3	SIC	249	RC	0	1	23RO	0	1	0.564228057861	406.0	-114.0	None	None	0
1.7	2015_Jul_30_1306	s	s	9	3	SIC	250	ABS	2	0	24VC	0	1	0.515162944794	None	None	None	None	1
1.7	2015_Jul_30_1306	s	s	9	3	SIC	251	RC	0	2	23RD	1	0	0.681986093521	-113.0	-225.0	-110	-229	1
1.7	2015_Jul_30_1306	s	s	9	3	SIC	252	ABS	1	1	24MO	0	1	0.771069049835	None	None	None	None	1
1.7	2015_Jul_30_1306	s	s	9	3	SIC	253	ABS	1	2	24MD	0	1	0.523464918137	None	None	None	None	1
1.7	2015_Jul_30_1306	s	s	9	3	SIC	254	ABS	2	2	24VD	0	1	0.371091127396	None	None	None	None	1
1.7	2015_Jul_30_1306	s	s	9	3	SIC	255	ABS	0	1	24RO	0	1	0.854423999786	None	None	None	None	1
1.7	2015_Jul_30_1306	s	s	9	3	SIC	256	RC	2	0	23VC	1	0	0.705631017685	318.0	2.0	317	0	1
1.7	2015_Jul_30_1306	s	s	9	3	SIC	257	ABS	0	2	24RD	0	1	0.552417039871	None	None	None	None	1
1.7	2015_Jul_30_1306	s	s	9	3	SIC	258	RC	0	2	23RD	1	0	0.528921127319	141.0	327.0	140	324	1
1.7	2015_Jul_30_1306	s	s	9	3	SIC	259	ABS	2	0	24VC	0	1	0.690622091293	None	None	None	None	1
1.7	2015_Jul_30_1306	s	s	9	3	SIC	260	RC	1	0	23MC	1	0	0.658565044403	-232.0	-354.0	44	-15	0
1.7	2015_Jul_30_1306	s	s	9	3	SIC	261	ABS	2	1	24VO	0	1	0.776189088821	None	None	None	None	1
1.7	2015_Jul_30_1306	s	s	9	3	SIC	262	ABS	2	2	24VD	0	1	0.785372972488	None	None	None	None	1
1.7	2015_Jul_30_1306	s	s	9	3	SIC	263	RC	2	1	23VO	1	0	0.618525981903	-511.0	274.0	-508	275	1
1.7	2015_Jul_30_1306	s	s	9	3	SIC	264	ABS	1	0	24MC	0	1	0.623057126999	None	None	None	None	1
1.7	2015_Jul_30_1306	s	s	9	3	SIC	265	RC	2	2	23VD	1	0	0.608602046967	427.0	363.0	428	359	1
1.7	2015_Jul_30_1306	s	s	9	3	SIC	266	RC	1	2	23MD	1	0	0.620541095734	470.0	-207.0	470	-202	1
1.7	2015_Jul_30_1306	s	s	9	3	SIC	267	ABS	1	2	24MD	0	1	0.631507873535	None	None	None	None	1
1.7	2015_Jul_30_1306	s	s	9	3	SIC	268	ABS	0	1	24RO	0	1	1.03324103355	None	None	None	None	1
1.7	2015_Jul_30_1306	s	s	9	3	SIC	269	RC	1	1	23MO	1	0	1.09397387505	131.0	220.0	130	220	1
1.7	2015_Jul_30_1306	s	s	9	3	SIC	270	ABS	1	1	24MO	0	1	0.844485998154	None	None	None	None	1
1.7	2015_Jul_30_1306	s	s	9	3	SIC	271	RC	0	1	23RO	0	1	0.855842113495	-109.0	-410.0	None	None	0
1.7	2015_Jul_30_1306	s	s	9	3	SIC	272	RC	2	0	23VC	1	0	0.596841096878	205.0	243.0	204	238	1
1.7	2015_Jul_30_1306	s	s	9	3	SIC	273	RC	1	0	23MC	1	0	0.70002412796	-104.0	324.0	-110	319	1
1.7	2015_Jul_30_1306	s	s	9	3	SIC	274	RC	2	2	23VD	1	0	0.537178039551	-253.0	329.0	-249	329	1
1.7	2015_Jul_30_1306	s	s	9	3	SIC	275	ABS	0	2	24RD	0	1	0.773468017578	None	None	None	None	1
1.7	2015_Jul_30_1306	s	s	9	3	SIC	276	RC	2	1	23VO	1	0	11.7582108974	-222.0	-334.0	-225	-335	1
1.7	2015_Jul_30_1306	s	s	9	3	SIC	277	ABS	1	2	24MD	0	1	0.734456062317	None	None	None	None	1
1.7	2015_Jul_30_1306	s	s	9	3	SIC	278	ABS	2	0	24VC	0	1	0.693736076355	None	None	None	None	1
1.7	2015_Jul_30_1306	s	s	9	3	SIC	279	RC	2	0	23VC	0	0	-1	273.0	338.0	None	None	-1
1.7	2015_Jul_30_1306	s	s	9	3	SIC	280	ABS	1	1	24MO	0	1	7.43838787079	None	None	None	None	1
1.7	2015_Jul_30_1306	s	s	9	3	SIC	281	ABS	2	2	24VD	0	1	0.478785037994	None	None	None	None	1
1.7	2015_Jul_30_1306	s	s	9	3	SIC	282	RC	0	2	23RD	1	0	0.608180046082	36.0	360.0	27	358	1
1.7	2015_Jul_30_1306	s	s	9	3	SIC	283	RC	0	1	23RO	0	1	0.288190126419	-475.0	-307.0	None	None	0
1.7	2015_Jul_30_1306	s	s	9	3	SIC	284	ABS	1	0	24MC	0	1	0.334552049637	None	None	None	None	1
1.7	2015_Jul_30_1306	s	s	9	3	SIC	285	ABS	0	1	24RO	0	1	1.55973601341	None	None	None	None	1
1.7	2015_Jul_30_1306	s	s	9	3	SIC	286	RC	1	1	23MO	0	1	2.37693715096	429.0	-214.0	None	None	0
1.7	2015_Jul_30_1306	s	s	9	3	SIC	287	ABS	2	1	24VO	0	1	1.31320714951	None	None	None	None	1
1.7	2015_Jul_30_1306	s	s	9	3	SIC	288	RC	1	2	23MD	0	1	4.84872698784	310.0	187.0	None	None	0
1.7	2015_Jul_30_1306	s	s	9	3	SIC	289	ABS	0	1	24RO	0	1	4.05483984947	None	None	None	None	1
1.7	2015_Jul_30_1306	s	s	9	3	SIC	290	ABS	2	0	24VC	0	1	4.095484972	None	None	None	None	1
1.7	2015_Jul_30_1306	s	s	9	3	SIC	291	ABS	0	2	24RD	0	1	17.672960043	None	None	None	None	1
1.7	2015_Jul_30_1306	s	s	9	3	SIC	292	ABS	1	2	24MD	0	1	0.677823781967	None	None	None	None	1
1.7	2015_Jul_30_1306	s	s	9	3	SIC	293	RC	1	0	23MC	1	0	0.618129014969	-250.0	154.0	-255	162	1
1.7	2015_Jul_30_1306	s	s	9	3	SIC	294	RC	1	1	23MO	0	1	0.147053003311	352.0	-86.0	None	None	0
1.7	2015_Jul_30_1306	s	s	9	3	SIC	295	ABS	2	1	24VO	0	1	0.324062824249	None	None	None	None	1
1.7	2015_Jul_30_1306	s	s	9	3	SIC	296	ABS	1	1	24MO	0	1	0.340576887131	None	None	None	None	1
1.7	2015_Jul_30_1306	s	s	9	3	SIC	297	RC	2	2	23VD	0	1	0.289983034134	-331.0	-298.0	None	None	0
1.7	2015_Jul_30_1306	s	s	9	3	SIC	298	RC	2	0	23VC	0	1	0.246589899063	-192.0	192.0	None	None	0
1.7	2015_Jul_30_1306	s	s	9	3	SIC	299	ABS	1	0	24MC	0	1	0.658491134644	None	None	None	None	1
1.7	2015_Jul_30_1306	s	s	9	3	SIC	300	RC	1	2	23MD	0	1	0.429873943329	100.0	-58.0	None	None	0
1.7	2015_Jul_30_1306	s	s	9	3	SIC	301	RC	0	2	23RD	0	1	0.429366827011	520.0	221.0	None	None	0
1.7	2015_Jul_30_1306	s	s	9	3	SIC	302	RC	2	1	23VO	0	1	0.266733169556	-528.0	-235.0	None	None	0
1.7	2015_Jul_30_1306	s	s	9	3	SIC	303	ABS	2	2	24VD	0	1	0.17354798317	None	None	None	None	1
1.7	2015_Jul_30_1306	s	s	9	3	SIC	304	RC	0	1	23RO	0	1	0.289448976517	333.0	7.0	None	None	0
1.7	2015_Jul_30_1306	s	s	9	3	SIC	305	RC	1	0	23MC	0	1	0.362270832062	-326.0	-133.0	None	None	0
1.7	2015_Jul_30_1306	s	s	9	3	SIC	306	ABS	2	1	24VO	0	1	0.552578926086	None	None	None	None	1
1.7	2015_Jul_30_1306	s	s	9	3	SIC	307	RC	1	2	23MD	0	1	0.125766038895	-12.0	142.0	None	None	0
1.7	2015_Jul_30_1306	s	s	9	3	SIC	308	ABS	2	2	24VD	0	1	0.222990989685	None	None	None	None	1
1.7	2015_Jul_30_1306	s	s	9	3	SIC	309	RC	2	0	23VC	0	1	0.446635961533	97.0	-108.0	None	None	0
1.7	2015_Jul_30_1306	s	s	9	3	SIC	310	ABS	1	2	24MD	0	1	0.281715869904	None	None	None	None	1
1.7	2015_Jul_30_1306	s	s	9	3	SIC	311	RC	1	1	23MO	0	1	0.576154947281	-353.0	-262.0	None	None	0
1.7	2015_Jul_30_1306	s	s	9	3	SIC	312	ABS	2	0	24VC	0	1	0.113858938217	None	None	None	None	1
1.7	2015_Jul_30_1306	s	s	9	3	SIC	313	RC	0	2	23RD	1	0	0.811583042145	-298.0	-97.0	-293	-105	1
1.7	2015_Jul_30_1306	s	s	9	3	SIC	314	ABS	0	2	24RD	0	1	0.175926923752	None	None	None	None	1
1.7	2015_Jul_30_1306	s	s	9	3	SIC	315	RC	0	1	23RO	0	1	0.282226085663	69.0	232.0	None	None	0
1.7	2015_Jul_30_1306	s	s	9	3	SIC	316	RC	2	1	23VO	1	0	0.784612894058	472.0	142.0	466	135	1
1.7	2015_Jul_30_1306	s	s	9	3	SIC	317	ABS	1	0	24MC	0	1	0.300468921661	None	None	None	None	1
1.7	2015_Jul_30_1306	s	s	9	3	SIC	318	ABS	0	1	24RO	0	1	0.199398040771	None	None	None	None	1
1.7	2015_Jul_30_1306	s	s	9	3	SIC	319	RC	2	2	23VD	0	1	0.22962808609	249.0	252.0	None	None	0
1.7	2015_Jul_30_1306	s	s	9	3	SIC	320	ABS	1	1	24MO	0	1	0.278544902802	None	None	None	None	1
1.7	2015_Jul_30_1306	s	s	9	3	SIC	321	RC	2	1	23VO	1	0	0.677790164948	437.0	-123.0	428	-124	1
1.7	2015_Jul_30_1306	s	s	9	3	SIC	322	RC	1	2	23MD	1	0	0.571353912354	-174.0	361.0	-178	369	1
1.7	2015_Jul_30_1306	s	s	9	3	SIC	323	RC	0	1	23RO	0	1	0.771030187607	-285.0	-11.0	None	None	0
1.7	2015_Jul_30_1306	s	s	9	3	SIC	324	ABS	1	0	24MC	0	1	0.205104112625	None	None	None	None	1
1.7	2015_Jul_30_1306	s	s	9	3	SIC	325	ABS	2	0	24VC	0	1	0.905756950378	None	None	None	None	1
1.7	2015_Jul_30_1306	s	s	9	3	SIC	326	ABS	2	2	24VD	0	1	0.594699859619	None	None	None	None	1
1.7	2015_Jul_30_1306	s	s	9	3	SIC	327	ABS	2	1	24VO	0	1	1.03084111214	None	None	None	None	1
1.7	2015_Jul_30_1306	s	s	9	3	SIC	328	RC	2	2	23VD	0	1	0.185286045074	150.0	401.0	None	None	0
1.7	2015_Jul_30_1306	s	s	9	3	SIC	329	ABS	1	1	24MO	0	1	2.00034594536	None	None	None	None	1
1.7	2015_Jul_30_1306	s	s	9	3	SIC	330	RC	1	0	23MC	0	1	1.27723002434	385.0	134.0	None	None	0
1.7	2015_Jul_30_1306	s	s	9	3	SIC	331	RC	2	0	23VC	0	1	5.22154903412	477.0	-407.0	None	None	0
1.7	2015_Jul_30_1306	s	s	9	3	SIC	332	RC	0	2	23RD	0	1	0.467111110687	-468.0	92.0	None	None	0
1.7	2015_Jul_30_1306	s	s	9	3	SIC	333	ABS	0	2	24RD	0	1	1.07053613663	None	None	None	None	1
1.7	2015_Jul_30_1306	s	s	9	3	SIC	334	ABS	0	1	24RO	0	1	12.5703699589	None	None	None	None	1
1.7	2015_Jul_30_1306	s	s	9	3	SIC	335	ABS	1	2	24MD	0	1	1.04333901405	None	None	None	None	1
1.7	2015_Jul_30_1306	s	s	9	3	SIC	336	RC	1	1	23MO	0	1	1.12699198723	352.0	-321.0	None	None	0
1.7	2015_Jul_30_1306	s	s	9	3	SIC	337	ABS	1	0	24MC	0	1	2.23083901405	None	None	None	None	1
1.7	2015_Jul_30_1306	s	s	9	3	SIC	338	RC	2	2	23VD	0	1	1.57172107697	-525.0	-379.0	None	None	0
1.7	2015_Jul_30_1306	s	s	9	3	SIC	339	RC	1	1	23MO	0	1	1.74955391884	-179.0	-136.0	None	None	0
1.7	2015_Jul_30_1306	s	s	9	3	SIC	340	ABS	0	1	24RO	0	1	2.41909003258	None	None	None	None	1
1.7	2015_Jul_30_1306	s	s	9	3	SIC	341	RC	2	0	23VC	0	1	5.04411005974	-163.0	-74.0	None	None	0
1.7	2015_Jul_30_1306	s	s	9	3	SIC	342	RC	2	1	23VO	0	1	4.34275603294	-185.0	105.0	None	None	0
1.7	2015_Jul_30_1306	s	s	9	3	SIC	343	ABS	2	0	24VC	0	1	0.877784967422	None	None	None	None	1
1.7	2015_Jul_30_1306	s	s	9	3	SIC	344	ABS	1	1	24MO	0	1	0.646739006042	None	None	None	None	1
1.7	2015_Jul_30_1306	s	s	9	3	SIC	345	ABS	2	2	24VD	0	1	2.77476000786	None	None	None	None	1
1.7	2015_Jul_30_1306	s	s	9	3	SIC	346	ABS	2	1	24VO	0	1	0.540781021118	None	None	None	None	1
1.7	2015_Jul_30_1306	s	s	9	3	SIC	347	RC	0	2	23RD	0	1	1.32439208031	147.0	305.0	None	None	0
1.7	2015_Jul_30_1306	s	s	9	3	SIC	348	ABS	0	2	24RD	0	1	0.682509899139	None	None	None	None	1
1.7	2015_Jul_30_1306	s	s	9	3	SIC	349	RC	0	1	23RO	0	1	0.62318778038	103.0	179.0	None	None	0
1.7	2015_Jul_30_1306	s	s	9	3	SIC	350	ABS	1	2	24MD	0	1	0.764419794083	None	None	None	None	1
1.7	2015_Jul_30_1306	s	s	9	3	SIC	351	RC	1	0	23MC	0	1	0.114804983139	-538.0	-269.0	None	None	0
1.7	2015_Jul_30_1306	s	s	9	3	SIC	352	RC	1	2	23MD	0	1	1.74136686325	-313.0	-158.0	None	None	0
1.7	2015_Jul_30_1306	s	s	9	3	SIC	353	RC	1	1	23MO	0	1	0.594564199448	357.0	-192.0	None	None	0
1.7	2015_Jul_30_1306	s	s	9	3	SIC	354	RC	0	2	23RD	0	1	0.232097864151	254.0	-55.0	None	None	0
1.7	2015_Jul_30_1306	s	s	9	3	SIC	355	RC	2	1	23VO	0	1	0.429567098618	-240.0	-281.0	None	None	0
1.7	2015_Jul_30_1306	s	s	9	3	SIC	356	RC	2	0	23VC	0	1	0.217590093613	-352.0	193.0	None	None	0
1.7	2015_Jul_30_1306	s	s	9	3	SIC	357	ABS	0	1	24RO	0	1	0.611371994019	None	None	None	None	1
1.7	2015_Jul_30_1306	s	s	9	3	SIC	358	ABS	0	2	24RD	0	1	0.305599927902	None	None	None	None	1
1.7	2015_Jul_30_1306	s	s	9	3	SIC	359	RC	2	2	23VD	0	1	0.156183958054	-73.0	-84.0	None	None	0
1.7	2015_Jul_30_1306	s	s	9	3	SIC	360	ABS	2	1	24VO	0	1	0.265530109406	None	None	None	None	1
1.7	2015_Jul_30_1306	s	s	9	3	SIC	361	ABS	2	2	24VD	0	1	0.0557870864868	None	None	None	None	1
1.7	2015_Jul_30_1306	s	s	9	3	SIC	362	RC	1	2	23MD	0	1	0.195004940033	-84.0	-187.0	None	None	0
1.7	2015_Jul_30_1306	s	s	9	3	SIC	363	ABS	2	0	24VC	0	1	0.0581970214844	None	None	None	None	1
1.7	2015_Jul_30_1306	s	s	9	3	SIC	364	ABS	1	1	24MO	0	1	0.376018047333	None	None	None	None	1
1.7	2015_Jul_30_1306	s	s	9	3	SIC	365	ABS	1	2	24MD	0	1	0.387848854065	None	None	None	None	1
1.7	2015_Jul_30_1306	s	s	9	3	SIC	366	ABS	1	0	24MC	0	1	0.11160492897	None	None	None	None	1
1.7	2015_Jul_30_1306	s	s	9	3	SIC	367	RC	0	1	23RO	0	1	0.206207036972	-461.0	-53.0	None	None	0
1.7	2015_Jul_30_1306	s	s	9	3	SIC	368	RC	1	0	23MC	0	1	0.229753017426	-262.0	-280.0	None	None	0
1.7	2015_Jul_30_1306	s	s	9	3	SIC	369	ABS	0	1	24RO	0	1	0.38307094574	None	None	None	None	1
1.7	2015_Jul_30_1306	s	s	9	3	SIC	370	RC	1	1	23MO	0	1	0.348783969879	-81.0	326.0	None	None	0
1.7	2015_Jul_30_1306	s	s	9	3	SIC	371	RC	2	1	23VO	0	1	0.31401515007	-512.0	-48.0	None	None	0
1.7	2015_Jul_30_1306	s	s	9	3	SIC	372	ABS	1	0	24MC	0	1	0.658447027206	None	None	None	None	1
1.7	2015_Jul_30_1306	s	s	9	3	SIC	373	RC	1	0	23MC	0	1	0.444486856461	328.0	-95.0	None	None	0
1.7	2015_Jul_30_1306	s	s	9	3	SIC	374	ABS	0	2	24RD	0	1	0.606993913651	None	None	None	None	1
1.7	2015_Jul_30_1306	s	s	9	3	SIC	375	ABS	2	0	24VC	0	1	0.253218173981	None	None	None	None	1
1.7	2015_Jul_30_1306	s	s	9	3	SIC	376	ABS	1	1	24MO	0	1	0.430361032486	None	None	None	None	1
1.7	2015_Jul_30_1306	s	s	9	3	SIC	377	RC	1	2	23MD	0	1	0.458485126495	468.0	-242.0	None	None	0
1.7	2015_Jul_30_1306	s	s	9	3	SIC	378	RC	2	2	23VD	0	1	0.855911970139	357.0	236.0	None	None	0
1.7	2015_Jul_30_1306	s	s	9	3	SIC	379	RC	0	1	23RO	0	1	0.220839977264	373.0	17.0	None	None	0
1.7	2015_Jul_30_1306	s	s	9	3	SIC	380	ABS	2	1	24VO	0	1	0.411342859268	None	None	None	None	1
1.7	2015_Jul_30_1306	s	s	9	3	SIC	381	RC	0	2	23RD	0	1	0.281854152679	471.0	-40.0	None	None	0
1.7	2015_Jul_30_1306	s	s	9	3	SIC	382	RC	2	0	23VC	0	1	0.205806016922	71.0	-274.0	None	None	0
1.7	2015_Jul_30_1306	s	s	9	3	SIC	383	ABS	1	2	24MD	0	1	0.100409984589	None	None	None	None	1
1.7	2015_Jul_30_1306	s	s	9	3	SIC	384	ABS	2	2	24VD	0	1	0.290331125259	None	None	None	None	1
1.7	2015_Jul_30_1306	s	s	9	3	SIC	385	ABS	0	1	24RO	0	1	0.126744031906	None	None	None	None	1
1.7	2015_Jul_30_1306	s	s	9	3	SIC	386	RC	0	1	23RO	0	1	0.382284879684	429.0	45.0	None	None	0
1.7	2015_Jul_30_1306	s	s	9	3	SIC	387	ABS	1	1	24MO	0	1	0.385740041733	None	None	None	None	1
1.7	2015_Jul_30_1306	s	s	9	3	SIC	388	RC	1	2	23MD	0	1	0.113557100296	-103.0	245.0	None	None	0
1.7	2015_Jul_30_1306	s	s	9	3	SIC	389	RC	2	2	23VD	0	1	0.238507032394	445.0	-291.0	None	None	0
1.7	2015_Jul_30_1306	s	s	9	3	SIC	390	ABS	2	2	24VD	0	1	0.291501045227	None	None	None	None	1
1.7	2015_Jul_30_1306	s	s	9	3	SIC	391	RC	1	1	23MO	0	1	0.373682022095	-447.0	248.0	None	None	0
1.7	2015_Jul_30_1306	s	s	9	3	SIC	392	ABS	2	1	24VO	0	1	0.112385034561	None	None	None	None	1
1.7	2015_Jul_30_1306	s	s	9	3	SIC	393	ABS	0	2	24RD	0	1	0.4885160923	None	None	None	None	1
1.7	2015_Jul_30_1306	s	s	9	3	SIC	394	ABS	2	0	24VC	0	1	0.270094156265	None	None	None	None	1
1.7	2015_Jul_30_1306	s	s	9	3	SIC	395	ABS	1	0	24MC	0	1	0.277200937271	None	None	None	None	1
1.7	2015_Jul_30_1306	s	s	9	3	SIC	396	ABS	1	2	24MD	0	1	0.352365970612	None	None	None	None	1
1.7	2015_Jul_30_1306	s	s	9	3	SIC	397	RC	0	2	23RD	0	1	0.288552045822	389.0	28.0	None	None	0
1.7	2015_Jul_30_1306	s	s	9	3	SIC	398	RC	1	0	23MC	0	1	0.453630924225	-424.0	-142.0	None	None	0
1.7	2015_Jul_30_1306	s	s	9	3	SIC	399	RC	2	0	23VC	0	1	0.458225011826	184.0	-157.0	None	None	0
1.7	2015_Jul_30_1306	s	s	9	3	SIC	400	RC	2	1	23VO	0	1	0.56120300293	-145.0	196.0	None	None	0
1.7	2015_Jul_30_1306	s	s	9	3	SIC	401	ABS	2	1	24VO	1	0	0.609124183655	None	None	60	12	0
1.7	2015_Jul_30_1306	s	s	9	3	SIC	402	ABS	1	2	24MD	0	1	0.290248155594	None	None	None	None	1
1.7	2015_Jul_30_1306	s	s	9	3	SIC	403	ABS	2	2	24VD	0	1	1.22975802422	None	None	None	None	1
1.7	2015_Jul_30_1306	s	s	9	3	SIC	404	RC	2	0	23VC	0	1	0.264611959457	296.0	265.0	None	None	0
1.7	2015_Jul_30_1306	s	s	9	3	SIC	405	RC	0	1	23RO	0	1	0.171144008636	-131.0	-363.0	None	None	0
1.7	2015_Jul_30_1306	s	s	9	3	SIC	406	ABS	0	1	24RO	0	1	0.0699231624603	None	None	None	None	1
1.7	2015_Jul_30_1306	s	s	9	3	SIC	407	RC	2	2	23VD	0	1	0.44656085968	-514.0	281.0	None	None	0
1.7	2015_Jul_30_1306	s	s	9	3	SIC	408	ABS	1	0	24MC	0	1	0.0671148300171	None	None	None	None	1
1.7	2015_Jul_30_1306	s	s	9	3	SIC	409	ABS	0	2	24RD	0	1	0.0421319007874	None	None	None	None	1
1.7	2015_Jul_30_1306	s	s	9	3	SIC	410	RC	1	1	23MO	0	1	0.246544122696	296.0	-388.0	None	None	0
1.7	2015_Jul_30_1306	s	s	9	3	SIC	411	RC	1	2	23MD	0	1	0.234823942184	-329.0	103.0	None	None	0
1.7	2015_Jul_30_1306	s	s	9	3	SIC	412	RC	2	1	23VO	0	1	0.352411985397	-97.0	-383.0	None	None	0
1.7	2015_Jul_30_1306	s	s	9	3	SIC	413	RC	0	2	23RD	0	1	0.328933000565	-20.0	99.0	None	None	0
1.7	2015_Jul_30_1306	s	s	9	3	SIC	414	ABS	2	0	24VC	0	1	0.0817079544067	None	None	None	None	1
1.7	2015_Jul_30_1306	s	s	9	3	SIC	415	RC	1	0	23MC	0	1	0.30028295517	-51.0	-400.0	None	None	0
1.7	2015_Jul_30_1306	s	s	9	3	SIC	416	ABS	1	1	24MO	0	1	0.361749172211	None	None	None	None	1
1.7	2015_Jul_30_1306	s	s	9	3	SIC	417	ABS	0	2	24RD	0	1	0.676929950714	None	None	None	None	1
1.7	2015_Jul_30_1306	s	s	9	3	SIC	418	RC	1	0	23MC	0	1	0.0201559066772	91.0	112.0	None	None	0
1.7	2015_Jul_30_1306	s	s	9	3	SIC	419	ABS	1	1	24MO	0	1	0.246374130249	None	None	None	None	1
1.7	2015_Jul_30_1306	s	s	9	3	SIC	420	ABS	2	2	24VD	0	1	0.29132604599	None	None	None	None	1
1.7	2015_Jul_30_1306	s	s	9	3	SIC	421	RC	1	1	23MO	0	1	0.211205005646	-505.0	-232.0	None	None	0
1.7	2015_Jul_30_1306	s	s	9	3	SIC	422	ABS	2	0	24VC	0	1	0.219566106796	None	None	None	None	1
1.7	2015_Jul_30_1306	s	s	9	3	SIC	423	ABS	1	0	24MC	0	1	0.206278800964	None	None	None	None	1
1.7	2015_Jul_30_1306	s	s	9	3	SIC	424	RC	2	0	23VC	0	1	0.291398048401	-245.0	-337.0	None	None	0
1.7	2015_Jul_30_1306	s	s	9	3	SIC	425	RC	2	2	23VD	0	1	0.328920841217	437.0	258.0	None	None	0
1.7	2015_Jul_30_1306	s	s	9	3	SIC	426	RC	0	2	23RD	0	1	0.258219003677	-228.0	102.0	None	None	0
1.7	2015_Jul_30_1306	s	s	9	3	SIC	427	RC	1	2	23MD	0	1	0.787986040115	-176.0	205.0	None	None	0
1.7	2015_Jul_30_1306	s	s	9	3	SIC	428	ABS	0	1	24RO	0	1	0.665289878845	None	None	None	None	1
1.7	2015_Jul_30_1306	s	s	9	3	SIC	429	ABS	1	2	24MD	0	1	0.540656089783	None	None	None	None	1
1.7	2015_Jul_30_1306	s	s	9	3	SIC	430	RC	2	1	23VO	0	1	0.312377929688	486.0	276.0	None	None	0
1.7	2015_Jul_30_1306	s	s	9	3	SIC	431	ABS	2	1	24VO	0	1	0.335678100586	None	None	None	None	1
1.7	2015_Jul_30_1306	s	s	9	3	SIC	432	RC	0	1	23RO	0	1	0.269959926605	-338.0	-281.0	None	None	0
1.7	2015_Jul_30_1306	s	s	9	3	SIC	433	ABS	1	0	24MC	0	1	0.211287021637	None	None	None	None	1
1.7	2015_Jul_30_1306	s	s	9	3	SIC	434	ABS	0	1	24RO	0	1	0.290457010269	None	None	None	None	1
1.7	2015_Jul_30_1306	s	s	9	3	SIC	435	ABS	2	1	24VO	0	1	0.488211870193	None	None	None	None	1
1.7	2015_Jul_30_1306	s	s	9	3	SIC	436	RC	0	1	23RO	0	1	0.481910943985	171.0	-321.0	None	None	0
1.7	2015_Jul_30_1306	s	s	9	3	SIC	437	ABS	1	1	24MO	0	1	0.497966051102	None	None	None	None	1
1.7	2015_Jul_30_1306	s	s	9	3	SIC	438	ABS	2	0	24VC	0	1	0.609132051468	None	None	None	None	1
1.7	2015_Jul_30_1306	s	s	9	3	SIC	439	RC	2	2	23VD	0	1	0.269946813583	312.0	392.0	None	None	0
1.7	2015_Jul_30_1306	s	s	9	3	SIC	440	RC	1	1	23MO	0	1	0.199413061142	42.0	-31.0	None	None	0
1.7	2015_Jul_30_1306	s	s	9	3	SIC	441	RC	1	0	23MC	0	1	0.209155082703	1.0	272.0	None	None	0
1.7	2015_Jul_30_1306	s	s	9	3	SIC	442	ABS	0	2	24RD	0	1	0.467846155167	None	None	None	None	1
1.7	2015_Jul_30_1306	s	s	9	3	SIC	443	RC	2	0	23VC	0	1	0.488240003586	420.0	353.0	None	None	0
1.7	2015_Jul_30_1306	s	s	9	3	SIC	444	RC	2	1	23VO	0	1	0.223002195358	0.0	-115.0	None	None	0
1.7	2015_Jul_30_1306	s	s	9	3	SIC	445	ABS	2	2	24VD	0	1	0.276854038239	None	None	None	None	1
1.7	2015_Jul_30_1306	s	s	9	3	SIC	446	ABS	1	2	24MD	0	1	0.246443986893	None	None	None	None	1
1.7	2015_Jul_30_1306	s	s	9	3	SIC	447	RC	1	2	23MD	0	1	0.47672700882	3.0	-145.0	None	None	0
1.7	2015_Jul_30_1306	s	s	9	3	SIC	448	RC	0	2	23RD	0	1	0.305493116379	61.0	322.0	None	None	0
1.7	2015_Jul_30_1306	s	s	9	3	SIC	449	RC	0	2	23RD	0	1	0.126502037048	34.0	-30.0	None	None	0
1.7	2015_Jul_30_1306	s	s	9	3	SIC	450	ABS	1	0	24MC	0	1	0.164177179337	None	None	None	None	1
1.7	2015_Jul_30_1306	s	s	9	3	SIC	451	RC	2	2	23VD	0	1	0.325580835342	-148.0	-191.0	None	None	0
1.7	2015_Jul_30_1306	s	s	9	3	SIC	452	ABS	0	1	24RO	0	1	0.454436063766	None	None	None	None	1
1.7	2015_Jul_30_1306	s	s	9	3	SIC	453	RC	1	0	23MC	0	1	0.128899097443	413.0	67.0	None	None	0
1.7	2015_Jul_30_1306	s	s	9	3	SIC	454	ABS	0	2	24RD	0	1	0.352645158768	None	None	None	None	1
1.7	2015_Jul_30_1306	s	s	9	3	SIC	455	RC	1	1	23MO	0	1	0.313657999039	-43.0	109.0	None	None	0
1.7	2015_Jul_30_1306	s	s	9	3	SIC	456	RC	1	2	23MD	0	1	0.25843501091	-46.0	-94.0	None	None	0
1.7	2015_Jul_30_1306	s	s	9	3	SIC	457	ABS	1	1	24MO	0	1	0.0997650623322	None	None	None	None	1
1.7	2015_Jul_30_1306	s	s	9	3	SIC	458	ABS	2	2	24VD	0	1	0.312655925751	None	None	None	None	1
1.7	2015_Jul_30_1306	s	s	9	3	SIC	459	ABS	1	2	24MD	0	1	0.430423021317	None	None	None	None	1
1.7	2015_Jul_30_1306	s	s	9	3	SIC	460	RC	0	1	23RO	0	1	0.324009895325	-479.0	-93.0	None	None	0
1.7	2015_Jul_30_1306	s	s	9	3	SIC	461	RC	2	0	23VC	0	1	0.512776851654	-74.0	-159.0	None	None	0
1.7	2015_Jul_30_1306	s	s	9	3	SIC	462	RC	2	1	23VO	0	1	0.438592910767	-335.0	346.0	None	None	0
1.7	2015_Jul_30_1306	s	s	9	3	SIC	463	ABS	2	1	24VO	0	1	0.458244085312	None	None	None	None	1
1.7	2015_Jul_30_1306	s	s	9	3	SIC	464	ABS	2	0	24VC	0	1	0.59956908226	None	None	None	None	1
1.7	2015_Jul_30_1306	s	s	9	3	SIC	465	ABS	0	1	24RO	0	1	0.51339507103	None	None	None	None	1
1.7	2015_Jul_30_1306	s	s	9	3	SIC	466	RC	0	2	23RD	0	1	0.208039999008	-440.0	145.0	None	None	0
1.7	2015_Jul_30_1306	s	s	9	3	SIC	467	RC	1	0	23MC	0	1	0.150126934052	-438.0	-300.0	None	None	0
1.7	2015_Jul_30_1306	s	s	9	3	SIC	468	ABS	2	0	24VC	0	1	0.265764951706	None	None	None	None	1
1.7	2015_Jul_30_1306	s	s	9	3	SIC	469	ABS	1	1	24MO	0	1	0.288464069366	None	None	None	None	1
1.7	2015_Jul_30_1306	s	s	9	3	SIC	470	ABS	2	2	24VD	0	1	0.776262998581	None	None	None	None	1
1.7	2015_Jul_30_1306	s	s	9	3	SIC	471	RC	2	2	23VD	0	1	0.364254951477	-238.0	196.0	None	None	0
1.7	2015_Jul_30_1306	s	s	9	3	SIC	472	ABS	2	1	24VO	0	1	0.138236999512	None	None	None	None	1
1.7	2015_Jul_30_1306	s	s	9	3	SIC	473	RC	1	2	23MD	0	1	0.564373016357	-263.0	-218.0	None	None	0
1.7	2015_Jul_30_1306	s	s	9	3	SIC	474	RC	0	1	23RO	0	1	0.0347669124603	-93.0	-264.0	None	None	0
1.7	2015_Jul_30_1306	s	s	9	3	SIC	475	ABS	1	2	24MD	0	1	0.194693803787	None	None	None	None	1
1.7	2015_Jul_30_1306	s	s	9	3	SIC	476	ABS	0	2	24RD	0	1	0.270139217377	None	None	None	None	1
1.7	2015_Jul_30_1306	s	s	9	3	SIC	477	ABS	1	0	24MC	0	1	0.420995950699	None	None	None	None	1
1.7	2015_Jul_30_1306	s	s	9	3	SIC	478	RC	1	1	23MO	0	1	0.279684066772	-375.0	-60.0	None	None	0
1.7	2015_Jul_30_1306	s	s	9	3	SIC	479	RC	2	0	23VC	0	1	0.394683122635	-399.0	275.0	None	None	0
1.7	2015_Jul_30_1306	s	s	9	3	SIC	480	RC	2	1	23VO	0	1	0.347608089447	294.0	222.0	None	None	0
1.7	2015_Jul_30_1306	s	s	9	3	SIC	481	RC	0	1	23RO	0	1	0.00972414016724	24.0	397.0	None	None	0
1.7	2015_Jul_30_1306	s	s	9	3	SIC	482	RC	0	2	23RD	0	1	0.220669031143	436.0	-269.0	None	None	0
1.7	2015_Jul_30_1306	s	s	9	3	SIC	483	ABS	2	1	24VO	0	1	0.289757966995	None	None	None	None	1
1.7	2015_Jul_30_1306	s	s	9	3	SIC	484	ABS	2	0	24VC	0	1	0.254157781601	None	None	None	None	1
1.7	2015_Jul_30_1306	s	s	9	3	SIC	485	ABS	2	2	24VD	0	1	0.206701993942	None	None	None	None	1
1.7	2015_Jul_30_1306	s	s	9	3	SIC	486	RC	2	2	23VD	0	1	0.211274147034	-51.0	-363.0	None	None	0
1.7	2015_Jul_30_1306	s	s	9	3	SIC	487	RC	1	2	23MD	0	1	0.290368080139	412.0	-13.0	None	None	0
1.7	2015_Jul_30_1306	s	s	9	3	SIC	488	ABS	0	2	24RD	0	1	0.129312038422	None	None	None	None	1
1.7	2015_Jul_30_1306	s	s	9	3	SIC	489	RC	2	0	23VC	0	1	0.0347311496735	217.0	-309.0	None	None	0
1.7	2015_Jul_30_1306	s	s	9	3	SIC	490	RC	2	1	23VO	0	1	0.126577854156	-289.0	290.0	None	None	0
1.7	2015_Jul_30_1306	s	s	9	3	SIC	491	RC	1	1	23MO	0	1	0.279083013535	204.0	-223.0	None	None	0
1.7	2015_Jul_30_1306	s	s	9	3	SIC	492	ABS	1	2	24MD	0	1	0.105278015137	None	None	None	None	1
1.7	2015_Jul_30_1306	s	s	9	3	SIC	493	RC	1	0	23MC	0	1	0.370638132095	280.0	333.0	None	None	0
1.7	2015_Jul_30_1306	s	s	9	3	SIC	494	ABS	1	0	24MC	0	1	0.265358924866	None	None	None	None	1
1.7	2015_Jul_30_1306	s	s	9	3	SIC	495	ABS	1	1	24MO	0	1	0.373638868332	None	None	None	None	1
1.7	2015_Jul_30_1306	s	s	9	3	SIC	496	ABS	0	1	24RO	0	1	0.0783190727234	None	None	None	None	1
1.7	2015_Jul_30_1306	s	s	9	3	SIC	497	ABS	2	1	24VO	0	1	0.356385946274	None	None	None	None	1
1.7	2015_Jul_30_1306	s	s	9	3	SIC	498	ABS	1	2	24MD	0	1	0.246500015259	None	None	None	None	1
1.7	2015_Jul_30_1306	s	s	9	3	SIC	499	RC	1	2	23MD	0	1	0.270088911057	-127.0	-165.0	None	None	0
1.7	2015_Jul_30_1306	s	s	9	3	SIC	500	ABS	2	2	24VD	0	1	0.223032951355	None	None	None	None	1
1.7	2015_Jul_30_1306	s	s	9	3	SIC	501	RC	2	1	23VO	0	1	0.117043018341	-207.0	402.0	None	None	0
1.7	2015_Jul_30_1306	s	s	9	3	SIC	502	ABS	0	2	24RD	0	1	0.194836139679	None	None	None	None	1
1.7	2015_Jul_30_1306	s	s	9	3	SIC	503	ABS	1	1	24MO	0	1	0.152385950089	None	None	None	None	1
1.7	2015_Jul_30_1306	s	s	9	3	SIC	504	RC	1	1	23MO	0	1	1.43113303185	376.0	91.0	None	None	0
1.7	2015_Jul_30_1306	s	s	9	3	SIC	505	ABS	2	0	24VC	0	1	3.62851715088	None	None	None	None	1
1.7	2015_Jul_30_1306	s	s	9	3	SIC	506	RC	2	0	23VC	0	1	3.50708198547	-297.0	269.0	None	None	0
1.7	2015_Jul_30_1306	s	s	9	3	SIC	507	RC	1	0	23MC	0	1	1.99651789665	60.0	343.0	None	None	0
1.7	2015_Jul_30_1306	s	s	9	3	SIC	508	RC	0	1	23RO	0	1	0.418133020401	-333.0	218.0	None	None	0
1.7	2015_Jul_30_1306	s	s	9	3	SIC	509	ABS	1	0	24MC	0	1	1.83178186417	None	None	None	None	1
1.7	2015_Jul_30_1306	s	s	9	3	SIC	510	RC	0	2	23RD	0	1	0.22297501564	-184.0	-48.0	None	None	0
1.7	2015_Jul_30_1306	s	s	9	3	SIC	511	ABS	0	1	24RO	0	1	0.988070964813	None	None	None	None	1
1.7	2015_Jul_30_1306	s	s	9	3	SIC	512	RC	2	2	23VD	0	1	0.453408956528	302.0	275.0	None	None	0
1.7	2015_Jul_30_1306	s	s	9	3	SIC	513	ABS	2	0	24VC	0	1	0.324248075485	None	None	None	None	1
1.7	2015_Jul_30_1306	s	s	9	3	SIC	514	RC	0	2	23RD	0	1	0.603440999985	483.0	-128.0	None	None	0
1.7	2015_Jul_30_1306	s	s	9	3	SIC	515	RC	1	0	23MC	0	1	0.199456930161	58.0	-379.0	None	None	0
1.7	2015_Jul_30_1306	s	s	9	3	SIC	516	RC	1	2	23MD	0	1	0.17596578598	-87.0	402.0	None	None	0
1.7	2015_Jul_30_1306	s	s	9	3	SIC	517	ABS	0	1	24RO	0	1	0.0676870346069	None	None	None	None	1
1.7	2015_Jul_30_1306	s	s	9	3	SIC	518	ABS	1	0	24MC	0	1	0.383741140366	None	None	None	None	1
1.7	2015_Jul_30_1306	s	s	9	3	SIC	519	ABS	0	2	24RD	0	1	0.185361862183	None	None	None	None	1
1.7	2015_Jul_30_1306	s	s	9	3	SIC	520	ABS	1	1	24MO	0	1	0.196043014526	None	None	None	None	1
1.7	2015_Jul_30_1306	s	s	9	3	SIC	521	RC	2	0	23VC	0	1	0.159388065338	-182.0	64.0	None	None	0
1.7	2015_Jul_30_1306	s	s	9	3	SIC	522	RC	2	1	23VO	0	1	2.83608388901	-487.0	216.0	None	None	0
1.7	2015_Jul_30_1306	s	s	9	3	SIC	523	RC	0	1	23RO	0	1	1.94973897934	-182.0	-185.0	None	None	0
1.7	2015_Jul_30_1306	s	s	9	3	SIC	524	RC	2	2	23VD	0	1	3.54928588867	209.0	-331.0	None	None	0
1.7	2015_Jul_30_1306	s	s	9	3	SIC	525	ABS	1	2	24MD	0	1	2.05443787575	None	None	None	None	1
1.7	2015_Jul_30_1306	s	s	9	3	SIC	526	ABS	2	1	24VO	0	1	1.19978499413	None	None	None	None	1
1.7	2015_Jul_30_1306	s	s	9	3	SIC	527	ABS	2	2	24VD	0	1	0.466757059097	None	None	None	None	1
1.7	2015_Jul_30_1306	s	s	9	3	SIC	528	RC	1	1	23MO	0	1	1.34116911888	-140.0	-279.0	None	None	0
1.7	2015_Jul_30_1306	s	s	9	3	SIC	529	ABS	0	1	24RO	0	1	1.45406007767	None	None	None	None	1
1.7	2015_Jul_30_1306	s	s	9	3	SIC	530	ABS	1	2	24MD	0	0	-1	None	None	None	None	-1
1.7	2015_Jul_30_1306	s	s	9	3	SIC	531	RC	2	2	23VD	0	0	-1	-67.0	-233.0	None	None	-1
1.7	2015_Jul_30_1306	s	s	9	3	SIC	532	RC	2	1	23VO	0	0	-1	345.0	26.0	None	None	-1
1.7	2015_Jul_30_1306	s	s	9	3	SIC	533	ABS	2	2	24VD	0	1	6.94402694702	None	None	None	None	1
1.7	2015_Jul_30_1306	s	s	9	3	SIC	534	ABS	1	0	24MC	0	1	0.0789279937744	None	None	None	None	1
1.7	2015_Jul_30_1306	s	s	9	3	SIC	535	ABS	2	1	24VO	0	1	2.22402191162	None	None	None	None	1
1.7	2015_Jul_30_1306	s	s	9	3	SIC	536	ABS	1	1	24MO	0	1	13.264841795	None	None	None	None	1
1.7	2015_Jul_30_1306	s	s	9	3	SIC	537	RC	0	2	23RD	0	1	2.63604688644	359.0	90.0	None	None	0
1.7	2015_Jul_30_1306	s	s	9	3	SIC	538	ABS	2	0	24VC	0	1	11.8123660088	None	None	None	None	1
1.7	2015_Jul_30_1306	s	s	9	3	SIC	539	ABS	0	2	24RD	0	1	1.88951301575	None	None	None	None	1
1.7	2015_Jul_30_1306	s	s	9	3	SIC	540	RC	0	1	23RO	0	1	0.666644096375	-36.0	-96.0	None	None	0
1.7	2015_Jul_30_1306	s	s	9	3	SIC	541	RC	1	2	23MD	0	1	12.6449270248	-421.0	-242.0	None	None	0
1.7	2015_Jul_30_1306	s	s	9	3	SIC	542	RC	1	0	23MC	0	1	3.89336109161	-11.0	139.0	None	None	0
1.7	2015_Jul_30_1306	s	s	9	3	SIC	543	RC	2	0	23VC	0	1	0.0904958248138	-508.0	-152.0	None	None	0
1.7	2015_Jul_30_1306	s	s	9	3	SIC	544	RC	1	1	23MO	0	1	0.82327914238	-205.0	243.0	None	None	0
1.7	2015_Jul_30_1306	s	s	9	3	SIC	545	RC	2	0	23VC	0	1	1.54781317711	127.0	-85.0	None	None	0
1.7	2015_Jul_30_1306	s	s	9	3	SIC	546	ABS	2	1	24VO	0	1	0.314893007278	None	None	None	None	1
1.7	2015_Jul_30_1306	s	s	9	3	SIC	547	RC	2	2	23VD	0	1	2.12978482246	143.0	-21.0	None	None	0
1.7	2015_Jul_30_1306	s	s	9	3	SIC	548	RC	2	1	23VO	0	1	0.994124889374	-244.0	233.0	None	None	0
1.7	2015_Jul_30_1306	s	s	9	3	SIC	549	RC	0	1	23RO	0	1	0.164092063904	-295.0	-357.0	None	None	0
1.7	2015_Jul_30_1306	s	s	9	3	SIC	550	ABS	1	0	24MC	0	1	0.335204124451	None	None	None	None	1
1.7	2015_Jul_30_1306	s	s	9	3	SIC	551	ABS	1	1	24MO	0	1	0.481775999069	None	None	None	None	1
1.7	2015_Jul_30_1306	s	s	9	3	SIC	552	RC	0	2	23RD	0	1	0.246556043625	-531.0	-297.0	None	None	0
1.7	2015_Jul_30_1306	s	s	9	3	SIC	553	RC	1	0	23MC	0	1	0.419201135635	36.0	-301.0	None	None	0
1.7	2015_Jul_30_1306	s	s	9	3	SIC	554	ABS	1	2	24MD	0	1	0.352420091629	None	None	None	None	1
1.7	2015_Jul_30_1306	s	s	9	3	SIC	555	ABS	0	1	24RO	0	1	0.493627071381	None	None	None	None	1
1.7	2015_Jul_30_1306	s	s	9	3	SIC	556	ABS	0	2	24RD	0	1	0.725308895111	None	None	None	None	1
1.7	2015_Jul_30_1306	s	s	9	3	SIC	557	RC	1	1	23MO	0	1	0.717339992523	-298.0	-306.0	None	None	0
1.7	2015_Jul_30_1306	s	s	9	3	SIC	558	ABS	2	2	24VD	0	1	0.476155996323	None	None	None	None	1
1.7	2015_Jul_30_1306	s	s	9	3	SIC	559	ABS	2	0	24VC	0	1	0.691715955734	None	None	None	None	1
1.7	2015_Jul_30_1306	s	s	9	3	SIC	560	RC	1	2	23MD	0	1	0.15226817131	-481.0	-8.0	None	None	0
1.7	2015_Jul_30_1306	s	s	9	3	SIC	561	ABS	2	2	24VD	0	1	0.32319688797	None	None	None	None	1
1.7	2015_Jul_30_1306	s	s	9	3	SIC	562	ABS	2	0	24VC	0	1	0.84686088562	None	None	None	None	1
1.7	2015_Jul_30_1306	s	s	9	3	SIC	563	RC	2	0	23VC	0	1	0.324443101883	284.0	-294.0	None	None	0
1.7	2015_Jul_30_1306	s	s	9	3	SIC	564	RC	1	1	23MO	0	1	3.38929820061	364.0	57.0	None	None	0
1.7	2015_Jul_30_1306	s	s	9	3	SIC	565	ABS	1	2	24MD	0	1	2.67968392372	None	None	None	None	1
1.7	2015_Jul_30_1306	s	s	9	3	SIC	566	RC	1	2	23MD	0	1	0.23482298851	-254.0	-154.0	None	None	0
1.7	2015_Jul_30_1306	s	s	9	3	SIC	567	RC	2	2	23VD	0	1	0.33825302124	-381.0	294.0	None	None	0
1.7	2015_Jul_30_1306	s	s	9	3	SIC	568	RC	1	0	23MC	0	1	0.547106027603	438.0	146.0	None	None	0
1.7	2015_Jul_30_1306	s	s	9	3	SIC	569	ABS	0	1	24RO	0	1	0.253433942795	None	None	None	None	1
1.7	2015_Jul_30_1306	s	s	9	3	SIC	570	RC	0	1	23RO	0	1	0.173372030258	110.0	-274.0	None	None	0
1.7	2015_Jul_30_1306	s	s	9	3	SIC	571	RC	0	2	23RD	0	1	0.234780073166	462.0	299.0	None	None	0
1.7	2015_Jul_30_1306	s	s	9	3	SIC	572	ABS	1	1	24MO	0	1	1.40675091743	None	None	None	None	1
1.7	2015_Jul_30_1306	s	s	9	3	SIC	573	ABS	0	2	24RD	0	1	0.243988990784	None	None	None	None	1
1.7	2015_Jul_30_1306	s	s	9	3	SIC	574	ABS	1	0	24MC	0	1	2.48672914505	None	None	None	None	1
1.7	2015_Jul_30_1306	s	s	9	3	SIC	575	RC	2	1	23VO	0	1	0.406399965286	300.0	138.0	None	None	0
1.7	2015_Jul_30_1306	s	s	9	3	SIC	576	ABS	2	1	24VO	0	1	1.27734208107	None	None	None	None	1
1.7	2015_Jul_30_1306	s	s	9	3	SIC	577	RC	0	1	23RO	0	1	19.5504419804	110.0	-287.0	None	None	0
1.7	2015_Jul_30_1306	s	s	9	3	SIC	578	ABS	0	1	24RO	0	1	0.705524921417	None	None	None	None	1
1.7	2015_Jul_30_1306	s	s	9	3	SIC	579	ABS	1	2	24MD	0	1	0.276999950409	None	None	None	None	1
1.7	2015_Jul_30_1306	s	s	9	3	SIC	580	ABS	2	1	24VO	0	1	0.242829084396	None	None	None	None	1
1.7	2015_Jul_30_1306	s	s	9	3	SIC	581	RC	1	0	23MC	0	1	0.0819628238678	-524.0	-398.0	None	None	0
1.7	2015_Jul_30_1306	s	s	9	3	SIC	582	RC	1	2	23MD	0	1	0.26996588707	448.0	-375.0	None	None	0
1.7	2015_Jul_30_1306	s	s	9	3	SIC	583	ABS	0	2	24RD	0	1	0.281924962997	None	None	None	None	1
1.7	2015_Jul_30_1306	s	s	9	3	SIC	584	ABS	2	2	24VD	0	1	0.0698699951172	None	None	None	None	1
1.7	2015_Jul_30_1306	s	s	9	3	SIC	585	ABS	1	0	24MC	0	1	0.152372121811	None	None	None	None	1
1.7	2015_Jul_30_1306	s	s	9	3	SIC	586	RC	2	1	23VO	0	1	0.232221841812	223.0	268.0	None	None	0
1.7	2015_Jul_30_1306	s	s	9	3	SIC	587	RC	1	1	23MO	0	1	0.301955938339	-230.0	-86.0	None	None	0
1.7	2015_Jul_30_1306	s	s	9	3	SIC	588	RC	2	2	23VD	0	1	0.199589014053	33.0	-14.0	None	None	0
1.7	2015_Jul_30_1306	s	s	9	3	SIC	589	ABS	2	0	24VC	0	1	0.211117982864	None	None	None	None	1
1.7	2015_Jul_30_1306	s	s	9	3	SIC	590	ABS	1	1	24MO	0	1	0.326427936554	None	None	None	None	1
1.7	2015_Jul_30_1306	s	s	9	3	SIC	591	RC	0	2	23RD	0	1	0.169738054276	202.0	336.0	None	None	0
1.7	2015_Jul_30_1306	s	s	9	3	SIC	592	RC	2	0	23VC	0	1	0.232190132141	370.0	-121.0	None	None	0
