Version	Date	Stimuli	Method	Subject	Session	Condition	Trial	Target	Channel1	Channel2	Distractors	LMouseButton	RMouseButton	RT	TargetX	TargetY	ResponseX	ResponseY	Correct
1.7	2015_Jul_27_1303	s	s	9	1	Capacity	1	RC	2	0	23VC	1	0	1.27678489685	-91.0	-411.0	-101	-407	1
1.7	2015_Jul_27_1303	s	s	9	1	Capacity	2	ABS	2	0	24VC	0	1	2.25454211235	None	None	None	None	1
1.7	2015_Jul_27_1303	s	s	9	1	Capacity	3	RC	1	0	23MC	1	0	4.42514586449	245.0	-197.0	244	-200	1
1.7	2015_Jul_27_1303	s	s	9	1	Capacity	4	ABS	1	0	24MC	0	1	7.97423505783	None	None	None	None	1
1.7	2015_Jul_27_1303	s	s	9	1	Capacity	5	RC	1	0	23MC	1	0	2.07110691071	80.0	-292.0	79	-298	1
1.7	2015_Jul_27_1303	s	s	9	1	Capacity	6	ABS	1	0	24MC	0	1	3.29021596909	None	None	None	None	1
1.7	2015_Jul_27_1303	s	s	9	1	Capacity	7	RC	2	0	23VC	1	0	1.75062608719	-92.0	371.0	-86	377	1
1.7	2015_Jul_27_1303	s	s	9	1	Capacity	8	ABS	2	0	24VC	0	1	1.19994282722	None	None	None	None	1
1.7	2015_Jul_27_1303	s	s	9	1	Capacity	9	ABS	1	0	24MC	1	0	9.6136097908	None	None	-228	231	0
1.7	2015_Jul_27_1303	s	s	9	1	Capacity	10	ABS	2	0	24VC	1	0	3.46641898155	None	None	-173	184	0
1.7	2015_Jul_27_1303	s	s	9	1	Capacity	11	RC	1	0	23MC	0	1	1.82381796837	-442.0	293.0	None	None	0
1.7	2015_Jul_27_1303	s	s	9	1	Capacity	12	RC	2	0	23VC	1	0	1.45603394508	196.0	120.0	196	113	1
1.7	2015_Jul_27_1303	s	s	9	1	Capacity	13	ABS	1	0	24MC	0	1	1.150151968	None	None	None	None	1
1.7	2015_Jul_27_1303	s	s	9	1	Capacity	14	RC	1	0	23MC	1	0	1.85295009613	402.0	-332.0	411	-327	1
1.7	2015_Jul_27_1303	s	s	9	1	Capacity	15	RC	2	0	23VC	1	0	1.32935714722	86.0	-125.0	90	-125	1
1.7	2015_Jul_27_1303	s	s	9	1	Capacity	16	ABS	2	0	24VC	0	1	1.38333296776	None	None	None	None	1
1.7	2015_Jul_27_1303	s	s	9	1	Capacity	17	RC	2	0	23VC	1	0	0.999861001968	-391.0	-345.0	-387	-355	1
1.7	2015_Jul_27_1303	s	s	9	1	Capacity	18	ABS	2	0	24VC	0	1	1.67097496986	None	None	None	None	1
1.7	2015_Jul_27_1303	s	s	9	1	Capacity	19	ABS	1	0	24MC	1	0	5.63757395744	None	None	461	332	0
1.7	2015_Jul_27_1303	s	s	9	1	Capacity	20	RC	1	0	23MC	1	0	1.37154603004	-516.0	-28.0	-518	-32	1
1.7	2015_Jul_27_1303	s	s	9	1	Capacity	21	ABS	1	0	24MC	1	0	3.342233181	None	None	394	408	0
1.7	2015_Jul_27_1303	s	s	9	1	Capacity	22	RC	2	0	23VC	1	0	1.66447901726	-176.0	-71.0	-165	-67	1
1.7	2015_Jul_27_1303	s	s	9	1	Capacity	23	ABS	2	0	24VC	0	1	2.63603711128	None	None	None	None	1
1.7	2015_Jul_27_1303	s	s	9	1	Capacity	24	RC	1	0	23MC	1	0	2.35106611252	106.0	-134.0	-516	9	0
1.7	2015_Jul_27_1303	s	s	9	1	Capacity	25	ABS	1	0	24MC	1	0	6.03807497025	None	None	-518	-37	0
1.7	2015_Jul_27_1303	s	s	9	1	Capacity	26	RC	1	0	23MC	1	0	1.78851008415	452.0	18.0	460	13	1
1.7	2015_Jul_27_1303	s	s	9	1	Capacity	27	RC	2	0	23VC	1	0	0.994331121445	-519.0	-5.0	-509	2	1
1.7	2015_Jul_27_1303	s	s	9	1	Capacity	28	ABS	2	0	24VC	0	1	1.43288302422	None	None	None	None	1
1.7	2015_Jul_27_1303	s	s	9	1	Capacity	29	ABS	1	0	24MC	1	0	3.41281509399	None	None	-405	332	0
1.7	2015_Jul_27_1303	s	s	9	1	Capacity	30	RC	1	0	23MC	1	0	3.26361203194	-102.0	-262.0	391	400	0
1.7	2015_Jul_27_1303	s	s	9	1	Capacity	31	RC	2	0	23VC	1	0	0.983151912689	-472.0	64.0	-462	68	1
1.7	2015_Jul_27_1303	s	s	9	1	Capacity	32	ABS	2	0	24VC	0	1	1.27062320709	None	None	None	None	1
1.7	2015_Jul_27_1303	s	s	9	1	Capacity	33	RC	1	0	23MC	1	0	2.9018881321	-161.0	-284.0	-336	356	0
1.7	2015_Jul_27_1303	s	s	9	1	Capacity	34	ABS	2	0	24VC	0	1	2.41220593452	None	None	None	None	1
1.7	2015_Jul_27_1303	s	s	9	1	Capacity	35	ABS	1	0	24MC	1	0	5.73164486885	None	None	-511	-68	0
1.7	2015_Jul_27_1303	s	s	9	1	Capacity	36	RC	2	0	23VC	1	0	1.85908794403	374.0	-324.0	369	-330	1
1.7	2015_Jul_27_1303	s	s	9	1	Capacity	37	RC	1	0	23MC	1	0	3.64024496078	-113.0	334.0	448	405	0
1.7	2015_Jul_27_1303	s	s	9	1	Capacity	38	ABS	2	0	24VC	0	1	2.1588139534	None	None	None	None	1
1.7	2015_Jul_27_1303	s	s	9	1	Capacity	39	RC	2	0	23VC	1	0	0.985555887222	-72.0	389.0	-77	385	1
1.7	2015_Jul_27_1303	s	s	9	1	Capacity	40	ABS	1	0	24MC	1	0	3.82040500641	None	None	217	373	0
1.7	2015_Jul_27_1303	s	s	9	1	Capacity	41	ABS	2	0	24VC	0	1	2.31809401512	None	None	None	None	1
1.7	2015_Jul_27_1303	s	s	9	1	Capacity	42	RC	2	0	23VC	1	0	1.00906991959	117.0	-290.0	124	-284	1
1.7	2015_Jul_27_1303	s	s	9	1	Capacity	43	ABS	1	0	24MC	1	0	7.57405400276	None	None	-492	392	0
1.7	2015_Jul_27_1303	s	s	9	1	Capacity	44	RC	1	0	23MC	1	0	1.99668717384	43.0	358.0	39	353	1
1.7	2015_Jul_27_1303	s	s	9	1	Capacity	45	ABS	2	0	24VC	0	1	1.29411101341	None	None	None	None	1
1.7	2015_Jul_27_1303	s	s	9	1	Capacity	46	ABS	1	0	24MC	1	0	6.50848507881	None	None	-37	30	0
1.7	2015_Jul_27_1303	s	s	9	1	Capacity	47	RC	1	0	23MC	1	0	1.45634508133	-434.0	24.0	-427	17	1
1.7	2015_Jul_27_1303	s	s	9	1	Capacity	48	RC	2	0	23VC	1	0	0.820047140121	534.0	-14.0	541	-15	1
1.7	2015_Jul_27_1303	s	s	9	1	Capacity	49	RC	2	0	23VC	1	0	0.882030963898	-8.0	105.0	0	106	1
1.7	2015_Jul_27_1303	s	s	9	1	Capacity	50	RC	1	0	23MC	1	0	1.55051112175	-67.0	290.0	-62	293	1
1.7	2015_Jul_27_1303	s	s	9	1	Capacity	51	ABS	2	0	24VC	0	1	2.22408604622	None	None	None	None	1
1.7	2015_Jul_27_1303	s	s	9	1	Capacity	52	ABS	1	0	24MC	1	0	4.80913901329	None	None	287	-69	0
1.7	2015_Jul_27_1303	s	s	9	1	Capacity	53	ABS	2	0	24VC	0	1	1.21837210655	None	None	None	None	1
1.7	2015_Jul_27_1303	s	s	9	1	Capacity	54	ABS	1	0	24MC	1	0	0.854224205017	None	None	-160	170	0
1.7	2015_Jul_27_1303	s	s	9	1	Capacity	55	RC	2	0	23VC	1	0	0.988077878952	537.0	230.0	542	231	1
1.7	2015_Jul_27_1303	s	s	9	1	Capacity	56	RC	1	0	23MC	1	0	4.67226004601	-327.0	-350.0	492	62	0
1.7	2015_Jul_27_1303	s	s	9	1	Capacity	57	RC	1	0	23MC	1	0	1.85914587975	326.0	227.0	335	223	1
1.7	2015_Jul_27_1303	s	s	9	1	Capacity	58	ABS	1	0	24MC	1	0	2.01253581047	None	None	-2	176	0
1.7	2015_Jul_27_1303	s	s	9	1	Capacity	59	RC	2	0	23VC	1	0	0.858752965927	-426.0	-191.0	-421	-192	1
1.7	2015_Jul_27_1303	s	s	9	1	Capacity	60	ABS	2	0	24VC	0	1	1.02109599113	None	None	None	None	1
1.7	2015_Jul_27_1303	s	s	9	1	Capacity	61	RC	2	0	23VC	1	0	0.729040145874	381.0	391.0	383	384	1
1.7	2015_Jul_27_1303	s	s	9	1	Capacity	62	RC	1	0	23MC	1	0	1.02357602119	-65.0	-44.0	-69	-51	1
1.7	2015_Jul_27_1303	s	s	9	1	Capacity	63	ABS	1	0	24MC	0	1	8.01526999474	None	None	None	None	1
1.7	2015_Jul_27_1303	s	s	9	1	Capacity	64	ABS	2	0	24VC	0	1	1.37141084671	None	None	None	None	1
1.7	2015_Jul_27_1303	s	s	9	1	Capacity	65	ABS	2	0	24VC	0	1	1.87709999084	None	None	None	None	1
1.7	2015_Jul_27_1303	s	s	9	1	Capacity	66	RC	2	0	23VC	1	0	0.693821907043	-78.0	321.0	-69	318	1
1.7	2015_Jul_27_1303	s	s	9	1	Capacity	67	ABS	1	0	24MC	1	0	2.26872205734	None	None	378	-111	0
1.7	2015_Jul_27_1303	s	s	9	1	Capacity	68	RC	1	0	23MC	1	0	2.35334897041	368.0	90.0	-20	-5	0
1.7	2015_Jul_27_1303	s	s	9	1	Capacity	69	ABS	2	0	24VC	0	1	1.5059709549	None	None	None	None	1
1.7	2015_Jul_27_1303	s	s	9	1	Capacity	70	ABS	1	0	24MC	1	0	2.059289217	None	None	-468	352	0
1.7	2015_Jul_27_1303	s	s	9	1	Capacity	71	RC	1	0	23MC	1	0	1.26544189453	169.0	211.0	167	207	1
1.7	2015_Jul_27_1303	s	s	9	1	Capacity	72	RC	2	0	23VC	1	0	0.829653978348	144.0	48.0	141	47	1
1.7	2015_Jul_27_1303	s	s	9	1	Capacity	73	RC	2	0	23VC	1	0	1.08820319176	495.0	45.0	495	37	1
1.7	2015_Jul_27_1303	s	s	9	1	Capacity	74	ABS	1	0	24MC	0	1	4.61336994171	None	None	None	None	1
1.7	2015_Jul_27_1303	s	s	9	1	Capacity	75	ABS	2	0	24VC	0	1	0.915003061295	None	None	None	None	1
1.7	2015_Jul_27_1303	s	s	9	1	Capacity	76	RC	1	0	23MC	1	0	2.51502799988	-363.0	-384.0	-368	-388	1
1.7	2015_Jul_27_1303	s	s	9	1	Capacity	77	RC	2	0	23VC	1	0	1.34760308266	339.0	-244.0	341	-251	1
1.7	2015_Jul_27_1303	s	s	9	1	Capacity	78	ABS	2	0	24VC	0	1	2.22117996216	None	None	None	None	1
1.7	2015_Jul_27_1303	s	s	9	1	Capacity	79	RC	1	0	23MC	1	0	0.776098966599	-267.0	-18.0	-259	-18	1
1.7	2015_Jul_27_1303	s	s	9	1	Capacity	80	ABS	1	0	24MC	1	0	0.897567987442	None	None	-268	13	0
1.7	2015_Jul_27_1303	s	s	9	1	Capacity	81	ABS	1	0	24MC	1	0	5.46101903915	None	None	-12	264	0
1.7	2015_Jul_27_1303	s	s	9	1	Capacity	82	ABS	2	0	24VC	0	1	1.25880622864	None	None	None	None	1
1.7	2015_Jul_27_1303	s	s	9	1	Capacity	83	RC	1	0	23MC	1	0	0.86790895462	-380.0	-52.0	-382	-58	1
1.7	2015_Jul_27_1303	s	s	9	1	Capacity	84	RC	2	0	23VC	1	0	0.893825054169	-348.0	-54.0	-349	-54	1
1.7	2015_Jul_27_1303	s	s	9	1	Capacity	85	RC	1	0	23MC	1	0	1.39516806602	-462.0	196.0	-461	202	1
1.7	2015_Jul_27_1303	s	s	9	1	Capacity	86	RC	2	0	23VC	1	0	1.45628714561	9.0	131.0	9	125	1
1.7	2015_Jul_27_1303	s	s	9	1	Capacity	87	ABS	1	0	24MC	1	0	2.96167683601	None	None	-98	205	0
1.7	2015_Jul_27_1303	s	s	9	1	Capacity	88	ABS	2	0	24VC	0	1	3.54238009453	None	None	None	None	1
1.7	2015_Jul_27_1303	s	s	9	1	Capacity	89	ABS	2	0	24VC	0	1	1.34117817879	None	None	None	None	1
1.7	2015_Jul_27_1303	s	s	9	1	Capacity	90	RC	2	0	23VC	1	0	0.94101190567	83.0	-136.0	94	-135	1
1.7	2015_Jul_27_1303	s	s	9	1	Capacity	91	ABS	1	0	24MC	0	0	-1	None	None	None	None	-1
1.7	2015_Jul_27_1303	s	s	9	1	Capacity	92	RC	1	0	23MC	0	0	-1	-246.0	111.0	None	None	-1
1.7	2015_Jul_27_1303	s	s	9	1	Capacity	1	ABS	0	1	24RO	0	1	4.8205370903	None	None	None	None	1
1.7	2015_Jul_27_1303	s	s	9	1	Capacity	2	RC	0	2	23RD	1	0	0.0554840564728	297.0	150.0	-135	-8	0
1.7	2015_Jul_27_1303	s	s	9	1	Capacity	3	ABS	0	2	24RD	1	0	4.79613399506	None	None	39	-28	0
1.7	2015_Jul_27_1303	s	s	9	1	Capacity	4	RC	0	1	23RO	1	0	3.96171498299	-303.0	115.0	-301	115	1
1.7	2015_Jul_27_1303	s	s	9	1	Capacity	5	RC	0	1	23RO	1	0	3.62473297119	-11.0	361.0	-7	361	1
1.7	2015_Jul_27_1303	s	s	9	1	Capacity	6	ABS	0	1	24RO	0	1	7.16483998299	None	None	None	None	1
1.7	2015_Jul_27_1303	s	s	9	1	Capacity	7	RC	0	2	23RD	1	0	0.893919944763	228.0	-92.0	220	-96	1
1.7	2015_Jul_27_1303	s	s	9	1	Capacity	8	ABS	0	2	24RD	0	1	2.64781188965	None	None	None	None	1
1.7	2015_Jul_27_1303	s	s	9	1	Capacity	9	ABS	0	2	24RD	0	1	2.84456896782	None	None	None	None	1
1.7	2015_Jul_27_1303	s	s	9	1	Capacity	10	ABS	0	1	24RO	0	1	8.99216294289	None	None	None	None	1
1.7	2015_Jul_27_1303	s	s	9	1	Capacity	11	RC	0	2	23RD	1	0	0.761208057404	318.0	-196.0	323	-199	1
1.7	2015_Jul_27_1303	s	s	9	1	Capacity	12	RC	0	1	23RO	1	0	3.26828694344	2.0	284.0	5	281	1
1.7	2015_Jul_27_1303	s	s	9	1	Capacity	13	RC	0	1	23RO	1	0	3.68366003036	502.0	-388.0	502	-380	1
1.7	2015_Jul_27_1303	s	s	9	1	Capacity	14	RC	0	2	23RD	1	0	0.870406150818	-261.0	195.0	-261	193	1
1.7	2015_Jul_27_1303	s	s	9	1	Capacity	15	ABS	0	1	24RO	0	1	4.02494215965	None	None	None	None	1
1.7	2015_Jul_27_1303	s	s	9	1	Capacity	16	ABS	0	2	24RD	0	1	1.25405216217	None	None	None	None	1
1.7	2015_Jul_27_1303	s	s	9	1	Capacity	17	RC	0	2	23RD	1	0	0.729054927826	-399.0	74.0	-392	72	1
1.7	2015_Jul_27_1303	s	s	9	1	Capacity	18	RC	0	1	23RO	1	0	2.31824302673	-66.0	219.0	-66	221	1
1.7	2015_Jul_27_1303	s	s	9	1	Capacity	19	ABS	0	1	24RO	0	1	8.5801460743	None	None	None	None	1
1.7	2015_Jul_27_1303	s	s	9	1	Capacity	20	ABS	0	2	24RD	0	1	2.53652596474	None	None	None	None	1
1.7	2015_Jul_27_1303	s	s	9	1	Capacity	21	RC	0	2	23RD	1	0	0.799794912338	-249.0	-147.0	-240	-146	1
1.7	2015_Jul_27_1303	s	s	9	1	Capacity	22	ABS	0	1	24RO	0	1	3.37217092514	None	None	None	None	1
1.7	2015_Jul_27_1303	s	s	9	1	Capacity	23	RC	0	1	23RO	1	0	0.858584165573	-165.0	-76.0	-160	-77	1
1.7	2015_Jul_27_1303	s	s	9	1	Capacity	24	ABS	0	2	24RD	0	1	2.55356001854	None	None	None	None	1
1.7	2015_Jul_27_1303	s	s	9	1	Capacity	25	RC	0	2	23RD	1	0	0.702949047089	96.0	-166.0	98	-166	1
1.7	2015_Jul_27_1303	s	s	9	1	Capacity	26	RC	0	1	23RO	1	0	4.05478692055	-250.0	-289.0	-255	-284	1
1.7	2015_Jul_27_1303	s	s	9	1	Capacity	27	ABS	0	1	24RO	0	1	9.90453195572	None	None	None	None	1
1.7	2015_Jul_27_1303	s	s	9	1	Capacity	28	ABS	0	2	24RD	0	1	1.84131908417	None	None	None	None	1
1.7	2015_Jul_27_1303	s	s	9	1	Capacity	29	ABS	0	2	24RD	0	1	18.9794170856	None	None	None	None	1
1.7	2015_Jul_27_1303	s	s	9	1	Capacity	30	RC	0	2	23RD	1	0	5.87291383743	175.0	-354.0	177	-365	1
1.7	2015_Jul_27_1303	s	s	9	1	Capacity	31	ABS	0	1	24RO	0	1	8.53314900398	None	None	None	None	1
1.7	2015_Jul_27_1303	s	s	9	1	Capacity	32	RC	0	1	23RO	1	0	8.58022093773	178.0	363.0	179	368	1
1.7	2015_Jul_27_1303	s	s	9	1	Capacity	33	RC	0	2	23RD	1	0	6.04958105087	-524.0	-102.0	-529	-102	1
1.7	2015_Jul_27_1303	s	s	9	1	Capacity	34	ABS	0	1	24RO	0	1	6.54120492935	None	None	None	None	1
1.7	2015_Jul_27_1303	s	s	9	1	Capacity	35	ABS	0	2	24RD	0	1	1.03532505035	None	None	None	None	1
1.7	2015_Jul_27_1303	s	s	9	1	Capacity	36	RC	0	1	23RO	1	0	4.06945681572	30.0	-103.0	30	-93	1
1.7	2015_Jul_27_1303	s	s	9	1	Capacity	37	ABS	0	1	24RO	0	1	9.50653505325	None	None	None	None	1
1.7	2015_Jul_27_1303	s	s	9	1	Capacity	38	RC	0	2	23RD	1	0	9.36385393143	-171.0	36.0	-170	37	1
1.7	2015_Jul_27_1303	s	s	9	1	Capacity	39	RC	0	1	23RO	1	0	1.36122298241	-16.0	40.0	-13	40	1
1.7	2015_Jul_27_1303	s	s	9	1	Capacity	40	ABS	0	2	24RD	0	1	1.17292022705	None	None	None	None	1
1.7	2015_Jul_27_1303	s	s	9	1	Capacity	41	RC	0	1	23RO	1	0	3.79827690125	343.0	-358.0	347	-360	1
1.7	2015_Jul_27_1303	s	s	9	1	Capacity	42	ABS	0	2	24RD	0	1	3.27165699005	None	None	None	None	1
1.7	2015_Jul_27_1303	s	s	9	1	Capacity	43	RC	0	2	23RD	1	0	0.799763917923	-294.0	401.0	-294	396	1
1.7	2015_Jul_27_1303	s	s	9	1	Capacity	44	ABS	0	1	24RO	0	1	5.91998386383	None	None	None	None	1
1.7	2015_Jul_27_1303	s	s	9	1	Capacity	45	ABS	0	2	24RD	0	1	2.97196221352	None	None	None	None	1
1.7	2015_Jul_27_1303	s	s	9	1	Capacity	46	ABS	0	1	24RO	0	1	7.88566803932	None	None	None	None	1
1.7	2015_Jul_27_1303	s	s	9	1	Capacity	47	RC	0	2	23RD	1	0	0.882430791855	-15.0	368.0	-11	361	1
1.7	2015_Jul_27_1303	s	s	9	1	Capacity	48	RC	0	1	23RO	1	0	3.9188349247	344.0	-180.0	348	-171	1
1.7	2015_Jul_27_1303	s	s	9	1	Capacity	49	RC	0	2	23RD	1	0	0.76443195343	-86.0	110.0	-86	105	1
1.7	2015_Jul_27_1303	s	s	9	1	Capacity	50	ABS	0	2	24RD	0	1	2.26677393913	None	None	None	None	1
1.7	2015_Jul_27_1303	s	s	9	1	Capacity	51	ABS	0	1	24RO	0	1	5.63523292542	None	None	None	None	1
1.7	2015_Jul_27_1303	s	s	9	1	Capacity	52	RC	0	1	23RO	1	0	1.58840680122	-511.0	388.0	-514	389	1
1.7	2015_Jul_27_1303	s	s	9	1	Capacity	53	ABS	0	2	24RD	0	1	1.15974402428	None	None	None	None	1
1.7	2015_Jul_27_1303	s	s	9	1	Capacity	54	ABS	0	1	24RO	0	1	5.56174206734	None	None	None	None	1
1.7	2015_Jul_27_1303	s	s	9	1	Capacity	55	RC	0	2	23RD	1	0	0.994933128357	-367.0	267.0	-369	267	1
1.7	2015_Jul_27_1303	s	s	9	1	Capacity	56	RC	0	1	23RO	1	0	3.27157592773	468.0	259.0	468	257	1
1.7	2015_Jul_27_1303	s	s	9	1	Capacity	57	RC	0	2	23RD	1	0	1.11757802963	-386.0	-41.0	-385	-43	1
1.7	2015_Jul_27_1303	s	s	9	1	Capacity	58	ABS	0	1	24RO	0	1	5.53753304482	None	None	None	None	1
1.7	2015_Jul_27_1303	s	s	9	1	Capacity	59	ABS	0	2	24RD	0	1	1.19487309456	None	None	None	None	1
1.7	2015_Jul_27_1303	s	s	9	1	Capacity	60	RC	0	1	23RO	1	0	0.960100889206	-28.0	-132.0	-27	-134	1
1.7	2015_Jul_27_1303	s	s	9	1	Capacity	61	RC	0	1	23RO	1	0	3.74240899086	105.0	291.0	107	286	1
1.7	2015_Jul_27_1303	s	s	9	1	Capacity	62	RC	0	2	23RD	1	0	0.797053813934	-449.0	-51.0	-445	-56	1
1.7	2015_Jul_27_1303	s	s	9	1	Capacity	63	ABS	0	2	24RD	0	1	1.4290060997	None	None	None	None	1
1.7	2015_Jul_27_1303	s	s	9	1	Capacity	64	ABS	0	1	24RO	0	1	4.76651310921	None	None	None	None	1
1.7	2015_Jul_27_1303	s	s	9	1	Capacity	65	ABS	0	1	24RO	0	1	8.81319499016	None	None	None	None	1
1.7	2015_Jul_27_1303	s	s	9	1	Capacity	66	ABS	0	2	24RD	0	1	1.32949519157	None	None	None	None	1
1.7	2015_Jul_27_1303	s	s	9	1	Capacity	67	RC	0	1	23RO	1	0	3.41274690628	322.0	158.0	324	154	1
1.7	2015_Jul_27_1303	s	s	9	1	Capacity	68	RC	0	2	23RD	1	0	1.16003608704	517.0	-395.0	515	-396	1
1.7	2015_Jul_27_1303	s	s	9	1	Capacity	69	RC	0	1	23RO	1	0	2.10340189934	56.0	-243.0	50	-242	1
1.7	2015_Jul_27_1303	s	s	9	1	Capacity	70	ABS	0	1	24RO	0	1	5.774944067	None	None	None	None	1
1.7	2015_Jul_27_1303	s	s	9	1	Capacity	71	ABS	0	2	24RD	0	1	1.59472489357	None	None	None	None	1
1.7	2015_Jul_27_1303	s	s	9	1	Capacity	72	RC	0	2	23RD	1	0	1.21180891991	519.0	-28.0	520	-39	1
1.7	2015_Jul_27_1303	s	s	9	1	Capacity	73	ABS	0	1	24RO	0	1	4.82294487953	None	None	None	None	1
1.7	2015_Jul_27_1303	s	s	9	1	Capacity	74	RC	0	1	23RO	1	0	2.50070095062	426.0	-266.0	429	-266	1
1.7	2015_Jul_27_1303	s	s	9	1	Capacity	75	RC	0	2	23RD	1	0	0.921227216721	-25.0	342.0	-24	339	1
1.7	2015_Jul_27_1303	s	s	9	1	Capacity	76	ABS	0	2	24RD	0	1	0.994760990143	None	None	None	None	1
1.7	2015_Jul_27_1303	s	s	9	1	Capacity	77	RC	0	2	23RD	1	0	2.41231203079	-433.0	-370.0	-437	-376	1
1.7	2015_Jul_27_1303	s	s	9	1	Capacity	78	RC	0	1	23RO	1	0	1.51769304276	-502.0	44.0	-500	33	1
1.7	2015_Jul_27_1303	s	s	9	1	Capacity	79	ABS	0	1	24RO	0	1	6.54386901855	None	None	None	None	1
1.7	2015_Jul_27_1303	s	s	9	1	Capacity	80	ABS	0	2	24RD	0	1	1.60839986801	None	None	None	None	1
1.7	2015_Jul_27_1303	s	s	9	1	Capacity	81	RC	0	2	23RD	1	0	0.893917798996	-95.0	373.0	-94	366	1
1.7	2015_Jul_27_1303	s	s	9	1	Capacity	82	ABS	0	2	24RD	0	1	2.69852995872	None	None	None	None	1
1.7	2015_Jul_27_1303	s	s	9	1	Capacity	83	ABS	0	1	24RO	0	1	5.81988501549	None	None	None	None	1
1.7	2015_Jul_27_1303	s	s	9	1	Capacity	84	RC	0	1	23RO	1	0	4.4564769268	-212.0	204.0	-205	206	1
1.7	2015_Jul_27_1303	s	s	9	1	Capacity	85	ABS	0	1	24RO	0	1	6.52735900879	None	None	None	None	1
1.7	2015_Jul_27_1303	s	s	9	1	Capacity	86	RC	0	2	23RD	1	0	1.19452500343	-311.0	377.0	-303	377	1
1.7	2015_Jul_27_1303	s	s	9	1	Capacity	87	RC	0	1	23RO	1	0	4.37816405296	-239.0	145.0	-241	153	1
1.7	2015_Jul_27_1303	s	s	9	1	Capacity	88	ABS	0	2	24RD	0	1	1.23185586929	None	None	None	None	1
1.7	2015_Jul_27_1303	s	s	9	1	Capacity	89	RC	0	2	23RD	1	0	1.00382900238	-529.0	3.0	-530	6	1
1.7	2015_Jul_27_1303	s	s	9	1	Capacity	90	RC	0	1	23RO	1	0	2.69853496552	-14.0	65.0	-10	54	1
1.7	2015_Jul_27_1303	s	s	9	1	Capacity	91	ABS	0	2	24RD	0	1	2.41236996651	None	None	None	None	1
1.7	2015_Jul_27_1303	s	s	9	1	Capacity	92	ABS	0	1	24RO	0	1	6.35290598869	None	None	None	None	1
1.7	2015_Jul_27_1303	s	s	9	1	SIC	1	RC	2	0	23VC	1	0	1.84304904938	298.0	-256.0	303	-261	1
1.7	2015_Jul_27_1303	s	s	9	1	SIC	2	RC	0	1	23RO	1	0	3.16063690186	501.0	59.0	497	65	1
1.7	2015_Jul_27_1303	s	s	9	1	SIC	3	ABS	1	1	24MO	0	1	8.49240803719	None	None	None	None	1
1.7	2015_Jul_27_1303	s	s	9	1	SIC	4	ABS	0	2	24RD	0	1	0.964530944824	None	None	None	None	1
1.7	2015_Jul_27_1303	s	s	9	1	SIC	5	RC	2	1	23VO	1	0	0.867281198502	41.0	312.0	39	310	1
1.7	2015_Jul_27_1303	s	s	9	1	SIC	6	ABS	1	0	24MC	1	0	3.13033509254	None	None	-336	-42	0
1.7	2015_Jul_27_1303	s	s	9	1	SIC	7	ABS	2	0	24VC	0	1	1.15289402008	None	None	None	None	1
1.7	2015_Jul_27_1303	s	s	9	1	SIC	8	RC	1	2	23MD	1	0	1.81584095955	-264.0	22.0	-267	28	1
1.7	2015_Jul_27_1303	s	s	9	1	SIC	9	RC	0	2	23RD	1	0	1.02954506874	452.0	-141.0	459	-143	1
1.7	2015_Jul_27_1303	s	s	9	1	SIC	10	RC	1	1	23MO	1	0	0.970782995224	455.0	36.0	455	31	1
1.7	2015_Jul_27_1303	s	s	9	1	SIC	11	ABS	0	1	24RO	0	1	5.62578988075	None	None	None	None	1
1.7	2015_Jul_27_1303	s	s	9	1	SIC	12	RC	2	2	23VD	1	0	17.6118078232	-59.0	-363.0	-57	-375	1
1.7	2015_Jul_27_1303	s	s	9	1	SIC	13	RC	1	0	23MC	1	0	1.56200218201	-383.0	-370.0	-383	-373	1
1.7	2015_Jul_27_1303	s	s	9	1	SIC	14	ABS	2	2	24VD	0	1	2.94871592522	None	None	None	None	1
1.7	2015_Jul_27_1303	s	s	9	1	SIC	15	ABS	1	2	24MD	0	1	3.28891706467	None	None	None	None	1
1.7	2015_Jul_27_1303	s	s	9	1	SIC	16	ABS	2	1	24VO	0	1	1.03531599045	None	None	None	None	1
1.7	2015_Jul_27_1303	s	s	9	1	SIC	17	RC	2	2	23VD	1	0	5.93171191216	-86.0	-48.0	-82	-58	1
1.7	2015_Jul_27_1303	s	s	9	1	SIC	18	ABS	0	1	24RO	0	1	10.4164040089	None	None	None	None	1
1.7	2015_Jul_27_1303	s	s	9	1	SIC	19	RC	1	2	23MD	1	0	0.740969896317	221.0	-154.0	222	-146	1
1.7	2015_Jul_27_1303	s	s	9	1	SIC	20	ABS	1	2	24MD	0	1	2.52477788925	None	None	None	None	1
1.7	2015_Jul_27_1303	s	s	9	1	SIC	21	ABS	1	1	24MO	0	1	3.95428204536	None	None	None	None	1
1.7	2015_Jul_27_1303	s	s	9	1	SIC	22	ABS	2	2	24VD	0	1	0.652778148651	None	None	None	None	1
1.7	2015_Jul_27_1303	s	s	9	1	SIC	23	ABS	2	1	24VO	0	1	0.912441015244	None	None	None	None	1
1.7	2015_Jul_27_1303	s	s	9	1	SIC	24	RC	0	2	23RD	1	0	0.84695315361	-248.0	228.0	-252	227	1
1.7	2015_Jul_27_1303	s	s	9	1	SIC	25	RC	2	1	23VO	1	0	0.689014911652	-364.0	-244.0	-363	-245	1
1.7	2015_Jul_27_1303	s	s	9	1	SIC	26	RC	1	1	23MO	1	0	1.11422801018	446.0	-170.0	451	-174	1
1.7	2015_Jul_27_1303	s	s	9	1	SIC	27	RC	2	0	23VC	1	0	0.882146120071	323.0	404.0	321	408	1
1.7	2015_Jul_27_1303	s	s	9	1	SIC	28	ABS	2	0	24VC	0	1	0.870361089706	None	None	None	None	1
1.7	2015_Jul_27_1303	s	s	9	1	SIC	29	ABS	1	0	24MC	1	0	2.01210904121	None	None	-85	114	0
1.7	2015_Jul_27_1303	s	s	9	1	SIC	30	RC	0	1	23RO	1	0	2.88321495056	-219.0	28.0	-216	28	1
1.7	2015_Jul_27_1303	s	s	9	1	SIC	31	RC	1	0	23MC	1	0	1.4193789959	-428.0	161.0	-427	163	1
1.7	2015_Jul_27_1303	s	s	9	1	SIC	32	ABS	0	2	24RD	0	1	2.37699985504	None	None	None	None	1
1.7	2015_Jul_27_1303	s	s	9	1	SIC	33	ABS	1	0	24MC	1	0	9.29250311852	None	None	-434	240	0
1.7	2015_Jul_27_1303	s	s	9	1	SIC	34	RC	2	2	23VD	1	0	0.705567121506	228.0	-292.0	224	-299	1
1.7	2015_Jul_27_1303	s	s	9	1	SIC	35	ABS	2	0	24VC	0	1	2.4241130352	None	None	None	None	1
1.7	2015_Jul_27_1303	s	s	9	1	SIC	36	RC	2	1	23VO	1	0	0.585211038589	-36.0	-71.0	-44	-72	1
1.7	2015_Jul_27_1303	s	s	9	1	SIC	37	RC	0	1	23RO	1	0	3.64832687378	-431.0	-205.0	-422	-208	1
1.7	2015_Jul_27_1303	s	s	9	1	SIC	38	ABS	1	2	24MD	0	1	1.13603806496	None	None	None	None	1
1.7	2015_Jul_27_1303	s	s	9	1	SIC	39	ABS	0	2	24RD	0	1	3.7542219162	None	None	None	None	1
1.7	2015_Jul_27_1303	s	s	9	1	SIC	40	RC	1	2	23MD	1	0	0.787993907928	-460.0	-375.0	-459	-377	1
1.7	2015_Jul_27_1303	s	s	9	1	SIC	41	RC	2	0	23VC	1	0	0.658445119858	-508.0	410.0	-507	410	1
1.7	2015_Jul_27_1303	s	s	9	1	SIC	42	RC	1	1	23MO	1	0	1.60009503365	282.0	-379.0	280	-380	1
1.7	2015_Jul_27_1303	s	s	9	1	SIC	43	ABS	2	2	24VD	0	1	0.952655076981	None	None	None	None	1
1.7	2015_Jul_27_1303	s	s	9	1	SIC	44	ABS	1	1	24MO	0	1	4.52629590034	None	None	None	None	1
1.7	2015_Jul_27_1303	s	s	9	1	SIC	45	RC	1	0	23MC	1	0	3.47174906731	-131.0	-291.0	344	-167	0
1.7	2015_Jul_27_1303	s	s	9	1	SIC	46	RC	0	2	23RD	1	0	0.917419910431	-462.0	73.0	-461	65	1
1.7	2015_Jul_27_1303	s	s	9	1	SIC	47	ABS	2	1	24VO	0	1	0.84681391716	None	None	None	None	1
1.7	2015_Jul_27_1303	s	s	9	1	SIC	48	ABS	0	1	24RO	0	1	5.17850112915	None	None	None	None	1
1.7	2015_Jul_27_1303	s	s	9	1	SIC	49	ABS	0	2	24RD	0	1	0.854348897934	None	None	None	None	1
1.7	2015_Jul_27_1303	s	s	9	1	SIC	50	RC	0	2	23RD	1	0	0.86708688736	-10.0	-118.0	-6	-126	1
1.7	2015_Jul_27_1303	s	s	9	1	SIC	51	RC	2	0	23VC	1	0	0.764501094818	-150.0	350.0	-150	340	1
1.7	2015_Jul_27_1303	s	s	9	1	SIC	52	RC	1	0	23MC	1	0	1.27999782562	484.0	-285.0	-162	253	0
1.7	2015_Jul_27_1303	s	s	9	1	SIC	53	ABS	1	2	24MD	0	1	4.81081795692	None	None	None	None	1
1.7	2015_Jul_27_1303	s	s	9	1	SIC	54	RC	0	1	23RO	1	0	1.74135494232	308.0	363.0	316	357	1
1.7	2015_Jul_27_1303	s	s	9	1	SIC	55	RC	1	1	23MO	1	0	4.01810503006	-361.0	159.0	-362	155	1
1.7	2015_Jul_27_1303	s	s	9	1	SIC	56	ABS	2	2	24VD	0	1	0.805967092514	None	None	None	None	1
1.7	2015_Jul_27_1303	s	s	9	1	SIC	57	ABS	1	0	24MC	1	0	2.0685441494	None	None	-17	246	0
1.7	2015_Jul_27_1303	s	s	9	1	SIC	58	ABS	1	1	24MO	0	1	4.75471997261	None	None	None	None	1
1.7	2015_Jul_27_1303	s	s	9	1	SIC	59	RC	2	1	23VO	1	0	0.693756103516	53.0	-167.0	50	-167	1
1.7	2015_Jul_27_1303	s	s	9	1	SIC	60	RC	2	2	23VD	1	0	0.701649904251	-230.0	181.0	-235	178	1
1.7	2015_Jul_27_1303	s	s	9	1	SIC	61	ABS	2	0	24VC	0	1	1.08270692825	None	None	None	None	1
1.7	2015_Jul_27_1303	s	s	9	1	SIC	62	ABS	0	1	24RO	0	1	5.5198469162	None	None	None	None	1
1.7	2015_Jul_27_1303	s	s	9	1	SIC	63	ABS	2	1	24VO	0	1	0.764454126358	None	None	None	None	1
1.7	2015_Jul_27_1303	s	s	9	1	SIC	64	RC	1	2	23MD	1	0	0.682382822037	-533.0	-125.0	-532	-125	1
1.7	2015_Jul_27_1303	s	s	9	1	SIC	65	ABS	1	0	24MC	1	0	2.6454679966	None	None	-497	269	0
1.7	2015_Jul_27_1303	s	s	9	1	SIC	66	ABS	1	2	24MD	0	1	1.76224708557	None	None	None	None	1
1.7	2015_Jul_27_1303	s	s	9	1	SIC	67	RC	2	1	23VO	1	0	0.788022041321	521.0	-9.0	518	-8	1
1.7	2015_Jul_27_1303	s	s	9	1	SIC	68	ABS	2	1	24VO	0	1	0.807502985001	None	None	None	None	1
1.7	2015_Jul_27_1303	s	s	9	1	SIC	69	RC	1	0	23MC	1	0	0.864593029022	75.0	-327.0	-348	-28	0
1.7	2015_Jul_27_1303	s	s	9	1	SIC	70	RC	1	2	23MD	1	0	0.646724939346	-372.0	-80.0	-367	-86	1
1.7	2015_Jul_27_1303	s	s	9	1	SIC	71	ABS	0	1	24RO	0	1	4.97528100014	None	None	None	None	1
1.7	2015_Jul_27_1303	s	s	9	1	SIC	72	RC	0	2	23RD	1	0	0.819967031479	170.0	-209.0	171	-206	1
1.7	2015_Jul_27_1303	s	s	9	1	SIC	73	ABS	1	1	24MO	0	1	4.37567591667	None	None	None	None	1
1.7	2015_Jul_27_1303	s	s	9	1	SIC	74	ABS	2	2	24VD	0	1	0.835019111633	None	None	None	None	1
1.7	2015_Jul_27_1303	s	s	9	1	SIC	75	RC	2	0	23VC	1	0	0.693791866302	-59.0	-276.0	-56	-281	1
1.7	2015_Jul_27_1303	s	s	9	1	SIC	76	ABS	2	0	24VC	0	1	1.85911107063	None	None	None	None	1
1.7	2015_Jul_27_1303	s	s	9	1	SIC	77	ABS	0	2	24RD	0	1	5.46093678474	None	None	None	None	1
1.7	2015_Jul_27_1303	s	s	9	1	SIC	78	RC	0	1	23RO	0	1	14.8501391411	45.0	202.0	None	None	0
1.7	2015_Jul_27_1303	s	s	9	1	SIC	79	RC	1	1	23MO	1	0	1.77175784111	526.0	-398.0	524	-403	1
1.7	2015_Jul_27_1303	s	s	9	1	SIC	80	RC	2	2	23VD	1	0	0.804229021072	-167.0	310.0	-167	306	1
1.7	2015_Jul_27_1303	s	s	9	1	SIC	81	ABS	1	0	24MC	1	0	1.45307302475	None	None	-513	336	0
1.7	2015_Jul_27_1303	s	s	9	1	SIC	82	RC	1	0	23MC	0	1	1.11762881279	-241.0	17.0	None	None	0
1.7	2015_Jul_27_1303	s	s	9	1	SIC	83	RC	2	1	23VO	1	0	0.811640024185	-249.0	-103.0	-251	-106	1
1.7	2015_Jul_27_1303	s	s	9	1	SIC	84	RC	0	2	23RD	1	0	0.629697799683	478.0	-190.0	469	-189	1
1.7	2015_Jul_27_1303	s	s	9	1	SIC	85	ABS	2	0	24VC	0	1	0.808860063553	None	None	None	None	1
1.7	2015_Jul_27_1303	s	s	9	1	SIC	86	RC	2	0	23VC	1	0	0.652880191803	6.0	393.0	2	391	1
1.7	2015_Jul_27_1303	s	s	9	1	SIC	87	ABS	1	2	24MD	0	1	0.788039922714	None	None	None	None	1
1.7	2015_Jul_27_1303	s	s	9	1	SIC	88	ABS	0	1	24RO	0	1	5.62570691109	None	None	None	None	1
1.7	2015_Jul_27_1303	s	s	9	1	SIC	89	RC	1	1	23MO	1	0	3.0014321804	-40.0	-259.0	-30	-254	1
1.7	2015_Jul_27_1303	s	s	9	1	SIC	90	RC	1	2	23MD	1	0	1.33768486977	263.0	196.0	268	204	1
1.7	2015_Jul_27_1303	s	s	9	1	SIC	91	ABS	2	2	24VD	0	1	0.682029008865	None	None	None	None	1
1.7	2015_Jul_27_1303	s	s	9	1	SIC	92	ABS	1	1	24MO	0	1	4.86930584908	None	None	None	None	1
1.7	2015_Jul_27_1303	s	s	9	1	SIC	93	RC	2	2	23VD	1	0	0.783102989197	-311.0	205.0	-305	196	1
1.7	2015_Jul_27_1303	s	s	9	1	SIC	94	RC	0	1	23RO	1	0	1.37639403343	-408.0	1.0	-407	1	1
1.7	2015_Jul_27_1303	s	s	9	1	SIC	95	ABS	0	2	24RD	0	1	2.69210004807	None	None	None	None	1
1.7	2015_Jul_27_1303	s	s	9	1	SIC	96	ABS	2	1	24VO	0	1	0.894065141678	None	None	None	None	1
1.7	2015_Jul_27_1303	s	s	9	1	SIC	97	RC	2	0	23VC	1	0	0.782824039459	-127.0	388.0	-123	390	1
1.7	2015_Jul_27_1303	s	s	9	1	SIC	98	ABS	1	2	24MD	0	1	1.31298589706	None	None	None	None	1
1.7	2015_Jul_27_1303	s	s	9	1	SIC	99	ABS	2	0	24VC	0	1	2.23284101486	None	None	None	None	1
1.7	2015_Jul_27_1303	s	s	9	1	SIC	100	ABS	0	1	24RO	0	1	4.86070108414	None	None	None	None	1
1.7	2015_Jul_27_1303	s	s	9	1	SIC	101	RC	2	2	23VD	1	0	7.69369578362	-100.0	-38.0	-105	-40	1
1.7	2015_Jul_27_1303	s	s	9	1	SIC	102	ABS	1	1	24MO	0	1	5.50553393364	None	None	None	None	1
1.7	2015_Jul_27_1303	s	s	9	1	SIC	103	RC	1	0	23MC	0	1	3.65995001793	-316.0	-399.0	None	None	0
1.7	2015_Jul_27_1303	s	s	9	1	SIC	104	ABS	1	0	24MC	1	0	1.77219986916	None	None	-172	-119	0
1.7	2015_Jul_27_1303	s	s	9	1	SIC	105	RC	1	1	23MO	1	0	1.64756393433	71.0	-176.0	76	-178	1
1.7	2015_Jul_27_1303	s	s	9	1	SIC	106	RC	2	1	23VO	1	0	1.03527879715	412.0	-205.0	417	-213	1
1.7	2015_Jul_27_1303	s	s	9	1	SIC	107	ABS	2	2	24VD	0	1	0.711893081665	None	None	None	None	1
1.7	2015_Jul_27_1303	s	s	9	1	SIC	108	ABS	0	2	24RD	0	1	0.779886960983	None	None	None	None	1
1.7	2015_Jul_27_1303	s	s	9	1	SIC	109	RC	0	2	23RD	1	0	1.09045290947	322.0	409.0	316	408	1
1.7	2015_Jul_27_1303	s	s	9	1	SIC	110	ABS	2	1	24VO	0	1	0.994566917419	None	None	None	None	1
1.7	2015_Jul_27_1303	s	s	9	1	SIC	111	RC	1	2	23MD	1	0	0.926064968109	47.0	109.0	46	107	1
1.7	2015_Jul_27_1303	s	s	9	1	SIC	112	RC	0	1	23RO	1	0	0.799801111221	36.0	235.0	11	-77	0
1.7	2015_Jul_27_1303	s	s	9	1	SIC	113	ABS	0	1	24RO	0	1	9.17519807816	None	None	None	None	1
1.7	2015_Jul_27_1303	s	s	9	1	SIC	114	RC	1	1	23MO	1	0	7.21481800079	29.0	-108.0	29	-114	1
1.7	2015_Jul_27_1303	s	s	9	1	SIC	115	RC	0	1	23RO	0	1	6.87336397171	372.0	-12.0	None	None	0
1.7	2015_Jul_27_1303	s	s	9	1	SIC	116	ABS	2	0	24VC	0	1	9.79013895988	None	None	None	None	1
1.7	2015_Jul_27_1303	s	s	9	1	SIC	117	RC	1	2	23MD	1	0	0.811584949493	-330.0	311.0	-337	309	1
1.7	2015_Jul_27_1303	s	s	9	1	SIC	118	RC	2	2	23VD	1	0	0.643134117126	-99.0	-82.0	-105	-77	1
1.7	2015_Jul_27_1303	s	s	9	1	SIC	119	ABS	0	2	24RD	0	1	0.96181511879	None	None	None	None	1
1.7	2015_Jul_27_1303	s	s	9	1	SIC	120	ABS	2	2	24VD	0	1	0.749378919601	None	None	None	None	1
1.7	2015_Jul_27_1303	s	s	9	1	SIC	121	ABS	1	1	24MO	0	1	7.21849513054	None	None	None	None	1
1.7	2015_Jul_27_1303	s	s	9	1	SIC	122	RC	2	1	23VO	1	0	1.27063083649	-52.0	157.0	-50	148	1
1.7	2015_Jul_27_1303	s	s	9	1	SIC	123	ABS	1	0	24MC	1	0	15.5666718483	None	None	-224	-118	0
1.7	2015_Jul_27_1303	s	s	9	1	SIC	124	RC	0	2	23RD	1	0	2.27107191086	-379.0	300.0	-376	294	1
1.7	2015_Jul_27_1303	s	s	9	1	SIC	125	RC	2	0	23VC	1	0	0.693727970123	-373.0	276.0	-367	269	1
1.7	2015_Jul_27_1303	s	s	9	1	SIC	126	ABS	2	1	24VO	0	1	14.4487178326	None	None	None	None	1
1.7	2015_Jul_27_1303	s	s	9	1	SIC	127	ABS	1	2	24MD	0	1	0.709408044815	None	None	None	None	1
1.7	2015_Jul_27_1303	s	s	9	1	SIC	128	RC	1	0	23MC	1	0	1.52956414223	388.0	401.0	387	393	1
1.7	2015_Jul_27_1303	s	s	9	1	SIC	129	ABS	0	1	24RO	0	1	3.38432693481	None	None	None	None	1
1.7	2015_Jul_27_1303	s	s	9	1	SIC	130	ABS	2	0	24VC	0	1	0.702235937119	None	None	None	None	1
1.7	2015_Jul_27_1303	s	s	9	1	SIC	131	ABS	0	2	24RD	0	1	0.782768011093	None	None	None	None	1
1.7	2015_Jul_27_1303	s	s	9	1	SIC	132	RC	0	2	23RD	1	0	8.42713809013	125.0	-98.0	135	-100	1
1.7	2015_Jul_27_1303	s	s	9	1	SIC	133	RC	1	2	23MD	1	0	1.47983503342	202.0	-301.0	209	-305	1
1.7	2015_Jul_27_1303	s	s	9	1	SIC	134	ABS	1	1	24MO	0	1	4.53105998039	None	None	None	None	1
1.7	2015_Jul_27_1303	s	s	9	1	SIC	135	ABS	1	2	24MD	0	1	4.04844307899	None	None	None	None	1
1.7	2015_Jul_27_1303	s	s	9	1	SIC	136	RC	2	0	23VC	1	0	0.611438035965	478.0	283.0	479	273	1
1.7	2015_Jul_27_1303	s	s	9	1	SIC	137	ABS	2	1	24VO	0	1	1.03519701958	None	None	None	None	1
1.7	2015_Jul_27_1303	s	s	9	1	SIC	138	RC	1	1	23MO	1	0	1.01153087616	200.0	-61.0	195	-70	1
1.7	2015_Jul_27_1303	s	s	9	1	SIC	139	RC	2	2	23VD	1	0	3.11286187172	492.0	196.0	497	191	1
1.7	2015_Jul_27_1303	s	s	9	1	SIC	140	RC	2	1	23VO	1	0	8.34013700485	-252.0	316.0	-245	310	1
1.7	2015_Jul_27_1303	s	s	9	1	SIC	141	ABS	2	2	24VD	0	1	4.6444299221	None	None	None	None	1
1.7	2015_Jul_27_1303	s	s	9	1	SIC	142	ABS	1	0	24MC	1	0	2.60665798187	None	None	-376	268	0
1.7	2015_Jul_27_1303	s	s	9	1	SIC	143	RC	1	0	23MC	1	0	0.949320077896	534.0	-236.0	-123	-21	0
1.7	2015_Jul_27_1303	s	s	9	1	SIC	144	RC	0	1	23RO	1	0	3.05650615692	-346.0	43.0	20	-242	0
1.7	2015_Jul_27_1303	s	s	9	1	SIC	145	RC	2	2	23VD	1	0	2.32988882065	169.0	119.0	165	117	1
1.7	2015_Jul_27_1303	s	s	9	1	SIC	146	ABS	1	1	24MO	0	1	6.13848805428	None	None	None	None	1
1.7	2015_Jul_27_1303	s	s	9	1	SIC	147	ABS	0	1	24RO	0	1	2.95991802216	None	None	None	None	1
1.7	2015_Jul_27_1303	s	s	9	1	SIC	148	RC	0	2	23RD	1	0	0.714415073395	-18.0	218.0	-22	211	1
1.7	2015_Jul_27_1303	s	s	9	1	SIC	149	ABS	2	2	24VD	0	1	0.79691696167	None	None	None	None	1
1.7	2015_Jul_27_1303	s	s	9	1	SIC	150	ABS	1	0	24MC	1	0	1.04169511795	None	None	-361	-56	0
1.7	2015_Jul_27_1303	s	s	9	1	SIC	151	RC	2	1	23VO	1	0	2.77204799652	-34.0	-74.0	-49	-67	1
1.7	2015_Jul_27_1303	s	s	9	1	SIC	152	RC	1	1	23MO	1	0	4.38724088669	377.0	-229.0	379	-233	1
1.7	2015_Jul_27_1303	s	s	9	1	SIC	153	ABS	1	2	24MD	0	1	0.773991823196	None	None	None	None	1
1.7	2015_Jul_27_1303	s	s	9	1	SIC	154	ABS	2	1	24VO	0	1	0.752642154694	None	None	None	None	1
1.7	2015_Jul_27_1303	s	s	9	1	SIC	155	ABS	2	0	24VC	0	1	0.835124015808	None	None	None	None	1
1.7	2015_Jul_27_1303	s	s	9	1	SIC	156	ABS	0	2	24RD	0	1	5.48451399803	None	None	None	None	1
1.7	2015_Jul_27_1303	s	s	9	1	SIC	157	RC	1	0	23MC	1	0	0.940957069397	-221.0	330.0	-226	334	1
1.7	2015_Jul_27_1303	s	s	9	1	SIC	158	RC	2	0	23VC	1	0	0.782509088516	-135.0	-399.0	-140	-401	1
1.7	2015_Jul_27_1303	s	s	9	1	SIC	159	RC	1	2	23MD	0	1	0.891374826431	373.0	164.0	None	None	0
1.7	2015_Jul_27_1303	s	s	9	1	SIC	160	RC	0	1	23RO	1	0	3.43620920181	-85.0	279.0	-84	275	1
1.7	2015_Jul_27_1303	s	s	9	1	SIC	161	ABS	2	0	24VC	0	1	0.729140996933	None	None	None	None	1
1.7	2015_Jul_27_1303	s	s	9	1	SIC	162	RC	2	0	23VC	1	0	0.701057195663	366.0	-158.0	365	-157	1
1.7	2015_Jul_27_1303	s	s	9	1	SIC	163	RC	0	2	23RD	1	0	1.31276106834	-471.0	216.0	-474	209	1
1.7	2015_Jul_27_1303	s	s	9	1	SIC	164	ABS	1	1	24MO	0	1	5.22560596466	None	None	None	None	1
1.7	2015_Jul_27_1303	s	s	9	1	SIC	165	RC	0	1	23RO	1	0	1.60064482689	261.0	-349.0	264	-346	1
1.7	2015_Jul_27_1303	s	s	9	1	SIC	166	ABS	1	2	24MD	0	1	1.07812619209	None	None	None	None	1
1.7	2015_Jul_27_1303	s	s	9	1	SIC	167	ABS	2	1	24VO	0	1	6.64975404739	None	None	None	None	1
1.7	2015_Jul_27_1303	s	s	9	1	SIC	168	RC	1	2	23MD	1	0	4.65685391426	-195.0	-211.0	-197	168	0
1.7	2015_Jul_27_1303	s	s	9	1	SIC	169	RC	1	0	23MC	1	0	0.913402795792	407.0	265.0	404	267	1
1.7	2015_Jul_27_1303	s	s	9	1	SIC	170	ABS	1	0	24MC	1	0	1.33862304688	None	None	345	180	0
1.7	2015_Jul_27_1303	s	s	9	1	SIC	171	ABS	0	1	24RO	0	1	4.64606904984	None	None	None	None	1
1.7	2015_Jul_27_1303	s	s	9	1	SIC	172	ABS	0	2	24RD	0	1	0.870384931564	None	None	None	None	1
1.7	2015_Jul_27_1303	s	s	9	1	SIC	173	ABS	2	2	24VD	0	1	0.65279507637	None	None	None	None	1
1.7	2015_Jul_27_1303	s	s	9	1	SIC	174	RC	2	2	23VD	1	0	0.867865085602	16.0	-319.0	26	-319	1
1.7	2015_Jul_27_1303	s	s	9	1	SIC	175	RC	1	1	23MO	1	0	2.24495792389	329.0	291.0	325	293	1
1.7	2015_Jul_27_1303	s	s	9	1	SIC	176	RC	2	1	23VO	1	0	0.740828990936	518.0	8.0	524	10	1
1.7	2015_Jul_27_1303	s	s	9	1	SIC	177	ABS	1	0	24MC	1	0	15.3328669071	None	None	-59	-329	0
1.7	2015_Jul_27_1303	s	s	9	1	SIC	178	ABS	1	2	24MD	0	1	0.736021995544	None	None	None	None	1
1.7	2015_Jul_27_1303	s	s	9	1	SIC	179	ABS	2	0	24VC	0	1	0.893913030624	None	None	None	None	1
1.7	2015_Jul_27_1303	s	s	9	1	SIC	180	ABS	1	1	24MO	0	1	3.17733597755	None	None	None	None	1
1.7	2015_Jul_27_1303	s	s	9	1	SIC	181	RC	1	0	23MC	1	0	2.35352802277	380.0	139.0	-154	-84	0
1.7	2015_Jul_27_1303	s	s	9	1	SIC	182	ABS	2	1	24VO	0	1	0.658452033997	None	None	None	None	1
1.7	2015_Jul_27_1303	s	s	9	1	SIC	183	RC	2	1	23VO	1	0	0.611379146576	-446.0	135.0	-451	133	1
1.7	2015_Jul_27_1303	s	s	9	1	SIC	184	ABS	0	1	24RO	0	1	4.21311712265	None	None	None	None	1
1.7	2015_Jul_27_1303	s	s	9	1	SIC	185	RC	1	1	23MO	1	0	2.81265711784	125.0	-172.0	129	-171	1
1.7	2015_Jul_27_1303	s	s	9	1	SIC	186	RC	0	2	23RD	1	0	1.1141409874	380.0	382.0	381	379	1
1.7	2015_Jul_27_1303	s	s	9	1	SIC	187	ABS	2	2	24VD	0	1	1.04734992981	None	None	None	None	1
1.7	2015_Jul_27_1303	s	s	9	1	SIC	188	RC	2	2	23VD	1	0	0.682020902634	-285.0	-308.0	-276	-308	1
1.7	2015_Jul_27_1303	s	s	9	1	SIC	189	RC	2	0	23VC	1	0	0.67019200325	-464.0	164.0	-456	163	1
1.7	2015_Jul_27_1303	s	s	9	1	SIC	190	RC	0	1	23RO	0	1	3.30141496658	429.0	-370.0	None	None	0
1.7	2015_Jul_27_1303	s	s	9	1	SIC	191	ABS	0	2	24RD	0	1	1.31241297722	None	None	None	None	1
1.7	2015_Jul_27_1303	s	s	9	1	SIC	192	RC	1	2	23MD	1	0	0.746742963791	243.0	386.0	245	385	1
1.7	2015_Jul_27_1303	s	s	9	1	SIC	193	RC	2	1	23VO	1	0	0.623044013977	-399.0	149.0	-401	146	1
1.7	2015_Jul_27_1303	s	s	9	1	SIC	194	RC	2	2	23VD	1	0	0.662119150162	187.0	-84.0	196	-87	1
1.7	2015_Jul_27_1303	s	s	9	1	SIC	195	RC	2	0	23VC	1	0	0.500077962875	-198.0	-122.0	-197	-124	1
1.7	2015_Jul_27_1303	s	s	9	1	SIC	196	ABS	2	2	24VD	0	1	0.940962076187	None	None	None	None	1
1.7	2015_Jul_27_1303	s	s	9	1	SIC	197	RC	0	1	23RO	1	0	3.39294600487	-426.0	314.0	-425	315	1
1.7	2015_Jul_27_1303	s	s	9	1	SIC	198	ABS	0	1	24RO	0	1	4.91179394722	None	None	None	None	1
1.7	2015_Jul_27_1303	s	s	9	1	SIC	199	ABS	2	1	24VO	0	1	0.853657007217	None	None	None	None	1
1.7	2015_Jul_27_1303	s	s	9	1	SIC	200	ABS	1	2	24MD	0	1	1.04201292992	None	None	None	None	1
1.7	2015_Jul_27_1303	s	s	9	1	SIC	201	RC	1	2	23MD	1	0	0.865437984467	439.0	359.0	443	355	1
1.7	2015_Jul_27_1303	s	s	9	1	SIC	202	RC	0	2	23RD	1	0	0.734175205231	425.0	-275.0	424	-277	1
1.7	2015_Jul_27_1303	s	s	9	1	SIC	203	ABS	1	1	24MO	0	1	3.98474311829	None	None	None	None	1
1.7	2015_Jul_27_1303	s	s	9	1	SIC	204	RC	1	1	23MO	1	0	5.32655787468	85.0	-89.0	80	-84	1
1.7	2015_Jul_27_1303	s	s	9	1	SIC	205	RC	1	0	23MC	1	0	1.60004401207	-79.0	284.0	-192	-289	0
1.7	2015_Jul_27_1303	s	s	9	1	SIC	206	ABS	1	0	24MC	1	0	0.726120948792	None	None	-169	196	0
1.7	2015_Jul_27_1303	s	s	9	1	SIC	207	ABS	2	0	24VC	0	1	1.90626502037	None	None	None	None	1
1.7	2015_Jul_27_1303	s	s	9	1	SIC	208	ABS	0	2	24RD	0	1	16.7203938961	None	None	None	None	1
1.7	2015_Jul_27_1303	s	s	9	1	SIC	209	RC	0	1	23RO	1	0	19.7106699944	-462.0	6.0	-459	3	1
1.7	2015_Jul_27_1303	s	s	9	1	SIC	210	ABS	0	1	24RO	0	0	-1	None	None	None	None	-1
1.7	2015_Jul_27_1303	s	s	9	1	SIC	211	RC	1	2	23MD	1	0	0.677139997482	-189.0	-226.0	-193	-219	1
1.7	2015_Jul_27_1303	s	s	9	1	SIC	212	ABS	1	0	24MC	0	1	3.91337203979	None	None	None	None	1
1.7	2015_Jul_27_1303	s	s	9	1	SIC	213	RC	0	2	23RD	1	0	0.576115131378	424.0	-404.0	428	-409	1
1.7	2015_Jul_27_1303	s	s	9	1	SIC	214	RC	1	0	23MC	1	0	5.80962014198	163.0	403.0	169	407	1
1.7	2015_Jul_27_1303	s	s	9	1	SIC	215	RC	2	1	23VO	1	0	0.759690999985	173.0	-345.0	174	-347	1
1.7	2015_Jul_27_1303	s	s	9	1	SIC	216	ABS	2	1	24VO	1	0	0.63544511795	None	None	-167	41	0
1.7	2015_Jul_27_1303	s	s	9	1	SIC	217	ABS	1	1	24MO	0	1	3.30129313469	None	None	None	None	1
1.7	2015_Jul_27_1303	s	s	9	1	SIC	218	ABS	2	2	24VD	0	1	0.611470937729	None	None	None	None	1
1.7	2015_Jul_27_1303	s	s	9	1	SIC	219	ABS	1	2	24MD	0	1	11.8679049015	None	None	None	None	1
1.7	2015_Jul_27_1303	s	s	9	1	SIC	220	RC	1	1	23MO	1	0	4.130890131	419.0	-335.0	417	-336	1
1.7	2015_Jul_27_1303	s	s	9	1	SIC	221	ABS	0	2	24RD	0	1	6.64466881752	None	None	None	None	1
1.7	2015_Jul_27_1303	s	s	9	1	SIC	222	RC	2	2	23VD	1	0	0.65838098526	501.0	87.0	500	87	1
1.7	2015_Jul_27_1303	s	s	9	1	SIC	223	ABS	2	0	24VC	0	1	1.04683804512	None	None	None	None	1
1.7	2015_Jul_27_1303	s	s	9	1	SIC	224	RC	2	0	23VC	1	0	0.652966976166	287.0	125.0	292	131	1
1.7	2015_Jul_27_1303	s	s	9	1	SIC	225	RC	2	2	23VD	1	0	0.646659851074	107.0	-151.0	106	-153	1
1.7	2015_Jul_27_1303	s	s	9	1	SIC	226	ABS	1	1	24MO	0	1	1.40032720566	None	None	None	None	1
1.7	2015_Jul_27_1303	s	s	9	1	SIC	227	ABS	0	2	24RD	0	1	0.81980919838	None	None	None	None	1
1.7	2015_Jul_27_1303	s	s	9	1	SIC	228	ABS	2	2	24VD	0	1	0.646587133408	None	None	None	None	1
1.7	2015_Jul_27_1303	s	s	9	1	SIC	229	ABS	1	0	24MC	1	0	1.09400296211	None	None	37	49	0
1.7	2015_Jul_27_1303	s	s	9	1	SIC	230	ABS	2	0	24VC	0	1	0.818445920944	None	None	None	None	1
1.7	2015_Jul_27_1303	s	s	9	1	SIC	231	RC	2	1	23VO	1	0	0.576225042343	51.0	112.0	52	104	1
1.7	2015_Jul_27_1303	s	s	9	1	SIC	232	RC	1	1	23MO	1	0	1.01183104515	-267.0	232.0	-263	232	1
1.7	2015_Jul_27_1303	s	s	9	1	SIC	233	ABS	2	1	24VO	0	1	0.717476844788	None	None	None	None	1
1.7	2015_Jul_27_1303	s	s	9	1	SIC	234	RC	0	1	23RO	0	1	3.95081090927	-449.0	-362.0	None	None	0
1.7	2015_Jul_27_1303	s	s	9	1	SIC	235	RC	2	0	23VC	1	0	0.609043836594	-246.0	228.0	-248	222	1
1.7	2015_Jul_27_1303	s	s	9	1	SIC	236	RC	1	0	23MC	1	0	1.77409696579	478.0	356.0	478	347	1
1.7	2015_Jul_27_1303	s	s	9	1	SIC	237	ABS	0	1	24RO	0	1	6.90872383118	None	None	None	None	1
1.7	2015_Jul_27_1303	s	s	9	1	SIC	238	ABS	1	2	24MD	0	1	0.858662843704	None	None	None	None	1
1.7	2015_Jul_27_1303	s	s	9	1	SIC	239	RC	0	2	23RD	1	0	0.747866868973	-450.0	115.0	-451	117	1
1.7	2015_Jul_27_1303	s	s	9	1	SIC	240	RC	1	2	23MD	1	0	0.676945924759	-286.0	-252.0	-281	-251	1
1.7	2015_Jul_27_1303	s	s	9	1	SIC	241	ABS	1	1	24MO	0	1	3.91095113754	None	None	None	None	1
1.7	2015_Jul_27_1303	s	s	9	1	SIC	242	ABS	2	2	24VD	0	1	0.623239040375	None	None	None	None	1
1.7	2015_Jul_27_1303	s	s	9	1	SIC	243	RC	2	0	23VC	1	0	1.6326110363	-3.0	38.0	-6	32	1
1.7	2015_Jul_27_1303	s	s	9	1	SIC	244	RC	0	2	23RD	1	0	7.22210693359	528.0	-209.0	527	-204	1
1.7	2015_Jul_27_1303	s	s	9	1	SIC	245	ABS	1	0	24MC	0	1	3.02975797653	None	None	None	None	1
1.7	2015_Jul_27_1303	s	s	9	1	SIC	246	RC	1	2	23MD	1	0	0.714588880539	514.0	-235.0	520	-236	1
1.7	2015_Jul_27_1303	s	s	9	1	SIC	247	ABS	0	1	24RO	0	1	2.78555297852	None	None	None	None	1
1.7	2015_Jul_27_1303	s	s	9	1	SIC	248	ABS	2	0	24VC	0	1	2.94909691811	None	None	None	None	1
1.7	2015_Jul_27_1303	s	s	9	1	SIC	249	ABS	2	1	24VO	0	1	0.597239017487	None	None	None	None	1
1.7	2015_Jul_27_1303	s	s	9	1	SIC	250	RC	1	1	23MO	1	0	0.923986911774	196.0	167.0	205	169	1
1.7	2015_Jul_27_1303	s	s	9	1	SIC	251	RC	0	1	23RO	1	0	3.13391709328	469.0	-70.0	461	-75	1
1.7	2015_Jul_27_1303	s	s	9	1	SIC	252	RC	2	1	23VO	1	0	0.643978834152	457.0	-199.0	462	-208	1
1.7	2015_Jul_27_1303	s	s	9	1	SIC	253	ABS	1	2	24MD	0	1	1.31764698029	None	None	None	None	1
1.7	2015_Jul_27_1303	s	s	9	1	SIC	254	RC	2	2	23VD	1	0	0.608206033707	357.0	151.0	357	151	1
1.7	2015_Jul_27_1303	s	s	9	1	SIC	255	ABS	0	2	24RD	0	1	1.32552194595	None	None	None	None	1
1.7	2015_Jul_27_1303	s	s	9	1	SIC	256	RC	1	0	23MC	1	0	2.59563183784	18.0	-236.0	20	-239	1
1.7	2015_Jul_27_1303	s	s	9	1	SIC	257	ABS	2	0	24VC	0	1	0.658478021622	None	None	None	None	1
1.7	2015_Jul_27_1303	s	s	9	1	SIC	258	ABS	1	0	24MC	1	0	2.00970005989	None	None	-509	359	0
1.7	2015_Jul_27_1303	s	s	9	1	SIC	259	RC	2	2	23VD	1	0	0.59555888176	-148.0	-331.0	-151	-333	1
1.7	2015_Jul_27_1303	s	s	9	1	SIC	260	ABS	2	1	24VO	0	1	0.729209899902	None	None	None	None	1
1.7	2015_Jul_27_1303	s	s	9	1	SIC	261	ABS	0	2	24RD	0	1	1.16462397575	None	None	None	None	1
1.7	2015_Jul_27_1303	s	s	9	1	SIC	262	ABS	1	2	24MD	0	1	1.3715429306	None	None	None	None	1
1.7	2015_Jul_27_1303	s	s	9	1	SIC	263	RC	0	2	23RD	1	0	0.576174020767	-374.0	280.0	-375	278	1
1.7	2015_Jul_27_1303	s	s	9	1	SIC	264	RC	2	1	23VO	1	0	1.88006615639	391.0	15.0	387	15	1
1.7	2015_Jul_27_1303	s	s	9	1	SIC	265	RC	1	1	23MO	1	0	1.10582780838	65.0	-98.0	62	-101	1
1.7	2015_Jul_27_1303	s	s	9	1	SIC	266	RC	2	0	23VC	1	0	0.702522993088	-110.0	262.0	-107	257	1
1.7	2015_Jul_27_1303	s	s	9	1	SIC	267	RC	0	1	23RO	1	0	2.9017739296	364.0	-10.0	369	-13	1
1.7	2015_Jul_27_1303	s	s	9	1	SIC	268	ABS	0	1	24RO	0	1	3.30307006836	None	None	None	None	1
1.7	2015_Jul_27_1303	s	s	9	1	SIC	269	ABS	2	2	24VD	0	1	0.658514976501	None	None	None	None	1
1.7	2015_Jul_27_1303	s	s	9	1	SIC	270	RC	1	2	23MD	1	0	0.952754974365	-147.0	82.0	-141	79	1
1.7	2015_Jul_27_1303	s	s	9	1	SIC	271	ABS	1	1	24MO	0	1	2.70662593842	None	None	None	None	1
1.7	2015_Jul_27_1303	s	s	9	1	SIC	272	RC	1	0	23MC	1	0	1.41182112694	-264.0	91.0	-258	84	1
1.7	2015_Jul_27_1303	s	s	9	1	SIC	273	ABS	2	2	24VD	0	1	2.08875107765	None	None	None	None	1
1.7	2015_Jul_27_1303	s	s	9	1	SIC	274	ABS	0	1	24RO	0	1	3.47159600258	None	None	None	None	1
1.7	2015_Jul_27_1303	s	s	9	1	SIC	275	RC	2	1	23VO	1	0	0.797383069992	398.0	-408.0	396	-402	1
1.7	2015_Jul_27_1303	s	s	9	1	SIC	276	ABS	1	0	24MC	1	0	2.26598405838	None	None	169	83	0
1.7	2015_Jul_27_1303	s	s	9	1	SIC	277	ABS	1	1	24MO	0	1	4.54283285141	None	None	None	None	1
1.7	2015_Jul_27_1303	s	s	9	1	SIC	278	RC	1	2	23MD	1	0	17.9704709053	383.0	390.0	378	389	1
1.7	2015_Jul_27_1303	s	s	9	1	SIC	279	RC	1	0	23MC	1	0	1.08228611946	92.0	176.0	101	174	1
1.7	2015_Jul_27_1303	s	s	9	1	SIC	280	RC	0	2	23RD	1	0	0.66588807106	385.0	-227.0	383	-227	1
1.7	2015_Jul_27_1303	s	s	9	1	SIC	281	ABS	1	2	24MD	0	1	1.37168502808	None	None	None	None	1
1.7	2015_Jul_27_1303	s	s	9	1	SIC	282	ABS	0	2	24RD	0	1	1.44437980652	None	None	None	None	1
1.7	2015_Jul_27_1303	s	s	9	1	SIC	283	RC	1	1	23MO	1	0	2.0630030632	305.0	-215.0	307	-214	1
1.7	2015_Jul_27_1303	s	s	9	1	SIC	284	RC	2	0	23VC	1	0	0.63482093811	-533.0	273.0	-534	274	1
1.7	2015_Jul_27_1303	s	s	9	1	SIC	285	ABS	2	0	24VC	0	1	0.773910045624	None	None	None	None	1
1.7	2015_Jul_27_1303	s	s	9	1	SIC	286	RC	0	1	23RO	1	0	3.28340506554	529.0	-226.0	530	-230	1
1.7	2015_Jul_27_1303	s	s	9	1	SIC	287	RC	2	2	23VD	1	0	0.535893201828	264.0	-77.0	262	-77	1
1.7	2015_Jul_27_1303	s	s	9	1	SIC	288	ABS	2	1	24VO	0	1	0.752583026886	None	None	None	None	1
1.7	2015_Jul_27_1303	s	s	9	1	SIC	289	RC	0	1	23RO	1	0	1.24204301834	419.0	-82.0	419	-89	1
1.7	2015_Jul_27_1303	s	s	9	1	SIC	290	ABS	1	0	24MC	0	1	3.49183797836	None	None	None	None	1
1.7	2015_Jul_27_1303	s	s	9	1	SIC	291	RC	1	1	23MO	1	0	1.24112820625	-273.0	185.0	-275	191	1
1.7	2015_Jul_27_1303	s	s	9	1	SIC	292	RC	1	0	23MC	1	0	2.27104902267	-21.0	-359.0	-24	-362	1
1.7	2015_Jul_27_1303	s	s	9	1	SIC	293	ABS	0	1	24RO	0	1	3.44812607765	None	None	None	None	1
1.7	2015_Jul_27_1303	s	s	9	1	SIC	294	RC	0	2	23RD	1	0	0.737879037857	302.0	-156.0	302	-153	1
1.7	2015_Jul_27_1303	s	s	9	1	SIC	295	RC	2	2	23VD	1	0	0.994844913483	474.0	76.0	477	73	1
1.7	2015_Jul_27_1303	s	s	9	1	SIC	296	ABS	2	2	24VD	0	1	0.835110187531	None	None	None	None	1
1.7	2015_Jul_27_1303	s	s	9	1	SIC	297	RC	2	1	23VO	1	0	0.740868091583	-150.0	107.0	-152	99	1
1.7	2015_Jul_27_1303	s	s	9	1	SIC	298	ABS	0	2	24RD	0	1	1.2704679966	None	None	None	None	1
1.7	2015_Jul_27_1303	s	s	9	1	SIC	299	RC	1	2	23MD	1	0	0.547508955002	-329.0	-166.0	-329	-171	1
1.7	2015_Jul_27_1303	s	s	9	1	SIC	300	ABS	2	1	24VO	0	1	0.797111988068	None	None	None	None	1
1.7	2015_Jul_27_1303	s	s	9	1	SIC	301	ABS	1	1	24MO	0	1	3.96971487999	None	None	None	None	1
1.7	2015_Jul_27_1303	s	s	9	1	SIC	302	ABS	2	0	24VC	0	1	0.996567964554	None	None	None	None	1
1.7	2015_Jul_27_1303	s	s	9	1	SIC	303	ABS	1	2	24MD	0	1	0.969076871872	None	None	None	None	1
1.7	2015_Jul_27_1303	s	s	9	1	SIC	304	RC	2	0	23VC	1	0	0.702982187271	532.0	-58.0	534	-59	1
1.7	2015_Jul_27_1303	s	s	9	1	SIC	305	ABS	1	2	24MD	0	0	-1	None	None	None	None	-1
1.7	2015_Jul_27_1303	s	s	9	1	SIC	306	ABS	1	0	24MC	0	1	9.16254901886	None	None	None	None	1
1.7	2015_Jul_27_1303	s	s	9	1	SIC	307	RC	2	1	23VO	1	0	0.667859077454	384.0	319.0	376	325	1
1.7	2015_Jul_27_1303	s	s	9	1	SIC	308	ABS	2	1	24VO	0	1	0.794178009033	None	None	None	None	1
1.7	2015_Jul_27_1303	s	s	9	1	SIC	309	RC	1	0	23MC	1	0	1.16473197937	-323.0	347.0	-320	348	1
1.7	2015_Jul_27_1303	s	s	9	1	SIC	310	ABS	0	1	24RO	0	1	3.51394605637	None	None	None	None	1
1.7	2015_Jul_27_1303	s	s	9	1	SIC	311	ABS	0	2	24RD	0	1	0.764454126358	None	None	None	None	1
1.7	2015_Jul_27_1303	s	s	9	1	SIC	312	RC	2	0	23VC	1	0	0.573807001114	-153.0	-47.0	-154	-47	1
1.7	2015_Jul_27_1303	s	s	9	1	SIC	313	RC	2	2	23VD	0	0	-1	-3.0	403.0	None	None	-1
1.7	2015_Jul_27_1303	s	s	9	1	SIC	314	ABS	2	2	24VD	0	1	19.2207169533	None	None	None	None	1
1.7	2015_Jul_27_1303	s	s	9	1	SIC	315	ABS	2	0	24VC	0	0	-1	None	None	None	None	-1
1.7	2015_Jul_27_1303	s	s	9	1	SIC	316	RC	0	2	23RD	1	0	12.7351741791	-348.0	-124.0	-350	-120	1
1.7	2015_Jul_27_1303	s	s	9	1	SIC	317	ABS	1	1	24MO	0	1	2.33697295189	None	None	None	None	1
1.7	2015_Jul_27_1303	s	s	9	1	SIC	318	RC	0	1	23RO	1	0	1.80023598671	306.0	-7.0	311	-5	1
1.7	2015_Jul_27_1303	s	s	9	1	SIC	319	RC	1	2	23MD	1	0	4.1544148922	-535.0	371.0	-528	364	1
1.7	2015_Jul_27_1303	s	s	9	1	SIC	320	RC	1	1	23MO	1	0	0.712383031845	-373.0	92.0	-372	95	1
1.7	2015_Jul_27_1303	s	s	9	1	SIC	321	RC	0	1	23RO	1	0	2.35348892212	168.0	-336.0	159	-339	1
1.7	2015_Jul_27_1303	s	s	9	1	SIC	322	RC	1	1	23MO	1	0	0.673981904984	-290.0	-160.0	-286	-163	1
1.7	2015_Jul_27_1303	s	s	9	1	SIC	323	RC	0	2	23RD	1	0	0.584404945374	300.0	-337.0	294	-341	1
1.7	2015_Jul_27_1303	s	s	9	1	SIC	324	RC	2	0	23VC	1	0	0.517205953598	-455.0	253.0	-450	242	1
1.7	2015_Jul_27_1303	s	s	9	1	SIC	325	ABS	2	2	24VD	0	1	0.529108047485	None	None	None	None	1
1.7	2015_Jul_27_1303	s	s	9	1	SIC	326	RC	1	0	23MC	1	0	1.01616692543	505.0	-404.0	-37	70	0
1.7	2015_Jul_27_1303	s	s	9	1	SIC	327	ABS	1	2	24MD	0	1	13.311934948	None	None	None	None	1
1.7	2015_Jul_27_1303	s	s	9	1	SIC	328	ABS	1	0	24MC	1	0	3.16001200676	None	None	-394	-352	0
1.7	2015_Jul_27_1303	s	s	9	1	SIC	329	RC	1	2	23MD	1	0	0.829633951187	495.0	-395.0	487	-388	1
1.7	2015_Jul_27_1303	s	s	9	1	SIC	330	RC	2	1	23VO	1	0	0.535111188889	344.0	-72.0	347	-77	1
1.7	2015_Jul_27_1303	s	s	9	1	SIC	331	ABS	2	0	24VC	0	1	0.811776161194	None	None	None	None	1
1.7	2015_Jul_27_1303	s	s	9	1	SIC	332	ABS	0	1	24RO	0	1	3.85209488869	None	None	None	None	1
1.7	2015_Jul_27_1303	s	s	9	1	SIC	333	RC	2	2	23VD	1	0	0.658433914185	511.0	-61.0	514	-63	1
1.7	2015_Jul_27_1303	s	s	9	1	SIC	334	ABS	2	1	24VO	0	0	-1	None	None	None	None	-1
1.7	2015_Jul_27_1303	s	s	9	1	SIC	335	ABS	1	1	24MO	0	1	16.513666153	None	None	None	None	1
1.7	2015_Jul_27_1303	s	s	9	1	SIC	336	ABS	0	2	24RD	0	1	11.0586841106	None	None	None	None	1
1.7	2015_Jul_27_1303	s	s	9	1	SIC	337	RC	1	0	23MC	1	0	1.35305094719	-472.0	278.0	-473	266	1
1.7	2015_Jul_27_1303	s	s	9	1	SIC	338	RC	0	1	23RO	1	0	1.90098595619	513.0	160.0	516	156	1
1.7	2015_Jul_27_1303	s	s	9	1	SIC	339	ABS	2	0	24VC	0	0	-1	None	None	None	None	-1
1.7	2015_Jul_27_1303	s	s	9	1	SIC	340	RC	1	2	23MD	0	0	-1	-255.0	-200.0	None	None	-1
1.7	2015_Jul_27_1303	s	s	9	1	SIC	341	ABS	2	1	24VO	0	1	15.989964962	None	None	None	None	1
1.7	2015_Jul_27_1303	s	s	9	1	SIC	342	RC	2	1	23VO	1	0	1.20913910866	-115.0	137.0	-110	142	1
1.7	2015_Jul_27_1303	s	s	9	1	SIC	343	ABS	2	2	24VD	0	1	0.85218501091	None	None	None	None	1
1.7	2015_Jul_27_1303	s	s	9	1	SIC	344	ABS	1	0	24MC	0	1	0.888294935226	None	None	None	None	1
1.7	2015_Jul_27_1303	s	s	9	1	SIC	345	RC	0	2	23RD	1	0	0.670313119888	230.0	121.0	225	122	1
1.7	2015_Jul_27_1303	s	s	9	1	SIC	346	RC	2	0	23VC	1	0	0.57316493988	-127.0	282.0	-138	-30	0
1.7	2015_Jul_27_1303	s	s	9	1	SIC	347	ABS	0	2	24RD	0	1	6.35549688339	None	None	None	None	1
1.7	2015_Jul_27_1303	s	s	9	1	SIC	348	ABS	0	1	24RO	0	1	1.60948109627	None	None	None	None	1
1.7	2015_Jul_27_1303	s	s	9	1	SIC	349	ABS	1	1	24MO	0	1	2.16177392006	None	None	None	None	1
1.7	2015_Jul_27_1303	s	s	9	1	SIC	350	ABS	1	2	24MD	0	1	0.570349931717	None	None	None	None	1
1.7	2015_Jul_27_1303	s	s	9	1	SIC	351	RC	2	2	23VD	1	0	1.00591397285	198.0	189.0	200	191	1
1.7	2015_Jul_27_1303	s	s	9	1	SIC	352	RC	1	1	23MO	0	1	1.11271095276	-471.0	231.0	None	None	0
1.7	2015_Jul_27_1303	s	s	9	1	SIC	353	RC	2	1	23VO	1	0	1.01791810989	196.0	-355.0	204	-357	1
1.7	2015_Jul_27_1303	s	s	9	1	SIC	354	ABS	2	1	24VO	0	1	0.725358963013	None	None	None	None	1
1.7	2015_Jul_27_1303	s	s	9	1	SIC	355	ABS	2	0	24VC	0	1	0.526378154755	None	None	None	None	1
1.7	2015_Jul_27_1303	s	s	9	1	SIC	356	ABS	1	0	24MC	0	1	0.840960025787	None	None	None	None	1
1.7	2015_Jul_27_1303	s	s	9	1	SIC	357	ABS	2	2	24VD	0	1	0.0790967941284	None	None	None	None	1
1.7	2015_Jul_27_1303	s	s	9	1	SIC	358	ABS	0	2	24RD	0	1	0.670266866684	None	None	None	None	1
1.7	2015_Jul_27_1303	s	s	9	1	SIC	359	RC	0	2	23RD	1	0	0.611472129822	424.0	-304.0	426	-296	1
1.7	2015_Jul_27_1303	s	s	9	1	SIC	360	RC	1	2	23MD	1	0	3.91093397141	405.0	29.0	411	30	1
1.7	2015_Jul_27_1303	s	s	9	1	SIC	361	RC	0	1	23RO	1	0	0.667932987213	25.0	-15.0	34	-11	1
1.7	2015_Jul_27_1303	s	s	9	1	SIC	362	RC	1	0	23MC	1	0	1.97667884827	-16.0	-394.0	-19	-408	1
1.7	2015_Jul_27_1303	s	s	9	1	SIC	363	RC	1	1	23MO	1	0	2.05404996872	-437.0	-122.0	-434	-129	1
1.7	2015_Jul_27_1303	s	s	9	1	SIC	364	RC	2	0	23VC	1	0	0.497422933578	-487.0	-109.0	-476	-104	1
1.7	2015_Jul_27_1303	s	s	9	1	SIC	365	ABS	1	2	24MD	0	1	0.950115919113	None	None	None	None	1
1.7	2015_Jul_27_1303	s	s	9	1	SIC	366	ABS	0	1	24RO	1	0	8.65845298767	None	None	-115	-65	0
1.7	2015_Jul_27_1303	s	s	9	1	SIC	367	RC	2	2	23VD	0	0	-1	428.0	-152.0	None	None	-1
1.7	2015_Jul_27_1303	s	s	9	1	SIC	368	ABS	1	1	24MO	0	1	15.5017418861	None	None	None	None	1
1.7	2015_Jul_27_1303	s	s	9	1	SIC	369	ABS	1	2	24MD	0	1	0.597225189209	None	None	None	None	1
1.7	2015_Jul_27_1303	s	s	9	1	SIC	370	RC	1	1	23MO	1	0	1.52949094772	-493.0	-261.0	-490	-256	1
1.7	2015_Jul_27_1303	s	s	9	1	SIC	371	RC	2	2	23VD	1	0	0.5444419384	-186.0	-197.0	-183	-200	1
1.7	2015_Jul_27_1303	s	s	9	1	SIC	372	RC	2	1	23VO	1	0	0.620316028595	-466.0	260.0	-463	259	1
1.7	2015_Jul_27_1303	s	s	9	1	SIC	373	ABS	2	0	24VC	0	1	0.670286893845	None	None	None	None	1
1.7	2015_Jul_27_1303	s	s	9	1	SIC	374	RC	0	2	23RD	1	0	0.735091924667	473.0	398.0	477	393	1
1.7	2015_Jul_27_1303	s	s	9	1	SIC	375	RC	0	1	23RO	1	0	2.3739118576	390.0	-410.0	386	-416	1
1.7	2015_Jul_27_1303	s	s	9	1	SIC	376	ABS	0	1	24RO	0	1	3.96117401123	None	None	None	None	1
1.7	2015_Jul_27_1303	s	s	9	1	SIC	377	ABS	2	1	24VO	0	1	0.690388917923	None	None	None	None	1
1.7	2015_Jul_27_1303	s	s	9	1	SIC	378	RC	1	2	23MD	1	0	0.572457075119	-357.0	128.0	-352	131	1
1.7	2015_Jul_27_1303	s	s	9	1	SIC	379	ABS	2	2	24VD	0	1	0.635075092316	None	None	None	None	1
1.7	2015_Jul_27_1303	s	s	9	1	SIC	380	ABS	0	2	24RD	0	1	1.32534003258	None	None	None	None	1
1.7	2015_Jul_27_1303	s	s	9	1	SIC	381	RC	1	0	23MC	1	0	1.04336094856	-104.0	360.0	-99	360	1
1.7	2015_Jul_27_1303	s	s	9	1	SIC	382	ABS	1	0	24MC	1	0	3.34233999252	None	None	-384	-360	0
1.7	2015_Jul_27_1303	s	s	9	1	SIC	383	RC	2	0	23VC	1	0	0.752595901489	447.0	272.0	450	272	1
1.7	2015_Jul_27_1303	s	s	9	1	SIC	384	ABS	1	1	24MO	0	1	6.14362120628	None	None	None	None	1
1.7	2015_Jul_27_1303	s	s	9	1	SIC	385	RC	1	2	23MD	1	0	0.584107875824	291.0	212.0	291	209	1
1.7	2015_Jul_27_1303	s	s	9	1	SIC	386	ABS	2	0	24VC	0	1	0.670542001724	None	None	None	None	1
1.7	2015_Jul_27_1303	s	s	9	1	SIC	387	ABS	1	0	24MC	0	1	1.85905885696	None	None	None	None	1
1.7	2015_Jul_27_1303	s	s	9	1	SIC	388	RC	2	1	23VO	1	0	0.658477067947	-30.0	-252.0	-29	-246	1
1.7	2015_Jul_27_1303	s	s	9	1	SIC	389	RC	2	2	23VD	1	0	0.717344999313	219.0	-116.0	216	-119	1
1.7	2015_Jul_27_1303	s	s	9	1	SIC	390	RC	1	0	23MC	1	0	1.3356089592	-290.0	-312.0	-292	-317	1
1.7	2015_Jul_27_1303	s	s	9	1	SIC	391	RC	2	0	23VC	1	0	0.512413024902	-396.0	-163.0	-401	-154	1
1.7	2015_Jul_27_1303	s	s	9	1	SIC	392	RC	1	1	23MO	1	0	0.587893009186	465.0	62.0	459	63	1
1.7	2015_Jul_27_1303	s	s	9	1	SIC	393	ABS	1	2	24MD	0	1	0.925687074661	None	None	None	None	1
1.7	2015_Jul_27_1303	s	s	9	1	SIC	394	RC	0	1	23RO	1	0	2.5042078495	-323.0	166.0	-323	172	1
1.7	2015_Jul_27_1303	s	s	9	1	SIC	395	ABS	1	1	24MO	0	1	3.60120415688	None	None	None	None	1
1.7	2015_Jul_27_1303	s	s	9	1	SIC	396	ABS	0	1	24RO	0	1	13.9361891747	None	None	None	None	1
1.7	2015_Jul_27_1303	s	s	9	1	SIC	397	ABS	0	2	24RD	0	1	0.587886095047	None	None	None	None	1
1.7	2015_Jul_27_1303	s	s	9	1	SIC	398	ABS	2	2	24VD	0	1	0.561120986938	None	None	None	None	1
1.7	2015_Jul_27_1303	s	s	9	1	SIC	399	ABS	2	1	24VO	0	1	0.470216035843	None	None	None	None	1
1.7	2015_Jul_27_1303	s	s	9	1	SIC	400	RC	0	2	23RD	1	0	0.588069915771	-249.0	62.0	-244	58	1
1.7	2015_Jul_27_1303	s	s	9	1	SIC	401	RC	0	1	23RO	0	1	9.59241390228	169.0	122.0	None	None	0
1.7	2015_Jul_27_1303	s	s	9	1	SIC	402	RC	1	0	23MC	1	0	1.01164197922	-136.0	-154.0	-138	-154	1
1.7	2015_Jul_27_1303	s	s	9	1	SIC	403	ABS	0	1	24RO	0	1	4.2721529007	None	None	None	None	1
1.7	2015_Jul_27_1303	s	s	9	1	SIC	404	RC	2	1	23VO	1	0	0.655604124069	324.0	-139.0	324	-140	1
1.7	2015_Jul_27_1303	s	s	9	1	SIC	405	ABS	0	2	24RD	0	1	0.676903009415	None	None	None	None	1
1.7	2015_Jul_27_1303	s	s	9	1	SIC	406	RC	2	2	23VD	1	0	0.541184902191	303.0	213.0	303	216	1
1.7	2015_Jul_27_1303	s	s	9	1	SIC	407	RC	0	2	23RD	1	0	1.0304350853	8.0	-296.0	10	-294	1
1.7	2015_Jul_27_1303	s	s	9	1	SIC	408	ABS	1	1	24MO	0	1	2.00036692619	None	None	None	None	1
1.7	2015_Jul_27_1303	s	s	9	1	SIC	409	ABS	1	0	24MC	0	1	0.811542034149	None	None	None	None	1
1.7	2015_Jul_27_1303	s	s	9	1	SIC	410	ABS	2	0	24VC	0	1	0.523041009903	None	None	None	None	1
1.7	2015_Jul_27_1303	s	s	9	1	SIC	411	ABS	1	2	24MD	0	1	0.749346971512	None	None	None	None	1
1.7	2015_Jul_27_1303	s	s	9	1	SIC	412	RC	1	1	23MO	1	0	0.584843873978	-136.0	-42.0	-142	-47	1
1.7	2015_Jul_27_1303	s	s	9	1	SIC	413	RC	2	0	23VC	1	0	0.736092090607	460.0	340.0	464	342	1
1.7	2015_Jul_27_1303	s	s	9	1	SIC	414	ABS	2	2	24VD	0	1	0.705626964569	None	None	None	None	1
1.7	2015_Jul_27_1303	s	s	9	1	SIC	415	RC	1	2	23MD	1	0	0.693900108337	278.0	-390.0	279	-384	1
1.7	2015_Jul_27_1303	s	s	9	1	SIC	416	ABS	2	1	24VO	0	1	0.723205089569	None	None	None	None	1
1.7	2015_Jul_27_1303	s	s	9	1	SIC	417	ABS	1	2	24MD	0	1	0.770216941833	None	None	None	None	1
1.7	2015_Jul_27_1303	s	s	9	1	SIC	418	RC	0	2	23RD	1	0	1.01171588898	531.0	-229.0	531	-230	1
1.7	2015_Jul_27_1303	s	s	9	1	SIC	419	RC	1	2	23MD	1	0	1.05861616135	38.0	-80.0	36	-81	1
1.7	2015_Jul_27_1303	s	s	9	1	SIC	420	ABS	2	0	24VC	0	1	1.08926510811	None	None	None	None	1
1.7	2015_Jul_27_1303	s	s	9	1	SIC	421	RC	1	0	23MC	1	0	1.36482000351	285.0	-277.0	-377	-181	0
1.7	2015_Jul_27_1303	s	s	9	1	SIC	422	RC	2	2	23VD	1	0	0.634829044342	-365.0	224.0	-364	221	1
1.7	2015_Jul_27_1303	s	s	9	1	SIC	423	ABS	2	1	24VO	0	1	0.776172876358	None	None	None	None	1
1.7	2015_Jul_27_1303	s	s	9	1	SIC	424	RC	0	1	23RO	1	0	2.72483992577	-396.0	-156.0	-396	-149	1
1.7	2015_Jul_27_1303	s	s	9	1	SIC	425	ABS	2	2	24VD	0	1	4.59832286835	None	None	None	None	1
1.7	2015_Jul_27_1303	s	s	9	1	SIC	426	ABS	0	2	24RD	0	1	0.740998983383	None	None	None	None	1
1.7	2015_Jul_27_1303	s	s	9	1	SIC	427	ABS	1	1	24MO	0	1	0.776263952255	None	None	None	None	1
1.7	2015_Jul_27_1303	s	s	9	1	SIC	428	RC	1	1	23MO	0	1	0.403541088104	249.0	265.0	None	None	0
1.7	2015_Jul_27_1303	s	s	9	1	SIC	429	RC	2	0	23VC	0	1	0.211179018021	-476.0	306.0	None	None	0
1.7	2015_Jul_27_1303	s	s	9	1	SIC	430	ABS	0	1	24RO	0	1	0.738275051117	None	None	None	None	1
1.7	2015_Jul_27_1303	s	s	9	1	SIC	431	ABS	1	0	24MC	1	0	0.841606855392	None	None	-451	377	0
1.7	2015_Jul_27_1303	s	s	9	1	SIC	432	RC	2	1	23VO	1	0	0.666929006577	-140.0	215.0	-141	209	1
1.7	2015_Jul_27_1303	s	s	9	1	SIC	433	RC	1	2	23MD	0	1	0.655941009521	13.0	-171.0	None	None	0
1.7	2015_Jul_27_1303	s	s	9	1	SIC	434	ABS	1	0	24MC	0	1	0.929283857346	None	None	None	None	1
1.7	2015_Jul_27_1303	s	s	9	1	SIC	435	ABS	2	0	24VC	0	1	0.811563968658	None	None	None	None	1
1.7	2015_Jul_27_1303	s	s	9	1	SIC	436	RC	2	1	23VO	1	0	0.723611831665	-534.0	-334.0	-535	-331	1
1.7	2015_Jul_27_1303	s	s	9	1	SIC	437	ABS	1	2	24MD	0	1	1.00888681412	None	None	None	None	1
1.7	2015_Jul_27_1303	s	s	9	1	SIC	438	RC	2	2	23VD	1	0	0.606040000916	-282.0	300.0	-275	300	1
1.7	2015_Jul_27_1303	s	s	9	1	SIC	439	RC	0	1	23RO	0	1	0.505466938019	-91.0	-411.0	None	None	0
1.7	2015_Jul_27_1303	s	s	9	1	SIC	440	RC	2	0	23VC	0	1	0.164201974869	398.0	-4.0	None	None	0
1.7	2015_Jul_27_1303	s	s	9	1	SIC	441	RC	1	0	23MC	0	1	0.528974056244	341.0	-280.0	None	None	0
1.7	2015_Jul_27_1303	s	s	9	1	SIC	442	ABS	1	1	24MO	0	1	0.287167072296	None	None	None	None	1
1.7	2015_Jul_27_1303	s	s	9	1	SIC	443	ABS	2	2	24VD	0	1	0.385494947433	None	None	None	None	1
1.7	2015_Jul_27_1303	s	s	9	1	SIC	444	ABS	2	1	24VO	0	1	0.0620210170746	None	None	None	None	1
1.7	2015_Jul_27_1303	s	s	9	1	SIC	445	ABS	0	1	24RO	0	1	0.858658075333	None	None	None	None	1
1.7	2015_Jul_27_1303	s	s	9	1	SIC	446	ABS	0	2	24RD	0	1	0.532821893692	None	None	None	None	1
1.7	2015_Jul_27_1303	s	s	9	1	SIC	447	RC	0	2	23RD	1	0	0.656118154526	-173.0	-237.0	-173	-239	1
1.7	2015_Jul_27_1303	s	s	9	1	SIC	448	RC	1	1	23MO	0	1	0.328943967819	-538.0	-295.0	None	None	0
1.7	2015_Jul_27_1303	s	s	9	1	SIC	449	ABS	0	2	24RD	0	1	0.431884050369	None	None	None	None	1
1.7	2015_Jul_27_1303	s	s	9	1	SIC	450	ABS	1	2	24MD	0	1	0.387699127197	None	None	None	None	1
1.7	2015_Jul_27_1303	s	s	9	1	SIC	451	RC	1	1	23MO	0	1	0.123805999756	38.0	-402.0	None	None	0
1.7	2015_Jul_27_1303	s	s	9	1	SIC	452	ABS	2	0	24VC	0	1	0.41178393364	None	None	None	None	1
1.7	2015_Jul_27_1303	s	s	9	1	SIC	453	ABS	1	1	24MO	0	1	0.0700471401215	None	None	None	None	1
1.7	2015_Jul_27_1303	s	s	9	1	SIC	454	RC	2	0	23VC	1	0	1.0298910141	414.0	181.0	423	184	1
1.7	2015_Jul_27_1303	s	s	9	1	SIC	455	RC	0	1	23RO	1	0	0.947406053543	502.0	120.0	152	-357	0
1.7	2015_Jul_27_1303	s	s	9	1	SIC	456	RC	0	2	23RD	1	0	0.776187896729	154.0	230.0	159	229	1
1.7	2015_Jul_27_1303	s	s	9	1	SIC	457	RC	1	2	23MD	1	0	1.6793820858	-337.0	-53.0	-334	-57	1
1.7	2015_Jul_27_1303	s	s	9	1	SIC	458	ABS	1	0	24MC	0	1	1.3177189827	None	None	None	None	1
1.7	2015_Jul_27_1303	s	s	9	1	SIC	459	ABS	0	1	24RO	0	1	1.58349585533	None	None	None	None	1
1.7	2015_Jul_27_1303	s	s	9	1	SIC	460	RC	2	2	23VD	1	0	0.607050895691	91.0	287.0	90	281	1
1.7	2015_Jul_27_1303	s	s	9	1	SIC	461	ABS	2	2	24VD	0	1	0.517479896545	None	None	None	None	1
1.7	2015_Jul_27_1303	s	s	9	1	SIC	462	RC	2	1	23VO	1	0	0.846847057343	394.0	-92.0	394	-90	1
1.7	2015_Jul_27_1303	s	s	9	1	SIC	463	RC	1	0	23MC	1	0	1.48859000206	111.0	-335.0	115	-332	1
1.7	2015_Jul_27_1303	s	s	9	1	SIC	464	ABS	2	1	24VO	0	1	3.20713591576	None	None	None	None	1
1.7	2015_Jul_27_1303	s	s	9	1	SIC	465	ABS	1	0	24MC	0	1	1.47072696686	None	None	None	None	1
1.7	2015_Jul_27_1303	s	s	9	1	SIC	466	ABS	2	1	24VO	0	1	0.749097108841	None	None	None	None	1
1.7	2015_Jul_27_1303	s	s	9	1	SIC	467	ABS	0	2	24RD	0	1	0.63502907753	None	None	None	None	1
1.7	2015_Jul_27_1303	s	s	9	1	SIC	468	RC	2	1	23VO	1	0	0.93777012825	96.0	130.0	93	128	1
1.7	2015_Jul_27_1303	s	s	9	1	SIC	469	ABS	1	1	24MO	0	1	0.890269041061	None	None	None	None	1
1.7	2015_Jul_27_1303	s	s	9	1	SIC	470	RC	1	0	23MC	0	1	0.656302928925	28.0	-244.0	None	None	0
1.7	2015_Jul_27_1303	s	s	9	1	SIC	471	RC	1	2	23MD	1	0	0.843987941742	528.0	-260.0	528	-260	1
1.7	2015_Jul_27_1303	s	s	9	1	SIC	472	RC	2	2	23VD	1	0	0.512130022049	514.0	225.0	510	224	1
1.7	2015_Jul_27_1303	s	s	9	1	SIC	473	ABS	2	2	24VD	0	1	0.611406087875	None	None	None	None	1
1.7	2015_Jul_27_1303	s	s	9	1	SIC	474	RC	0	1	23RO	0	1	1.54125404358	464.0	2.0	None	None	0
1.7	2015_Jul_27_1303	s	s	9	1	SIC	475	ABS	2	0	24VC	0	1	0.72690320015	None	None	None	None	1
1.7	2015_Jul_27_1303	s	s	9	1	SIC	476	RC	2	0	23VC	0	1	0.819052934647	370.0	-37.0	None	None	0
1.7	2015_Jul_27_1303	s	s	9	1	SIC	477	RC	0	2	23RD	1	0	0.630379915237	199.0	-374.0	196	-372	1
1.7	2015_Jul_27_1303	s	s	9	1	SIC	478	RC	1	1	23MO	1	0	1.47905611992	266.0	411.0	264	409	1
1.7	2015_Jul_27_1303	s	s	9	1	SIC	479	ABS	0	1	24RO	1	0	0.823349952698	None	None	43	-115	0
1.7	2015_Jul_27_1303	s	s	9	1	SIC	480	ABS	1	2	24MD	0	1	0.37593793869	None	None	None	None	1
1.7	2015_Jul_27_1303	s	s	9	1	SIC	481	ABS	2	2	24VD	0	1	0.572158098221	None	None	None	None	1
1.7	2015_Jul_27_1303	s	s	9	1	SIC	482	RC	0	2	23RD	1	0	0.667618989944	-352.0	41.0	-349	36	1
1.7	2015_Jul_27_1303	s	s	9	1	SIC	483	ABS	0	1	24RO	0	1	0.772203922272	None	None	None	None	1
1.7	2015_Jul_27_1303	s	s	9	1	SIC	484	RC	2	2	23VD	0	1	0.383203983307	343.0	-267.0	None	None	0
1.7	2015_Jul_27_1303	s	s	9	1	SIC	485	ABS	1	2	24MD	0	1	1.15018105507	None	None	None	None	1
1.7	2015_Jul_27_1303	s	s	9	1	SIC	486	RC	1	0	23MC	0	1	0.843505144119	275.0	57.0	None	None	0
1.7	2015_Jul_27_1303	s	s	9	1	SIC	487	ABS	1	0	24MC	0	1	0.797326087952	None	None	None	None	1
1.7	2015_Jul_27_1303	s	s	9	1	SIC	488	RC	0	1	23RO	0	1	0.584187030792	526.0	-207.0	None	None	0
1.7	2015_Jul_27_1303	s	s	9	1	SIC	489	RC	2	1	23VO	0	1	0.693876028061	-14.0	-317.0	None	None	0
1.7	2015_Jul_27_1303	s	s	9	1	SIC	490	ABS	2	1	24VO	0	1	0.441730976105	None	None	None	None	1
1.7	2015_Jul_27_1303	s	s	9	1	SIC	491	RC	1	2	23MD	0	1	0.39967918396	76.0	-266.0	None	None	0
1.7	2015_Jul_27_1303	s	s	9	1	SIC	492	ABS	1	1	24MO	0	1	0.570992946625	None	None	None	None	1
1.7	2015_Jul_27_1303	s	s	9	1	SIC	493	ABS	0	2	24RD	0	1	0.785494089127	None	None	None	None	1
1.7	2015_Jul_27_1303	s	s	9	1	SIC	494	ABS	2	0	24VC	0	1	0.65297293663	None	None	None	None	1
1.7	2015_Jul_27_1303	s	s	9	1	SIC	495	RC	2	0	23VC	1	0	0.879585027695	516.0	213.0	511	210	1
1.7	2015_Jul_27_1303	s	s	9	1	SIC	496	RC	1	1	23MO	1	0	1.31770896912	102.0	28.0	101	33	1
1.7	2015_Jul_27_1303	s	s	9	1	SIC	497	RC	2	2	23VD	1	0	0.682013988495	-539.0	78.0	-540	84	1
1.7	2015_Jul_27_1303	s	s	9	1	SIC	498	RC	1	1	23MO	1	0	1.03016209602	56.0	133.0	53	128	1
1.7	2015_Jul_27_1303	s	s	9	1	SIC	499	RC	0	1	23RO	1	0	2.52809906006	389.0	-206.0	392	-209	1
1.7	2015_Jul_27_1303	s	s	9	1	SIC	500	ABS	0	1	24RO	1	0	4.44523596764	None	None	-37	143	0
1.7	2015_Jul_27_1303	s	s	9	1	SIC	501	ABS	1	2	24MD	0	1	0.429467916489	None	None	None	None	1
1.7	2015_Jul_27_1303	s	s	9	1	SIC	502	RC	2	1	23VO	1	0	0.752655982971	-435.0	-400.0	-434	-412	1
1.7	2015_Jul_27_1303	s	s	9	1	SIC	503	ABS	2	2	24VD	0	1	1.78325915337	None	None	None	None	1
1.7	2015_Jul_27_1303	s	s	9	1	SIC	504	RC	1	2	23MD	0	1	1.55310416222	280.0	-28.0	None	None	0
1.7	2015_Jul_27_1303	s	s	9	1	SIC	505	ABS	2	0	24VC	0	1	2.2593998909	None	None	None	None	1
1.7	2015_Jul_27_1303	s	s	9	1	SIC	506	RC	2	0	23VC	1	0	0.714745044708	-167.0	-129.0	-174	-131	1
1.7	2015_Jul_27_1303	s	s	9	1	SIC	507	ABS	2	1	24VO	0	1	0.785352945328	None	None	None	None	1
1.7	2015_Jul_27_1303	s	s	9	1	SIC	508	RC	1	0	23MC	1	0	1.23084282875	-244.0	155.0	-245	151	1
1.7	2015_Jul_27_1303	s	s	9	1	SIC	509	ABS	1	1	24MO	0	1	1.21547913551	None	None	None	None	1
1.7	2015_Jul_27_1303	s	s	9	1	SIC	510	ABS	0	2	24RD	0	1	0.785218000412	None	None	None	None	1
1.7	2015_Jul_27_1303	s	s	9	1	SIC	511	RC	0	2	23RD	0	1	2.0213830471	498.0	270.0	None	None	0
1.7	2015_Jul_27_1303	s	s	9	1	SIC	512	ABS	1	0	24MC	0	1	10.9075279236	None	None	None	None	1
1.7	2015_Jul_27_1303	s	s	9	1	SIC	513	ABS	2	1	24VO	0	1	0.561947107315	None	None	None	None	1
1.7	2015_Jul_27_1303	s	s	9	1	SIC	514	RC	2	0	23VC	1	0	0.529412031174	16.0	11.0	19	6	1
1.7	2015_Jul_27_1303	s	s	9	1	SIC	515	ABS	1	2	24MD	0	1	0.808222055435	None	None	None	None	1
1.7	2015_Jul_27_1303	s	s	9	1	SIC	516	ABS	0	2	24RD	0	1	1.11382198334	None	None	None	None	1
1.7	2015_Jul_27_1303	s	s	9	1	SIC	517	RC	1	2	23MD	1	0	0.630103111267	-105.0	364.0	-103	361	1
1.7	2015_Jul_27_1303	s	s	9	1	SIC	518	RC	1	1	23MO	1	0	0.937375068665	-21.0	351.0	-16	353	1
1.7	2015_Jul_27_1303	s	s	9	1	SIC	519	RC	2	2	23VD	1	0	0.799715042114	237.0	371.0	233	369	1
1.7	2015_Jul_27_1303	s	s	9	1	SIC	520	RC	1	0	23MC	1	0	1.14103794098	29.0	156.0	27	165	1
1.7	2015_Jul_27_1303	s	s	9	1	SIC	521	RC	0	1	23RO	0	1	0.959579944611	-241.0	-392.0	None	None	0
1.7	2015_Jul_27_1303	s	s	9	1	SIC	522	RC	2	1	23VO	1	0	3.97275090218	233.0	-371.0	239	-374	1
1.7	2015_Jul_27_1303	s	s	9	1	SIC	523	ABS	2	2	24VD	0	1	0.735279083252	None	None	None	None	1
1.7	2015_Jul_27_1303	s	s	9	1	SIC	524	ABS	2	0	24VC	0	1	0.641763925552	None	None	None	None	1
1.7	2015_Jul_27_1303	s	s	9	1	SIC	525	ABS	1	1	24MO	0	1	0.929191112518	None	None	None	None	1
1.7	2015_Jul_27_1303	s	s	9	1	SIC	526	RC	0	2	23RD	1	0	0.665156126022	-279.0	225.0	-283	228	1
1.7	2015_Jul_27_1303	s	s	9	1	SIC	527	ABS	1	0	24MC	0	1	1.40918803215	None	None	None	None	1
1.7	2015_Jul_27_1303	s	s	9	1	SIC	528	ABS	0	1	24RO	0	1	2.06778907776	None	None	None	None	1
1.7	2015_Jul_27_1303	s	s	9	1	SIC	529	RC	2	0	23VC	1	0	0.752643108368	519.0	286.0	513	295	1
1.7	2015_Jul_27_1303	s	s	9	1	SIC	530	RC	2	2	23VD	1	0	0.58793091774	-279.0	-197.0	-279	-213	1
1.7	2015_Jul_27_1303	s	s	9	1	SIC	531	ABS	0	1	24RO	0	1	2.62991285324	None	None	None	None	1
1.7	2015_Jul_27_1303	s	s	9	1	SIC	532	RC	1	2	23MD	1	0	0.670289993286	153.0	117.0	149	119	1
1.7	2015_Jul_27_1303	s	s	9	1	SIC	533	RC	0	2	23RD	1	0	0.749262809753	88.0	-190.0	93	-188	1
1.7	2015_Jul_27_1303	s	s	9	1	SIC	534	ABS	2	1	24VO	0	1	0.705502033234	None	None	None	None	1
1.7	2015_Jul_27_1303	s	s	9	1	SIC	535	ABS	0	2	24RD	0	1	0.632770061493	None	None	None	None	1
1.7	2015_Jul_27_1303	s	s	9	1	SIC	536	RC	1	1	23MO	0	1	0.646795034409	151.0	135.0	None	None	0
1.7	2015_Jul_27_1303	s	s	9	1	SIC	537	ABS	2	0	24VC	0	1	0.619212150574	None	None	None	None	1
1.7	2015_Jul_27_1303	s	s	9	1	SIC	538	ABS	2	2	24VD	0	1	0.537415981293	None	None	None	None	1
1.7	2015_Jul_27_1303	s	s	9	1	SIC	539	RC	2	1	23VO	1	0	0.947905063629	229.0	-239.0	223	-233	1
1.7	2015_Jul_27_1303	s	s	9	1	SIC	540	RC	1	0	23MC	1	0	0.817587137222	-186.0	144.0	20	-24	0
1.7	2015_Jul_27_1303	s	s	9	1	SIC	541	ABS	1	1	24MO	0	1	0.764497041702	None	None	None	None	1
1.7	2015_Jul_27_1303	s	s	9	1	SIC	542	RC	0	1	23RO	0	1	2.32992100716	153.0	368.0	None	None	0
1.7	2015_Jul_27_1303	s	s	9	1	SIC	543	ABS	1	2	24MD	0	1	0.682536125183	None	None	None	None	1
1.7	2015_Jul_27_1303	s	s	9	1	SIC	544	ABS	1	0	24MC	0	1	0.831531047821	None	None	None	None	1
1.7	2015_Jul_27_1303	s	s	9	1	SIC	545	RC	2	2	23VD	1	0	0.829383134842	255.0	352.0	253	340	1
1.7	2015_Jul_27_1303	s	s	9	1	SIC	546	ABS	1	1	24MO	0	1	0.870497941971	None	None	None	None	1
1.7	2015_Jul_27_1303	s	s	9	1	SIC	547	RC	0	1	23RO	0	1	0.811623096466	189.0	292.0	None	None	0
1.7	2015_Jul_27_1303	s	s	9	1	SIC	548	ABS	2	1	24VO	0	1	0.523377895355	None	None	None	None	1
1.7	2015_Jul_27_1303	s	s	9	1	SIC	549	RC	2	1	23VO	1	0	0.805603027344	-25.0	105.0	-26	95	1
1.7	2015_Jul_27_1303	s	s	9	1	SIC	550	ABS	2	0	24VC	0	1	3.6129758358	None	None	None	None	1
1.7	2015_Jul_27_1303	s	s	9	1	SIC	551	RC	0	2	23RD	1	0	0.646697044373	-399.0	310.0	-398	292	1
1.7	2015_Jul_27_1303	s	s	9	1	SIC	552	ABS	2	2	24VD	0	1	0.479238033295	None	None	None	None	1
1.7	2015_Jul_27_1303	s	s	9	1	SIC	553	RC	2	0	23VC	1	0	0.599732160568	37.0	229.0	34	233	1
1.7	2015_Jul_27_1303	s	s	9	1	SIC	554	ABS	0	1	24RO	0	1	0.744962930679	None	None	None	None	1
1.7	2015_Jul_27_1303	s	s	9	1	SIC	555	RC	1	2	23MD	0	1	0.312460899353	-250.0	-100.0	None	None	0
1.7	2015_Jul_27_1303	s	s	9	1	SIC	556	ABS	1	0	24MC	0	1	0.411385059357	None	None	None	None	1
1.7	2015_Jul_27_1303	s	s	9	1	SIC	557	RC	1	0	23MC	0	1	0.561897993088	-91.0	-146.0	None	None	0
1.7	2015_Jul_27_1303	s	s	9	1	SIC	558	ABS	1	2	24MD	0	1	0.340682029724	None	None	None	None	1
1.7	2015_Jul_27_1303	s	s	9	1	SIC	559	RC	1	1	23MO	0	1	0.340707063675	-382.0	208.0	None	None	0
1.7	2015_Jul_27_1303	s	s	9	1	SIC	560	ABS	0	2	24RD	0	1	0.594400882721	None	None	None	None	1
1.7	2015_Jul_27_1303	s	s	9	1	SIC	561	ABS	1	2	24MD	0	1	0.323451042175	None	None	None	None	1
1.7	2015_Jul_27_1303	s	s	9	1	SIC	562	RC	2	2	23VD	1	0	1.36014699936	380.0	310.0	380	303	1
1.7	2015_Jul_27_1303	s	s	9	1	SIC	563	RC	0	2	23RD	1	0	0.764441013336	-533.0	-396.0	-532	-393	1
1.7	2015_Jul_27_1303	s	s	9	1	SIC	564	ABS	2	0	24VC	0	1	2.09135508537	None	None	None	None	1
1.7	2015_Jul_27_1303	s	s	9	1	SIC	565	ABS	2	1	24VO	0	1	0.632009029388	None	None	None	None	1
1.7	2015_Jul_27_1303	s	s	9	1	SIC	566	RC	1	2	23MD	1	0	0.528960227966	-296.0	314.0	-293	308	1
1.7	2015_Jul_27_1303	s	s	9	1	SIC	567	ABS	0	2	24RD	0	1	1.28241491318	None	None	None	None	1
1.7	2015_Jul_27_1303	s	s	9	1	SIC	568	RC	2	1	23VO	1	0	0.587872982025	-445.0	331.0	-442	331	1
1.7	2015_Jul_27_1303	s	s	9	1	SIC	569	ABS	2	2	24VD	0	1	0.796926021576	None	None	None	None	1
1.7	2015_Jul_27_1303	s	s	9	1	SIC	570	RC	1	0	23MC	0	1	0.764414787292	-463.0	-86.0	None	None	0
1.7	2015_Jul_27_1303	s	s	9	1	SIC	571	RC	2	0	23VC	1	0	0.682032823563	-53.0	-195.0	-45	-195	1
1.7	2015_Jul_27_1303	s	s	9	1	SIC	572	ABS	1	1	24MO	0	1	2.83099794388	None	None	None	None	1
1.7	2015_Jul_27_1303	s	s	9	1	SIC	573	ABS	1	0	24MC	0	1	0.914710044861	None	None	None	None	1
1.7	2015_Jul_27_1303	s	s	9	1	SIC	574	RC	1	1	23MO	0	1	0.83141207695	-399.0	334.0	None	None	0
1.7	2015_Jul_27_1303	s	s	9	1	SIC	575	RC	0	1	23RO	0	1	0.564377069473	433.0	-411.0	None	None	0
1.7	2015_Jul_27_1303	s	s	9	1	SIC	576	ABS	0	1	24RO	0	1	0.764347076416	None	None	None	None	1
1.7	2015_Jul_27_1303	s	s	9	1	SIC	577	ABS	1	2	24MD	0	1	0.549510955811	None	None	None	None	1
1.7	2015_Jul_27_1303	s	s	9	1	SIC	578	ABS	0	1	24RO	0	1	1.28242492676	None	None	None	None	1
1.7	2015_Jul_27_1303	s	s	9	1	SIC	579	RC	1	0	23MC	0	1	0.417856931686	434.0	-251.0	None	None	0
1.7	2015_Jul_27_1303	s	s	9	1	SIC	580	RC	1	1	23MO	0	1	0.317230939865	-93.0	-139.0	None	None	0
1.7	2015_Jul_27_1303	s	s	9	1	SIC	581	RC	0	2	23RD	0	1	0.24657702446	-364.0	-378.0	None	None	0
1.7	2015_Jul_27_1303	s	s	9	1	SIC	582	RC	1	2	23MD	0	1	0.387850999832	135.0	177.0	None	None	0
1.7	2015_Jul_27_1303	s	s	9	1	SIC	583	ABS	2	1	24VO	0	1	0.211437940598	None	None	None	None	1
1.7	2015_Jul_27_1303	s	s	9	1	SIC	584	ABS	0	2	24RD	0	1	0.493534088135	None	None	None	None	1
1.7	2015_Jul_27_1303	s	s	9	1	SIC	585	ABS	2	0	24VC	0	1	0.529541015625	None	None	None	None	1
1.7	2015_Jul_27_1303	s	s	9	1	SIC	586	RC	2	2	23VD	1	0	1.05584907532	-356.0	214.0	-349	214	1
1.7	2015_Jul_27_1303	s	s	9	1	SIC	587	ABS	1	0	24MC	0	1	0.682088851929	None	None	None	None	1
1.7	2015_Jul_27_1303	s	s	9	1	SIC	588	RC	2	0	23VC	1	0	0.924764871597	-289.0	33.0	-286	22	1
1.7	2015_Jul_27_1303	s	s	9	1	SIC	589	RC	2	1	23VO	1	0	0.717324018478	30.0	391.0	35	390	1
1.7	2015_Jul_27_1303	s	s	9	1	SIC	590	RC	0	1	23RO	1	0	1.35296416283	247.0	54.0	46	122	0
1.7	2015_Jul_27_1303	s	s	9	1	SIC	591	ABS	2	2	24VD	0	1	0.0817801952362	None	None	None	None	1
1.7	2015_Jul_27_1303	s	s	9	1	SIC	592	ABS	1	1	24MO	0	1	0.288106918335	None	None	None	None	1
