Version	Date	Stimuli	Method	Subject	Session	Condition	Trial	Target	Channel1	Channel2	Distractors	LMouseButton	RMouseButton	RT	TargetX	TargetY	ResponseX	ResponseY	Correct
1.7	2015_Jul_29_1302	s	s	9	2	Capacity	1	ABS	1	0	24MC	0	1	0.611247062683	None	None	None	None	1
1.7	2015_Jul_29_1302	s	s	9	2	Capacity	2	RC	1	0	23MC	0	1	0.458395957947	-120.0	12.0	None	None	0
1.7	2015_Jul_29_1302	s	s	9	2	Capacity	3	ABS	2	0	24VC	0	1	2.05432987213	None	None	None	None	1
1.7	2015_Jul_29_1302	s	s	9	2	Capacity	4	RC	2	0	23VC	0	1	0.715262174606	331.0	-206.0	None	None	0
1.7	2015_Jul_29_1302	s	s	9	2	Capacity	5	ABS	1	0	24MC	0	1	1.27056002617	None	None	None	None	1
1.7	2015_Jul_29_1302	s	s	9	2	Capacity	6	RC	2	0	23VC	0	1	1.8899641037	350.0	181.0	None	None	0
1.7	2015_Jul_29_1302	s	s	9	2	Capacity	7	RC	1	0	23MC	0	1	7.19783902168	-329.0	399.0	None	None	0
1.7	2015_Jul_29_1302	s	s	9	2	Capacity	8	ABS	2	0	24VC	0	1	16.2547588348	None	None	None	None	1
1.7	2015_Jul_29_1302	s	s	9	2	Capacity	9	RC	2	0	23VC	1	0	1.15289998055	443.0	381.0	450	382	1
1.7	2015_Jul_29_1302	s	s	9	2	Capacity	10	ABS	2	0	24VC	0	1	0.623172998428	None	None	None	None	1
1.7	2015_Jul_29_1302	s	s	9	2	Capacity	11	ABS	1	0	24MC	0	1	0.829905986786	None	None	None	None	1
1.7	2015_Jul_29_1302	s	s	9	2	Capacity	12	RC	1	0	23MC	0	1	1.36480689049	519.0	290.0	None	None	0
1.7	2015_Jul_29_1302	s	s	9	2	Capacity	13	ABS	1	0	24MC	0	1	1.40537190437	None	None	None	None	1
1.7	2015_Jul_29_1302	s	s	9	2	Capacity	14	RC	1	0	23MC	1	0	3.28335785866	-368.0	-45.0	-371	-59	1
1.7	2015_Jul_29_1302	s	s	9	2	Capacity	15	ABS	2	0	24VC	0	1	0.505398035049	None	None	None	None	1
1.7	2015_Jul_29_1302	s	s	9	2	Capacity	16	RC	2	0	23VC	0	1	1.51349496841	-157.0	308.0	None	None	0
1.7	2015_Jul_29_1302	s	s	9	2	Capacity	17	RC	1	0	23MC	0	1	0.293612957001	403.0	305.0	None	None	0
1.7	2015_Jul_29_1302	s	s	9	2	Capacity	18	ABS	2	0	24VC	0	1	0.0890078544617	None	None	None	None	1
1.7	2015_Jul_29_1302	s	s	9	2	Capacity	19	RC	2	0	23VC	0	1	0.42049407959	25.0	131.0	None	None	0
1.7	2015_Jul_29_1302	s	s	9	2	Capacity	20	ABS	1	0	24MC	0	1	3.29521894455	None	None	None	None	1
1.7	2015_Jul_29_1302	s	s	9	2	Capacity	21	ABS	2	0	24VC	0	0	-1	None	None	None	None	-1
1.7	2015_Jul_29_1302	s	s	9	2	Capacity	22	RC	1	0	23MC	0	0	-1	331.0	204.0	None	None	-1
1.7	2015_Jul_29_1302	s	s	9	2	Capacity	23	RC	2	0	23VC	0	1	7.43840312958	-437.0	-104.0	None	None	0
1.7	2015_Jul_29_1302	s	s	9	2	Capacity	24	ABS	1	0	24MC	1	0	7.33021211624	None	None	74	132	0
1.7	2015_Jul_29_1302	s	s	9	2	Capacity	25	ABS	2	0	24VC	0	1	15.5192389488	None	None	None	None	1
1.7	2015_Jul_29_1302	s	s	9	2	Capacity	26	RC	2	0	23VC	0	1	4.56643295288	535.0	307.0	None	None	0
1.7	2015_Jul_29_1302	s	s	9	2	Capacity	27	RC	1	0	23MC	0	1	19.6517720222	-331.0	-126.0	None	None	0
1.7	2015_Jul_29_1302	s	s	9	2	Capacity	28	ABS	1	0	24MC	0	1	5.46100211143	None	None	None	None	1
1.7	2015_Jul_29_1302	s	s	9	2	Capacity	29	ABS	2	0	24VC	0	1	6.14955401421	None	None	None	None	1
1.7	2015_Jul_29_1302	s	s	9	2	Capacity	30	RC	2	0	23VC	0	1	15.5955069065	210.0	215.0	None	None	0
1.7	2015_Jul_29_1302	s	s	9	2	Capacity	31	ABS	1	0	24MC	0	1	0.411338806152	None	None	None	None	1
1.7	2015_Jul_29_1302	s	s	9	2	Capacity	32	RC	1	0	23MC	0	1	0.570492982864	-31.0	-18.0	None	None	0
1.7	2015_Jul_29_1302	s	s	9	2	Capacity	33	RC	2	0	23VC	0	1	2.42416191101	-483.0	-186.0	None	None	0
1.7	2015_Jul_29_1302	s	s	9	2	Capacity	34	ABS	1	0	24MC	0	1	0.788009166718	None	None	None	None	1
1.7	2015_Jul_29_1302	s	s	9	2	Capacity	35	ABS	2	0	24VC	0	1	2.85391402245	None	None	None	None	1
1.7	2015_Jul_29_1302	s	s	9	2	Capacity	36	RC	1	0	23MC	0	1	10.6607179642	21.0	-88.0	None	None	0
1.7	2015_Jul_29_1302	s	s	9	2	Capacity	37	ABS	1	0	24MC	0	1	5.70451784134	None	None	None	None	1
1.7	2015_Jul_29_1302	s	s	9	2	Capacity	38	RC	2	0	23VC	0	1	7.00919318199	169.0	-141.0	None	None	0
1.7	2015_Jul_29_1302	s	s	9	2	Capacity	39	ABS	2	0	24VC	0	1	8.76866388321	None	None	None	None	1
1.7	2015_Jul_29_1302	s	s	9	2	Capacity	40	RC	1	0	23MC	0	1	2.02393317223	-182.0	-292.0	None	None	0
1.7	2015_Jul_29_1302	s	s	9	2	Capacity	41	ABS	2	0	24VC	0	1	10.4823598862	None	None	None	None	1
1.7	2015_Jul_29_1302	s	s	9	2	Capacity	42	RC	1	0	23MC	0	1	1.90066099167	471.0	283.0	None	None	0
1.7	2015_Jul_29_1302	s	s	9	2	Capacity	43	RC	2	0	23VC	0	1	3.10218906403	265.0	-107.0	None	None	0
1.7	2015_Jul_29_1302	s	s	9	2	Capacity	44	ABS	1	0	24MC	0	1	4.73769807816	None	None	None	None	1
1.7	2015_Jul_29_1302	s	s	9	2	Capacity	45	RC	1	0	23MC	0	1	5.64379811287	-176.0	-28.0	None	None	0
1.7	2015_Jul_29_1302	s	s	9	2	Capacity	46	RC	2	0	23VC	0	1	5.83523797989	104.0	5.0	None	None	0
1.7	2015_Jul_29_1302	s	s	9	2	Capacity	47	ABS	2	0	24VC	0	1	4.5493850708	None	None	None	None	1
1.7	2015_Jul_29_1302	s	s	9	2	Capacity	48	ABS	1	0	24MC	0	1	5.41981387138	None	None	None	None	1
1.7	2015_Jul_29_1302	s	s	9	2	Capacity	49	ABS	2	0	24VC	0	1	13.2531621456	None	None	None	None	1
1.7	2015_Jul_29_1302	s	s	9	2	Capacity	50	RC	2	0	23VC	0	1	12.4524841309	-440.0	180.0	None	None	0
1.7	2015_Jul_29_1302	s	s	9	2	Capacity	51	ABS	1	0	24MC	0	1	5.57588601112	None	None	None	None	1
1.7	2015_Jul_29_1302	s	s	9	2	Capacity	52	RC	1	0	23MC	0	1	5.00809693336	-220.0	-72.0	None	None	0
1.7	2015_Jul_29_1302	s	s	9	2	Capacity	53	ABS	1	0	24MC	0	0	-1	None	None	None	None	-1
1.7	2015_Jul_29_1302	s	s	9	2	Capacity	54	RC	1	0	23MC	0	1	0.523108005524	43.0	-68.0	None	None	0
1.7	2015_Jul_29_1302	s	s	9	2	Capacity	55	RC	2	0	23VC	1	0	2.04550695419	-89.0	322.0	-81	316	1
1.7	2015_Jul_29_1302	s	s	9	2	Capacity	56	ABS	2	0	24VC	0	1	11.8405668736	None	None	None	None	1
1.7	2015_Jul_29_1302	s	s	9	2	Capacity	57	RC	1	0	23MC	0	1	1.62125110626	82.0	190.0	None	None	0
1.7	2015_Jul_29_1302	s	s	9	2	Capacity	58	ABS	1	0	24MC	0	1	1.84731292725	None	None	None	None	1
1.7	2015_Jul_29_1302	s	s	9	2	Capacity	59	ABS	2	0	24VC	0	1	0.467601060867	None	None	None	None	1
1.7	2015_Jul_29_1302	s	s	9	2	Capacity	60	RC	2	0	23VC	0	1	0.359462976456	-39.0	-211.0	None	None	0
1.7	2015_Jul_29_1302	s	s	9	2	Capacity	61	RC	1	0	23MC	0	1	0.682043075562	405.0	-193.0	None	None	0
1.7	2015_Jul_29_1302	s	s	9	2	Capacity	62	ABS	1	0	24MC	0	1	0.771317005157	None	None	None	None	1
1.7	2015_Jul_29_1302	s	s	9	2	Capacity	63	ABS	2	0	24VC	0	1	0.535151004791	None	None	None	None	1
1.7	2015_Jul_29_1302	s	s	9	2	Capacity	64	RC	2	0	23VC	0	1	0.540812969208	-482.0	19.0	None	None	0
1.7	2015_Jul_29_1302	s	s	9	2	Capacity	65	RC	1	0	23MC	0	1	0.893954992294	511.0	338.0	None	None	0
1.7	2015_Jul_29_1302	s	s	9	2	Capacity	66	ABS	2	0	24VC	1	0	0.761631965637	None	None	66	-13	0
1.7	2015_Jul_29_1302	s	s	9	2	Capacity	67	RC	2	0	23VC	1	0	3.56326794624	536.0	-412.0	545	-414	1
1.7	2015_Jul_29_1302	s	s	9	2	Capacity	68	ABS	1	0	24MC	0	1	15.3191199303	None	None	None	None	1
1.7	2015_Jul_29_1302	s	s	9	2	Capacity	69	RC	1	0	23MC	1	0	1.14118385315	-285.0	294.0	-285	300	1
1.7	2015_Jul_29_1302	s	s	9	2	Capacity	70	ABS	1	0	24MC	0	1	0.611492156982	None	None	None	None	1
1.7	2015_Jul_29_1302	s	s	9	2	Capacity	71	RC	2	0	23VC	0	1	0.114389181137	298.0	133.0	None	None	0
1.7	2015_Jul_29_1302	s	s	9	2	Capacity	72	ABS	2	0	24VC	0	1	0.714350938797	None	None	None	None	1
1.7	2015_Jul_29_1302	s	s	9	2	Capacity	73	RC	2	0	23VC	0	1	0.0544908046722	7.0	-272.0	None	None	0
1.7	2015_Jul_29_1302	s	s	9	2	Capacity	74	ABS	1	0	24MC	0	1	1.17121005058	None	None	None	None	1
1.7	2015_Jul_29_1302	s	s	9	2	Capacity	75	ABS	2	0	24VC	0	1	3.7255988121	None	None	None	None	1
1.7	2015_Jul_29_1302	s	s	9	2	Capacity	76	RC	1	0	23MC	0	1	5.68450593948	-95.0	-107.0	None	None	0
1.7	2015_Jul_29_1302	s	s	9	2	Capacity	77	ABS	1	0	24MC	0	1	13.6457371712	None	None	None	None	1
1.7	2015_Jul_29_1302	s	s	9	2	Capacity	78	ABS	2	0	24VC	0	0	-1	None	None	None	None	-1
1.7	2015_Jul_29_1302	s	s	9	2	Capacity	79	RC	2	0	23VC	0	1	3.3723950386	330.0	-406.0	None	None	0
1.7	2015_Jul_29_1302	s	s	9	2	Capacity	80	RC	1	0	23MC	0	1	13.8532719612	339.0	80.0	None	None	0
1.7	2015_Jul_29_1302	s	s	9	2	Capacity	81	RC	1	0	23MC	0	1	17.2645158768	-359.0	270.0	None	None	0
1.7	2015_Jul_29_1302	s	s	9	2	Capacity	82	RC	2	0	23VC	0	1	6.76268315315	-509.0	368.0	None	None	0
1.7	2015_Jul_29_1302	s	s	9	2	Capacity	83	ABS	1	0	24MC	0	1	4.71941709518	None	None	None	None	1
1.7	2015_Jul_29_1302	s	s	9	2	Capacity	84	ABS	2	0	24VC	0	1	5.48448300362	None	None	None	None	1
1.7	2015_Jul_29_1302	s	s	9	2	Capacity	85	ABS	1	0	24MC	0	1	1.59474897385	None	None	None	None	1
1.7	2015_Jul_29_1302	s	s	9	2	Capacity	86	RC	2	0	23VC	0	1	3.44545698166	163.0	-15.0	None	None	0
1.7	2015_Jul_29_1302	s	s	9	2	Capacity	87	RC	1	0	23MC	0	1	10.5339519978	-510.0	359.0	None	None	0
1.7	2015_Jul_29_1302	s	s	9	2	Capacity	88	ABS	2	0	24VC	0	1	2.78886079788	None	None	None	None	1
1.7	2015_Jul_29_1302	s	s	9	2	Capacity	89	ABS	2	0	24VC	0	1	1.11392498016	None	None	None	None	1
1.7	2015_Jul_29_1302	s	s	9	2	Capacity	90	ABS	1	0	24MC	0	1	11.7114710808	None	None	None	None	1
1.7	2015_Jul_29_1302	s	s	9	2	Capacity	91	RC	1	0	23MC	0	1	3.19789409637	116.0	-286.0	None	None	0
1.7	2015_Jul_29_1302	s	s	9	2	Capacity	92	RC	2	0	23VC	0	1	9.14505004883	-113.0	381.0	None	None	0
1.7	2015_Jul_29_1302	s	s	9	2	Capacity	1	RC	0	1	23RO	0	1	0.411358118057	350.0	31.0	None	None	0
1.7	2015_Jul_29_1302	s	s	9	2	Capacity	2	ABS	0	2	24RD	0	1	0.387853145599	None	None	None	None	1
1.7	2015_Jul_29_1302	s	s	9	2	Capacity	3	RC	0	2	23RD	0	1	0.724047899246	-423.0	-299.0	None	None	0
1.7	2015_Jul_29_1302	s	s	9	2	Capacity	4	ABS	0	1	24RO	0	1	0.140480041504	None	None	None	None	1
1.7	2015_Jul_29_1302	s	s	9	2	Capacity	5	RC	0	1	23RO	0	1	0.387685775757	105.0	-84.0	None	None	0
1.7	2015_Jul_29_1302	s	s	9	2	Capacity	6	RC	0	2	23RD	0	1	0.347301959991	-395.0	-215.0	None	None	0
1.7	2015_Jul_29_1302	s	s	9	2	Capacity	7	ABS	0	2	24RD	0	1	0.477029085159	None	None	None	None	1
1.7	2015_Jul_29_1302	s	s	9	2	Capacity	8	ABS	0	1	24RO	0	1	0.406439065933	None	None	None	None	1
1.7	2015_Jul_29_1302	s	s	9	2	Capacity	9	ABS	0	1	24RO	0	1	9.3936920166e-05	None	None	None	None	1
1.7	2015_Jul_29_1302	s	s	9	2	Capacity	10	RC	0	1	23RO	0	1	0.446487903595	-171.0	-178.0	None	None	0
1.7	2015_Jul_29_1302	s	s	9	2	Capacity	11	ABS	0	2	24RD	0	1	0.0536270141602	None	None	None	None	1
1.7	2015_Jul_29_1302	s	s	9	2	Capacity	12	RC	0	2	23RD	0	1	0.470179080963	453.0	142.0	None	None	0
1.7	2015_Jul_29_1302	s	s	9	2	Capacity	13	RC	0	1	23RO	0	1	0.442049026489	-390.0	-154.0	None	None	0
1.7	2015_Jul_29_1302	s	s	9	2	Capacity	14	RC	0	2	23RD	0	1	0.865428924561	-298.0	-214.0	None	None	0
1.7	2015_Jul_29_1302	s	s	9	2	Capacity	15	ABS	0	1	24RO	0	1	0.373615980148	None	None	None	None	1
1.7	2015_Jul_29_1302	s	s	9	2	Capacity	16	ABS	0	2	24RD	0	1	0.702366113663	None	None	None	None	1
1.7	2015_Jul_29_1302	s	s	9	2	Capacity	17	ABS	0	1	24RO	0	1	1.0469520092	None	None	None	None	1
1.7	2015_Jul_29_1302	s	s	9	2	Capacity	18	RC	0	1	23RO	0	1	0.702459096909	487.0	59.0	None	None	0
1.7	2015_Jul_29_1302	s	s	9	2	Capacity	19	RC	0	2	23RD	0	1	0.335620880127	105.0	-259.0	None	None	0
1.7	2015_Jul_29_1302	s	s	9	2	Capacity	20	ABS	0	2	24RD	0	1	0.63853096962	None	None	None	None	1
1.7	2015_Jul_29_1302	s	s	9	2	Capacity	21	ABS	0	2	24RD	0	1	1.25613903999	None	None	None	None	1
1.7	2015_Jul_29_1302	s	s	9	2	Capacity	22	RC	0	1	23RO	0	1	0.54972910881	-98.0	-46.0	None	None	0
1.7	2015_Jul_29_1302	s	s	9	2	Capacity	23	RC	0	2	23RD	1	0	1.40016579628	244.0	-386.0	249	-387	1
1.7	2015_Jul_29_1302	s	s	9	2	Capacity	24	ABS	0	1	24RO	0	0	-1	None	None	None	None	-1
1.7	2015_Jul_29_1302	s	s	9	2	Capacity	25	ABS	0	1	24RO	0	0	-1	None	None	None	None	-1
1.7	2015_Jul_29_1302	s	s	9	2	Capacity	26	RC	0	1	23RO	0	0	-1	-416.0	39.0	None	None	-1
1.7	2015_Jul_29_1302	s	s	9	2	Capacity	27	ABS	0	2	24RD	0	0	-1	None	None	None	None	-1
1.7	2015_Jul_29_1302	s	s	9	2	Capacity	28	RC	0	2	23RD	0	0	-1	-153.0	-208.0	None	None	-1
1.7	2015_Jul_29_1302	s	s	9	2	Capacity	29	RC	0	2	23RD	0	0	-1	177.0	380.0	None	None	-1
1.7	2015_Jul_29_1302	s	s	9	2	Capacity	30	RC	0	1	23RO	0	0	-1	12.0	113.0	None	None	-1
1.7	2015_Jul_29_1302	s	s	9	2	Capacity	31	ABS	0	2	24RD	0	1	7.53254699707	None	None	None	None	1
1.7	2015_Jul_29_1302	s	s	9	2	Capacity	32	ABS	0	1	24RO	0	1	7.80339407921	None	None	None	None	1
1.7	2015_Jul_29_1302	s	s	9	2	Capacity	33	RC	0	2	23RD	0	1	5.46773505211	-365.0	-370.0	None	None	0
1.7	2015_Jul_29_1302	s	s	9	2	Capacity	34	ABS	0	1	24RO	0	1	1.93661189079	None	None	None	None	1
1.7	2015_Jul_29_1302	s	s	9	2	Capacity	35	RC	0	1	23RO	0	1	2.14987397194	-238.0	157.0	None	None	0
1.7	2015_Jul_29_1302	s	s	9	2	Capacity	36	ABS	0	2	24RD	0	1	9.2864010334	None	None	None	None	1
1.7	2015_Jul_29_1302	s	s	9	2	Capacity	37	ABS	0	1	24RO	0	1	1.44706392288	None	None	None	None	1
1.7	2015_Jul_29_1302	s	s	9	2	Capacity	38	ABS	0	2	24RD	0	1	6.2560300827	None	None	None	None	1
1.7	2015_Jul_29_1302	s	s	9	2	Capacity	39	RC	0	1	23RO	0	1	0.78800702095	383.0	-7.0	None	None	0
1.7	2015_Jul_29_1302	s	s	9	2	Capacity	40	RC	0	2	23RD	0	1	5.07848978043	-477.0	307.0	None	None	0
1.7	2015_Jul_29_1302	s	s	9	2	Capacity	41	ABS	0	1	24RO	0	1	5.09605312347	None	None	None	None	1
1.7	2015_Jul_29_1302	s	s	9	2	Capacity	42	RC	0	2	23RD	0	1	11.7464580536	-395.0	301.0	None	None	0
1.7	2015_Jul_29_1302	s	s	9	2	Capacity	43	ABS	0	2	24RD	0	0	-1	None	None	None	None	-1
1.7	2015_Jul_29_1302	s	s	9	2	Capacity	44	RC	0	1	23RO	0	1	1.22011494637	245.0	-102.0	None	None	0
1.7	2015_Jul_29_1302	s	s	9	2	Capacity	45	RC	0	1	23RO	0	1	0.30109500885	144.0	-141.0	None	None	0
1.7	2015_Jul_29_1302	s	s	9	2	Capacity	46	ABS	0	1	24RO	0	1	0.729249000549	None	None	None	None	1
1.7	2015_Jul_29_1302	s	s	9	2	Capacity	47	ABS	0	2	24RD	0	1	13.7121200562	None	None	None	None	1
1.7	2015_Jul_29_1302	s	s	9	2	Capacity	48	RC	0	2	23RD	0	1	0.317105054855	-493.0	-393.0	None	None	0
1.7	2015_Jul_29_1302	s	s	9	2	Capacity	49	RC	0	1	23RO	0	1	0.940995931625	-144.0	-398.0	None	None	0
1.7	2015_Jul_29_1302	s	s	9	2	Capacity	50	ABS	0	2	24RD	0	1	1.30290699005	None	None	None	None	1
1.7	2015_Jul_29_1302	s	s	9	2	Capacity	51	ABS	0	1	24RO	0	1	3.02187299728	None	None	None	None	1
1.7	2015_Jul_29_1302	s	s	9	2	Capacity	52	RC	0	2	23RD	0	1	1.78859710693	352.0	395.0	None	None	0
1.7	2015_Jul_29_1302	s	s	9	2	Capacity	53	RC	0	2	23RD	0	1	1.38351011276	-279.0	-352.0	None	None	0
1.7	2015_Jul_29_1302	s	s	9	2	Capacity	54	ABS	0	2	24RD	0	1	5.4325261116	None	None	None	None	1
1.7	2015_Jul_29_1302	s	s	9	2	Capacity	55	ABS	0	1	24RO	0	1	4.33109593391	None	None	None	None	1
1.7	2015_Jul_29_1302	s	s	9	2	Capacity	56	RC	0	1	23RO	0	1	0.537857055664	-177.0	-149.0	None	None	0
1.7	2015_Jul_29_1302	s	s	9	2	Capacity	57	ABS	0	1	24RO	0	1	0.146926164627	None	None	None	None	1
1.7	2015_Jul_29_1302	s	s	9	2	Capacity	58	RC	0	2	23RD	0	1	1.30589103699	138.0	-68.0	None	None	0
1.7	2015_Jul_29_1302	s	s	9	2	Capacity	59	ABS	0	2	24RD	0	1	1.94806790352	None	None	None	None	1
1.7	2015_Jul_29_1302	s	s	9	2	Capacity	60	RC	0	1	23RO	0	1	1.35306191444	436.0	-247.0	None	None	0
1.7	2015_Jul_29_1302	s	s	9	2	Capacity	61	ABS	0	1	24RO	0	1	1.12935900688	None	None	None	None	1
1.7	2015_Jul_29_1302	s	s	9	2	Capacity	62	RC	0	2	23RD	0	1	1.74143600464	-220.0	288.0	None	None	0
1.7	2015_Jul_29_1302	s	s	9	2	Capacity	63	RC	0	1	23RO	0	1	0.97162604332	-162.0	405.0	None	None	0
1.7	2015_Jul_29_1302	s	s	9	2	Capacity	64	ABS	0	2	24RD	0	1	1.94154000282	None	None	None	None	1
1.7	2015_Jul_29_1302	s	s	9	2	Capacity	65	ABS	0	1	24RO	0	1	0.305423974991	None	None	None	None	1
1.7	2015_Jul_29_1302	s	s	9	2	Capacity	66	RC	0	1	23RO	0	1	1.72569704056	-38.0	68.0	None	None	0
1.7	2015_Jul_29_1302	s	s	9	2	Capacity	67	ABS	0	2	24RD	0	1	0.206166982651	None	None	None	None	1
1.7	2015_Jul_29_1302	s	s	9	2	Capacity	68	RC	0	2	23RD	0	1	1.56468319893	-198.0	-353.0	None	None	0
1.7	2015_Jul_29_1302	s	s	9	2	Capacity	69	RC	0	1	23RO	0	1	0.835581064224	-79.0	395.0	None	None	0
1.7	2015_Jul_29_1302	s	s	9	2	Capacity	70	RC	0	2	23RD	0	1	2.16178393364	-25.0	-160.0	None	None	0
1.7	2015_Jul_29_1302	s	s	9	2	Capacity	71	ABS	0	2	24RD	0	1	2.10631608963	None	None	None	None	1
1.7	2015_Jul_29_1302	s	s	9	2	Capacity	72	ABS	0	1	24RO	0	1	6.13188791275	None	None	None	None	1
1.7	2015_Jul_29_1302	s	s	9	2	Capacity	73	ABS	0	1	24RO	0	1	3.02195000648	None	None	None	None	1
1.7	2015_Jul_29_1302	s	s	9	2	Capacity	74	ABS	0	2	24RD	0	0	-1	None	None	None	None	-1
1.7	2015_Jul_29_1302	s	s	9	2	Capacity	75	RC	0	2	23RD	0	1	7.00294089317	-413.0	116.0	None	None	0
1.7	2015_Jul_29_1302	s	s	9	2	Capacity	76	RC	0	1	23RO	0	0	-1	-353.0	169.0	None	None	-1
1.7	2015_Jul_29_1302	s	s	9	2	Capacity	77	RC	0	1	23RO	0	1	1.05871319771	-223.0	-176.0	None	None	0
1.7	2015_Jul_29_1302	s	s	9	2	Capacity	78	ABS	0	1	24RO	0	1	0.983207941055	None	None	None	None	1
1.7	2015_Jul_29_1302	s	s	9	2	Capacity	79	ABS	0	2	24RD	0	1	0.0347452163696	None	None	None	None	1
1.7	2015_Jul_29_1302	s	s	9	2	Capacity	80	RC	0	2	23RD	0	1	4.30497097969	271.0	-86.0	None	None	0
1.7	2015_Jul_29_1302	s	s	9	2	Capacity	81	RC	0	2	23RD	0	1	4.25470590591	-509.0	355.0	None	None	0
1.7	2015_Jul_29_1302	s	s	9	2	Capacity	82	RC	0	1	23RO	0	1	2.10375499725	197.0	54.0	None	None	0
1.7	2015_Jul_29_1302	s	s	9	2	Capacity	83	ABS	0	1	24RO	0	1	3.11886692047	None	None	None	None	1
1.7	2015_Jul_29_1302	s	s	9	2	Capacity	84	ABS	0	2	24RD	0	1	4.24343085289	None	None	None	None	1
1.7	2015_Jul_29_1302	s	s	9	2	Capacity	85	RC	0	1	23RO	0	1	6.86784601212	-23.0	-12.0	None	None	0
1.7	2015_Jul_29_1302	s	s	9	2	Capacity	86	ABS	0	1	24RO	0	1	0.608013153076	None	None	None	None	1
1.7	2015_Jul_29_1302	s	s	9	2	Capacity	87	ABS	0	2	24RD	0	1	8.36454796791	None	None	None	None	1
1.7	2015_Jul_29_1302	s	s	9	2	Capacity	88	RC	0	2	23RD	0	1	2.07101917267	-457.0	-84.0	None	None	0
1.7	2015_Jul_29_1302	s	s	9	2	Capacity	89	RC	0	1	23RO	0	1	5.45637106895	424.0	33.0	None	None	0
1.7	2015_Jul_29_1302	s	s	9	2	Capacity	90	ABS	0	2	24RD	0	1	5.82015109062	None	None	None	None	1
1.7	2015_Jul_29_1302	s	s	9	2	Capacity	91	RC	0	2	23RD	0	1	0.706009864807	213.0	-218.0	None	None	0
1.7	2015_Jul_29_1302	s	s	9	2	Capacity	92	ABS	0	1	24RO	0	1	0.0423300266266	None	None	None	None	1
1.7	2015_Jul_29_1302	s	s	9	2	SIC	1	RC	0	1	23RO	1	0	0.0700151920319	215.0	-403.0	-156	-93	0
1.7	2015_Jul_29_1302	s	s	9	2	SIC	2	RC	2	0	23VC	0	1	0.635332107544	480.0	-3.0	None	None	0
1.7	2015_Jul_29_1302	s	s	9	2	SIC	3	ABS	2	2	24VD	0	1	4.40155720711	None	None	None	None	1
1.7	2015_Jul_29_1302	s	s	9	2	SIC	4	ABS	0	1	24RO	0	1	9.2038860321	None	None	None	None	1
1.7	2015_Jul_29_1302	s	s	9	2	SIC	5	RC	1	2	23MD	0	1	0.301675081253	-477.0	-20.0	None	None	0
1.7	2015_Jul_29_1302	s	s	9	2	SIC	6	ABS	1	1	24MO	0	1	1.83188390732	None	None	None	None	1
1.7	2015_Jul_29_1302	s	s	9	2	SIC	7	RC	0	2	23RD	0	1	2.7713830471	294.0	-290.0	None	None	0
1.7	2015_Jul_29_1302	s	s	9	2	SIC	8	ABS	2	1	24VO	0	1	4.2050921917	None	None	None	None	1
1.7	2015_Jul_29_1302	s	s	9	2	SIC	9	ABS	1	2	24MD	0	1	3.36579084396	None	None	None	None	1
1.7	2015_Jul_29_1302	s	s	9	2	SIC	10	ABS	1	0	24MC	0	1	4.29271101952	None	None	None	None	1
1.7	2015_Jul_29_1302	s	s	9	2	SIC	11	RC	1	0	23MC	0	1	8.41035795212	317.0	-409.0	None	None	0
1.7	2015_Jul_29_1302	s	s	9	2	SIC	12	RC	2	1	23VO	0	1	4.13954281807	-295.0	-90.0	None	None	0
1.7	2015_Jul_29_1302	s	s	9	2	SIC	13	RC	2	2	23VD	0	1	9.49828195572	-159.0	65.0	None	None	0
1.7	2015_Jul_29_1302	s	s	9	2	SIC	14	ABS	2	0	24VC	0	1	4.00137090683	None	None	None	None	1
1.7	2015_Jul_29_1302	s	s	9	2	SIC	15	ABS	0	2	24RD	0	1	15.3011000156	None	None	None	None	1
1.7	2015_Jul_29_1302	s	s	9	2	SIC	16	RC	1	1	23MO	0	1	2.41231608391	504.0	48.0	None	None	0
1.7	2015_Jul_29_1302	s	s	9	2	SIC	17	RC	2	2	23VD	0	1	3.11849093437	398.0	366.0	None	None	0
1.7	2015_Jul_29_1302	s	s	9	2	SIC	18	ABS	2	1	24VO	0	0	-1	None	None	None	None	-1
1.7	2015_Jul_29_1302	s	s	9	2	SIC	19	ABS	0	2	24RD	0	1	2.44767403603	None	None	None	None	1
1.7	2015_Jul_29_1302	s	s	9	2	SIC	20	ABS	0	1	24RO	0	1	4.17792606354	None	None	None	None	1
1.7	2015_Jul_29_1302	s	s	9	2	SIC	21	RC	2	0	23VC	0	1	0.399649858475	218.0	-138.0	None	None	0
1.7	2015_Jul_29_1302	s	s	9	2	SIC	22	RC	1	1	23MO	0	1	5.63247203827	150.0	230.0	None	None	0
1.7	2015_Jul_29_1302	s	s	9	2	SIC	23	RC	1	2	23MD	0	1	4.45227909088	-59.0	-302.0	None	None	0
1.7	2015_Jul_29_1302	s	s	9	2	SIC	24	ABS	1	2	24MD	0	1	4.09256887436	None	None	None	None	1
1.7	2015_Jul_29_1302	s	s	9	2	SIC	25	ABS	2	0	24VC	0	1	1.54129719734	None	None	None	None	1
1.7	2015_Jul_29_1302	s	s	9	2	SIC	26	RC	1	0	23MC	0	1	4.06807684898	-190.0	-98.0	None	None	0
1.7	2015_Jul_29_1302	s	s	9	2	SIC	27	RC	2	1	23VO	0	1	1.0469520092	193.0	232.0	None	None	0
1.7	2015_Jul_29_1302	s	s	9	2	SIC	28	ABS	2	2	24VD	0	1	2.91849708557	None	None	None	None	1
1.7	2015_Jul_29_1302	s	s	9	2	SIC	29	ABS	1	0	24MC	0	1	4.45460605621	None	None	None	None	1
1.7	2015_Jul_29_1302	s	s	9	2	SIC	30	ABS	1	1	24MO	0	1	0.994344949722	None	None	None	None	1
1.7	2015_Jul_29_1302	s	s	9	2	SIC	31	RC	0	1	23RO	0	1	0.27706694603	-274.0	-42.0	None	None	0
1.7	2015_Jul_29_1302	s	s	9	2	SIC	32	RC	0	2	23RD	0	1	0.983236074448	2.0	220.0	None	None	0
1.7	2015_Jul_29_1302	s	s	9	2	SIC	33	RC	2	0	23VC	0	1	3.73065209389	197.0	294.0	None	None	0
1.7	2015_Jul_29_1302	s	s	9	2	SIC	34	RC	2	2	23VD	0	1	3.23631310463	31.0	-332.0	None	None	0
1.7	2015_Jul_29_1302	s	s	9	2	SIC	35	ABS	1	1	24MO	0	1	0.799721002579	None	None	None	None	1
1.7	2015_Jul_29_1302	s	s	9	2	SIC	36	ABS	0	2	24RD	0	1	4.10364794731	None	None	None	None	1
1.7	2015_Jul_29_1302	s	s	9	2	SIC	37	RC	1	2	23MD	1	0	5.11961722374	317.0	-195.0	329	-193	1
1.7	2015_Jul_29_1302	s	s	9	2	SIC	38	ABS	1	0	24MC	0	1	0.964643001556	None	None	None	None	1
1.7	2015_Jul_29_1302	s	s	9	2	SIC	39	RC	0	1	23RO	1	0	1.09146595001	210.0	143.0	-42	108	0
1.7	2015_Jul_29_1302	s	s	9	2	SIC	40	ABS	0	1	24RO	0	1	0.147317886353	None	None	None	None	1
1.7	2015_Jul_29_1302	s	s	9	2	SIC	41	RC	2	1	23VO	1	0	0.293623924255	-502.0	70.0	-494	65	1
1.7	2015_Jul_29_1302	s	s	9	2	SIC	42	ABS	2	0	24VC	0	1	0.0537929534912	None	None	None	None	1
1.7	2015_Jul_29_1302	s	s	9	2	SIC	43	ABS	2	1	24VO	0	1	0.91252207756	None	None	None	None	1
1.7	2015_Jul_29_1302	s	s	9	2	SIC	44	RC	1	1	23MO	1	0	3.90156507492	-66.0	234.0	-68	236	1
1.7	2015_Jul_29_1302	s	s	9	2	SIC	45	ABS	1	2	24MD	0	1	0.764438152313	None	None	None	None	1
1.7	2015_Jul_29_1302	s	s	9	2	SIC	46	ABS	2	2	24VD	0	1	0.641540050507	None	None	None	None	1
1.7	2015_Jul_29_1302	s	s	9	2	SIC	47	RC	1	0	23MC	0	1	0.0879812240601	-523.0	-312.0	None	None	0
1.7	2015_Jul_29_1302	s	s	9	2	SIC	48	RC	0	2	23RD	0	1	0.183058977127	44.0	274.0	None	None	0
1.7	2015_Jul_29_1302	s	s	9	2	SIC	49	RC	2	1	23VO	0	1	0.0994529724121	-522.0	-375.0	None	None	0
1.7	2015_Jul_29_1302	s	s	9	2	SIC	50	RC	1	1	23MO	0	1	0.517256975174	-132.0	376.0	None	None	0
1.7	2015_Jul_29_1302	s	s	9	2	SIC	51	ABS	2	1	24VO	0	1	0.564265012741	None	None	None	None	1
1.7	2015_Jul_29_1302	s	s	9	2	SIC	52	ABS	1	1	24MO	0	1	0.305387020111	None	None	None	None	1
1.7	2015_Jul_29_1302	s	s	9	2	SIC	53	ABS	1	0	24MC	0	1	0.240963935852	None	None	None	None	1
1.7	2015_Jul_29_1302	s	s	9	2	SIC	54	RC	2	0	23VC	1	0	0.665383815765	-311.0	-14.0	-310	-12	1
1.7	2015_Jul_29_1302	s	s	9	2	SIC	55	RC	2	2	23VD	1	0	0.712307929993	-170.0	-393.0	-167	-394	1
1.7	2015_Jul_29_1302	s	s	9	2	SIC	56	ABS	1	2	24MD	0	1	1.39577484131	None	None	None	None	1
1.7	2015_Jul_29_1302	s	s	9	2	SIC	57	RC	1	2	23MD	1	0	0.808506965637	435.0	188.0	438	187	1
1.7	2015_Jul_29_1302	s	s	9	2	SIC	58	ABS	2	0	24VC	1	0	2.35338497162	None	None	536	-390	0
1.7	2015_Jul_29_1302	s	s	9	2	SIC	59	RC	0	1	23RO	1	0	2.95110702515	-65.0	-247.0	-67	-247	1
1.7	2015_Jul_29_1302	s	s	9	2	SIC	60	ABS	2	2	24VD	0	0	-1	None	None	None	None	-1
1.7	2015_Jul_29_1302	s	s	9	2	SIC	61	RC	1	0	23MC	1	0	6.19631791115	-170.0	-100.0	-165	-105	1
1.7	2015_Jul_29_1302	s	s	9	2	SIC	62	ABS	0	2	24RD	0	0	-1	None	None	None	None	-1
1.7	2015_Jul_29_1302	s	s	9	2	SIC	63	RC	0	2	23RD	0	0	-1	-184.0	124.0	None	None	-1
1.7	2015_Jul_29_1302	s	s	9	2	SIC	64	ABS	0	1	24RO	0	1	15.8073599339	None	None	None	None	1
1.7	2015_Jul_29_1302	s	s	9	2	SIC	65	ABS	2	2	24VD	0	1	0.714951992035	None	None	None	None	1
1.7	2015_Jul_29_1302	s	s	9	2	SIC	66	ABS	1	0	24MC	1	0	0.97634601593	None	None	-197	145	0
1.7	2015_Jul_29_1302	s	s	9	2	SIC	67	RC	2	1	23VO	0	1	3.37340307236	400.0	180.0	None	None	0
1.7	2015_Jul_29_1302	s	s	9	2	SIC	68	ABS	1	2	24MD	0	1	1.31269288063	None	None	None	None	1
1.7	2015_Jul_29_1302	s	s	9	2	SIC	69	ABS	2	0	24VC	0	1	2.83139395714	None	None	None	None	1
1.7	2015_Jul_29_1302	s	s	9	2	SIC	70	ABS	2	1	24VO	0	1	0.588004112244	None	None	None	None	1
1.7	2015_Jul_29_1302	s	s	9	2	SIC	71	ABS	1	1	24MO	0	1	10.0985980034	None	None	None	None	1
1.7	2015_Jul_29_1302	s	s	9	2	SIC	72	RC	2	2	23VD	1	0	0.806375026703	382.0	283.0	384	279	1
1.7	2015_Jul_29_1302	s	s	9	2	SIC	73	RC	1	2	23MD	1	0	1.27068114281	394.0	-364.0	388	-360	1
1.7	2015_Jul_29_1302	s	s	9	2	SIC	74	RC	0	1	23RO	1	0	2.43079090118	138.0	375.0	135	374	1
1.7	2015_Jul_29_1302	s	s	9	2	SIC	75	RC	2	0	23VC	1	0	0.646797895432	-171.0	80.0	-167	82	1
1.7	2015_Jul_29_1302	s	s	9	2	SIC	76	RC	1	0	23MC	1	0	1.67780804634	137.0	293.0	-245	351	0
1.7	2015_Jul_29_1302	s	s	9	2	SIC	77	ABS	0	1	24RO	0	1	16.3721818924	None	None	None	None	1
1.7	2015_Jul_29_1302	s	s	9	2	SIC	78	RC	0	2	23RD	1	0	1.05860185623	-19.0	93.0	-22	89	1
1.7	2015_Jul_29_1302	s	s	9	2	SIC	79	RC	1	1	23MO	1	0	3.37746810913	-523.0	-210.0	-525	-209	1
1.7	2015_Jul_29_1302	s	s	9	2	SIC	80	ABS	0	2	24RD	0	1	13.4248468876	None	None	None	None	1
1.7	2015_Jul_29_1302	s	s	9	2	SIC	81	ABS	1	2	24MD	0	1	1.08904695511	None	None	None	None	1
1.7	2015_Jul_29_1302	s	s	9	2	SIC	82	RC	1	2	23MD	1	0	1.1647131443	-116.0	-397.0	-117	-407	1
1.7	2015_Jul_29_1302	s	s	9	2	SIC	83	RC	2	1	23VO	1	0	0.747802019119	361.0	-15.0	355	-19	1
1.7	2015_Jul_29_1302	s	s	9	2	SIC	84	ABS	2	1	24VO	0	1	0.584347009659	None	None	None	None	1
1.7	2015_Jul_29_1302	s	s	9	2	SIC	85	RC	0	1	23RO	1	0	0.800191879272	-387.0	116.0	-383	114	1
1.7	2015_Jul_29_1302	s	s	9	2	SIC	86	RC	0	2	23RD	1	0	0.658527135849	-240.0	369.0	-234	371	1
1.7	2015_Jul_29_1302	s	s	9	2	SIC	87	RC	2	2	23VD	1	0	0.49383187294	-455.0	-143.0	-454	-141	1
1.7	2015_Jul_29_1302	s	s	9	2	SIC	88	RC	2	0	23VC	1	0	0.517200946808	-57.0	268.0	-55	264	1
1.7	2015_Jul_29_1302	s	s	9	2	SIC	89	ABS	2	2	24VD	0	1	0.69384598732	None	None	None	None	1
1.7	2015_Jul_29_1302	s	s	9	2	SIC	90	ABS	0	1	24RO	0	1	0.721103906631	None	None	None	None	1
1.7	2015_Jul_29_1302	s	s	9	2	SIC	91	ABS	2	0	24VC	0	1	1.41185998917	None	None	None	None	1
1.7	2015_Jul_29_1302	s	s	9	2	SIC	92	RC	1	0	23MC	1	0	3.03058481216	-480.0	187.0	-484	182	1
1.7	2015_Jul_29_1302	s	s	9	2	SIC	93	ABS	1	0	24MC	1	0	8.43341517448	None	None	-188	-60	0
1.7	2015_Jul_29_1302	s	s	9	2	SIC	94	RC	1	1	23MO	1	0	0.658463954926	-34.0	121.0	-37	116	1
1.7	2015_Jul_29_1302	s	s	9	2	SIC	95	ABS	1	1	24MO	0	1	3.64827108383	None	None	None	None	1
1.7	2015_Jul_29_1302	s	s	9	2	SIC	96	ABS	0	2	24RD	0	1	0.691039800644	None	None	None	None	1
1.7	2015_Jul_29_1302	s	s	9	2	SIC	97	ABS	2	1	24VO	0	1	0.500010967255	None	None	None	None	1
1.7	2015_Jul_29_1302	s	s	9	2	SIC	98	RC	1	0	23MC	1	0	1.2037088871	-501.0	240.0	-508	244	1
1.7	2015_Jul_29_1302	s	s	9	2	SIC	99	RC	1	2	23MD	0	1	2.33923006058	475.0	271.0	None	None	0
1.7	2015_Jul_29_1302	s	s	9	2	SIC	100	ABS	0	2	24RD	0	1	1.50286698341	None	None	None	None	1
1.7	2015_Jul_29_1302	s	s	9	2	SIC	101	ABS	2	0	24VC	0	1	0.505567073822	None	None	None	None	1
1.7	2015_Jul_29_1302	s	s	9	2	SIC	102	ABS	0	1	24RO	0	1	0.230688095093	None	None	None	None	1
1.7	2015_Jul_29_1302	s	s	9	2	SIC	103	RC	1	1	23MO	0	1	0.140624046326	-263.0	359.0	None	None	0
1.7	2015_Jul_29_1302	s	s	9	2	SIC	104	RC	0	2	23RD	0	1	0.00711417198181	-400.0	-168.0	None	None	0
1.7	2015_Jul_29_1302	s	s	9	2	SIC	105	RC	0	1	23RO	0	1	5.12642598152	71.0	-363.0	None	None	0
1.7	2015_Jul_29_1302	s	s	9	2	SIC	106	ABS	1	1	24MO	0	0	-1	None	None	None	None	-1
1.7	2015_Jul_29_1302	s	s	9	2	SIC	107	RC	2	1	23VO	1	0	12.4172568321	-329.0	-412.0	-342	-405	1
1.7	2015_Jul_29_1302	s	s	9	2	SIC	108	RC	2	2	23VD	1	0	2.23943185806	148.0	292.0	147	293	1
1.7	2015_Jul_29_1302	s	s	9	2	SIC	109	RC	2	0	23VC	1	0	0.547433137894	-115.0	-68.0	-113	-82	1
1.7	2015_Jul_29_1302	s	s	9	2	SIC	110	ABS	2	2	24VD	0	1	0.729184865952	None	None	None	None	1
1.7	2015_Jul_29_1302	s	s	9	2	SIC	111	ABS	1	2	24MD	0	1	0.823371171951	None	None	None	None	1
1.7	2015_Jul_29_1302	s	s	9	2	SIC	112	ABS	1	0	24MC	0	1	1.34123921394	None	None	None	None	1
1.7	2015_Jul_29_1302	s	s	9	2	SIC	113	ABS	1	0	24MC	1	0	2.5418150425	None	None	-330	379	0
1.7	2015_Jul_29_1302	s	s	9	2	SIC	114	ABS	2	1	24VO	0	1	0.693793058395	None	None	None	None	1
1.7	2015_Jul_29_1302	s	s	9	2	SIC	115	ABS	0	2	24RD	0	1	0.983024835587	None	None	None	None	1
1.7	2015_Jul_29_1302	s	s	9	2	SIC	116	ABS	2	2	24VD	0	1	0.582827091217	None	None	None	None	1
1.7	2015_Jul_29_1302	s	s	9	2	SIC	117	RC	1	0	23MC	0	1	5.53759407997	291.0	226.0	None	None	0
1.7	2015_Jul_29_1302	s	s	9	2	SIC	118	ABS	2	0	24VC	0	1	3.07157206535	None	None	None	None	1
1.7	2015_Jul_29_1302	s	s	9	2	SIC	119	RC	2	1	23VO	0	1	0.831223964691	-530.0	-92.0	None	None	0
1.7	2015_Jul_29_1302	s	s	9	2	SIC	120	ABS	1	1	24MO	0	1	3.45477581024	None	None	None	None	1
1.7	2015_Jul_29_1302	s	s	9	2	SIC	121	RC	2	0	23VC	0	1	0.187782049179	-529.0	186.0	None	None	0
1.7	2015_Jul_29_1302	s	s	9	2	SIC	122	RC	0	2	23RD	0	1	0.858623981476	217.0	139.0	None	None	0
1.7	2015_Jul_29_1302	s	s	9	2	SIC	123	RC	1	1	23MO	0	1	4.86061406136	-534.0	-205.0	None	None	0
1.7	2015_Jul_29_1302	s	s	9	2	SIC	124	ABS	0	1	24RO	0	1	13.5237300396	None	None	None	None	1
1.7	2015_Jul_29_1302	s	s	9	2	SIC	125	ABS	1	2	24MD	0	1	6.06981492043	None	None	None	None	1
1.7	2015_Jul_29_1302	s	s	9	2	SIC	126	RC	0	1	23RO	0	1	7.82288503647	-239.0	363.0	None	None	0
1.7	2015_Jul_29_1302	s	s	9	2	SIC	127	RC	1	2	23MD	0	1	0.223016023636	498.0	261.0	None	None	0
1.7	2015_Jul_29_1302	s	s	9	2	SIC	128	RC	2	2	23VD	0	1	0.988512039185	-9.0	-37.0	None	None	0
1.7	2015_Jul_29_1302	s	s	9	2	SIC	129	ABS	1	2	24MD	0	1	0.0699970722198	None	None	None	None	1
1.7	2015_Jul_29_1302	s	s	9	2	SIC	130	RC	1	1	23MO	0	1	0.505443096161	183.0	-167.0	None	None	0
1.7	2015_Jul_29_1302	s	s	9	2	SIC	131	ABS	1	1	24MO	0	1	4.66056203842	None	None	None	None	1
1.7	2015_Jul_29_1302	s	s	9	2	SIC	132	ABS	0	1	24RO	0	1	3.53060793877	None	None	None	None	1
1.7	2015_Jul_29_1302	s	s	9	2	SIC	133	RC	1	2	23MD	0	1	0.514794111252	529.0	-88.0	None	None	0
1.7	2015_Jul_29_1302	s	s	9	2	SIC	134	RC	1	0	23MC	0	1	5.53160905838	-381.0	208.0	None	None	0
1.7	2015_Jul_29_1302	s	s	9	2	SIC	135	ABS	0	2	24RD	0	1	1.2588891983	None	None	None	None	1
1.7	2015_Jul_29_1302	s	s	9	2	SIC	136	ABS	2	0	24VC	0	1	0.846950054169	None	None	None	None	1
1.7	2015_Jul_29_1302	s	s	9	2	SIC	137	RC	0	1	23RO	0	1	17.5140531063	325.0	356.0	None	None	0
1.7	2015_Jul_29_1302	s	s	9	2	SIC	138	RC	2	0	23VC	0	1	1.6001701355	-282.0	-146.0	None	None	0
1.7	2015_Jul_29_1302	s	s	9	2	SIC	139	ABS	2	1	24VO	0	1	0.959822177887	None	None	None	None	1
1.7	2015_Jul_29_1302	s	s	9	2	SIC	140	RC	2	2	23VD	0	1	0.270312070847	-108.0	-221.0	None	None	0
1.7	2015_Jul_29_1302	s	s	9	2	SIC	141	ABS	2	2	24VD	0	1	1.98529195786	None	None	None	None	1
1.7	2015_Jul_29_1302	s	s	9	2	SIC	142	RC	0	2	23RD	0	1	11.1084110737	430.0	338.0	None	None	0
1.7	2015_Jul_29_1302	s	s	9	2	SIC	143	RC	2	1	23VO	0	1	15.6747910976	4.0	-366.0	None	None	0
1.7	2015_Jul_29_1302	s	s	9	2	SIC	144	ABS	1	0	24MC	0	1	6.30871701241	None	None	None	None	1
1.7	2015_Jul_29_1302	s	s	9	2	SIC	145	RC	0	2	23RD	0	1	6.46822690964	211.0	154.0	None	None	0
1.7	2015_Jul_29_1302	s	s	9	2	SIC	146	ABS	0	2	24RD	0	1	2.33600282669	None	None	None	None	1
1.7	2015_Jul_29_1302	s	s	9	2	SIC	147	ABS	1	2	24MD	0	1	2.3735640049	None	None	None	None	1
1.7	2015_Jul_29_1302	s	s	9	2	SIC	148	RC	2	0	23VC	0	1	1.38348388672	-162.0	-6.0	None	None	0
1.7	2015_Jul_29_1302	s	s	9	2	SIC	149	ABS	0	1	24RO	0	1	4.8135240078	None	None	None	None	1
1.7	2015_Jul_29_1302	s	s	9	2	SIC	150	RC	1	2	23MD	0	1	2.7157189846	-180.0	-89.0	None	None	0
1.7	2015_Jul_29_1302	s	s	9	2	SIC	151	RC	1	0	23MC	0	1	2.88326406479	34.0	111.0	None	None	0
1.7	2015_Jul_29_1302	s	s	9	2	SIC	152	RC	0	1	23RO	0	1	8.25061202049	-43.0	314.0	None	None	0
1.7	2015_Jul_29_1302	s	s	9	2	SIC	153	RC	2	1	23VO	0	1	0.278918027878	-231.0	-106.0	None	None	0
1.7	2015_Jul_29_1302	s	s	9	2	SIC	154	ABS	2	1	24VO	0	1	0.11482000351	None	None	None	None	1
1.7	2015_Jul_29_1302	s	s	9	2	SIC	155	RC	2	2	23VD	0	1	1.60015702248	12.0	-381.0	None	None	0
1.7	2015_Jul_29_1302	s	s	9	2	SIC	156	ABS	1	1	24MO	0	1	0.929352998734	None	None	None	None	1
1.7	2015_Jul_29_1302	s	s	9	2	SIC	157	ABS	2	2	24VD	0	1	0.222977876663	None	None	None	None	1
1.7	2015_Jul_29_1302	s	s	9	2	SIC	158	ABS	1	0	24MC	0	1	1.52949690819	None	None	None	None	1
1.7	2015_Jul_29_1302	s	s	9	2	SIC	159	RC	1	1	23MO	0	1	2.32999300957	-278.0	170.0	None	None	0
1.7	2015_Jul_29_1302	s	s	9	2	SIC	160	ABS	2	0	24VC	0	1	2.31820893288	None	None	None	None	1
1.7	2015_Jul_29_1302	s	s	9	2	SIC	161	RC	0	1	23RO	0	1	0.352471113205	-372.0	142.0	None	None	0
1.7	2015_Jul_29_1302	s	s	9	2	SIC	162	RC	0	2	23RD	0	1	0.42314696312	-106.0	-276.0	None	None	0
1.7	2015_Jul_29_1302	s	s	9	2	SIC	163	ABS	0	1	24RO	0	1	0.182690143585	None	None	None	None	1
1.7	2015_Jul_29_1302	s	s	9	2	SIC	164	ABS	2	2	24VD	0	1	1.43538093567	None	None	None	None	1
1.7	2015_Jul_29_1302	s	s	9	2	SIC	165	ABS	2	1	24VO	0	1	0.458503961563	None	None	None	None	1
1.7	2015_Jul_29_1302	s	s	9	2	SIC	166	ABS	1	2	24MD	0	1	0.0111529827118	None	None	None	None	1
1.7	2015_Jul_29_1302	s	s	9	2	SIC	167	ABS	2	0	24VC	0	1	0.57638502121	None	None	None	None	1
1.7	2015_Jul_29_1302	s	s	9	2	SIC	168	RC	2	0	23VC	0	1	0.752650022507	92.0	-59.0	None	None	0
1.7	2015_Jul_29_1302	s	s	9	2	SIC	169	ABS	0	2	24RD	0	1	0.905681848526	None	None	None	None	1
1.7	2015_Jul_29_1302	s	s	9	2	SIC	170	ABS	1	0	24MC	0	1	1.52962803841	None	None	None	None	1
1.7	2015_Jul_29_1302	s	s	9	2	SIC	171	ABS	1	1	24MO	0	1	4.62260007858	None	None	None	None	1
1.7	2015_Jul_29_1302	s	s	9	2	SIC	172	RC	2	2	23VD	0	1	0.854990005493	360.0	-8.0	None	None	0
1.7	2015_Jul_29_1302	s	s	9	2	SIC	173	RC	1	2	23MD	0	1	0.870342969894	-525.0	-94.0	None	None	0
1.7	2015_Jul_29_1302	s	s	9	2	SIC	174	RC	1	0	23MC	0	1	0.870393037796	154.0	69.0	None	None	0
1.7	2015_Jul_29_1302	s	s	9	2	SIC	175	RC	2	1	23VO	0	0	-1	-63.0	179.0	None	None	-1
1.7	2015_Jul_29_1302	s	s	9	2	SIC	176	RC	1	1	23MO	0	1	8.657102108	160.0	-274.0	None	None	0
1.7	2015_Jul_29_1302	s	s	9	2	SIC	177	RC	1	0	23MC	0	1	0.0794920921326	153.0	-343.0	None	None	0
1.7	2015_Jul_29_1302	s	s	9	2	SIC	178	ABS	2	1	24VO	0	1	11.4994771481	None	None	None	None	1
1.7	2015_Jul_29_1302	s	s	9	2	SIC	179	ABS	1	0	24MC	0	1	5.83448791504	None	None	None	None	1
1.7	2015_Jul_29_1302	s	s	9	2	SIC	180	ABS	0	1	24RO	0	1	0.199392080307	None	None	None	None	1
1.7	2015_Jul_29_1302	s	s	9	2	SIC	181	RC	1	1	23MO	0	1	0.552440166473	-356.0	-335.0	None	None	0
1.7	2015_Jul_29_1302	s	s	9	2	SIC	182	ABS	0	2	24RD	0	1	0.395723819733	None	None	None	None	1
1.7	2015_Jul_29_1302	s	s	9	2	SIC	183	ABS	2	0	24VC	0	1	2.44755506516	None	None	None	None	1
1.7	2015_Jul_29_1302	s	s	9	2	SIC	184	ABS	2	2	24VD	0	1	0.866953134537	None	None	None	None	1
1.7	2015_Jul_29_1302	s	s	9	2	SIC	185	ABS	1	1	24MO	0	1	1.91527795792	None	None	None	None	1
1.7	2015_Jul_29_1302	s	s	9	2	SIC	186	RC	0	2	23RD	0	1	0.15994977951	-325.0	204.0	None	None	0
1.7	2015_Jul_29_1302	s	s	9	2	SIC	187	RC	2	0	23VC	0	1	0.37598991394	-359.0	-408.0	None	None	0
1.7	2015_Jul_29_1302	s	s	9	2	SIC	188	RC	2	2	23VD	0	1	0.882081031799	-122.0	-399.0	None	None	0
1.7	2015_Jul_29_1302	s	s	9	2	SIC	189	RC	1	2	23MD	0	1	0.451857805252	-417.0	295.0	None	None	0
1.7	2015_Jul_29_1302	s	s	9	2	SIC	190	RC	0	1	23RO	0	1	1.94878911972	-478.0	335.0	None	None	0
1.7	2015_Jul_29_1302	s	s	9	2	SIC	191	ABS	1	2	24MD	0	1	1.66579890251	None	None	None	None	1
1.7	2015_Jul_29_1302	s	s	9	2	SIC	192	RC	2	1	23VO	0	1	1.11491918564	-26.0	50.0	None	None	0
1.7	2015_Jul_29_1302	s	s	9	2	SIC	193	RC	2	1	23VO	0	1	0.340754985809	232.0	-387.0	None	None	0
1.7	2015_Jul_29_1302	s	s	9	2	SIC	194	RC	2	0	23VC	0	1	1.60701394081	269.0	-117.0	None	None	0
1.7	2015_Jul_29_1302	s	s	9	2	SIC	195	ABS	2	0	24VC	0	1	14.0072538853	None	None	None	None	1
1.7	2015_Jul_29_1302	s	s	9	2	SIC	196	RC	1	0	23MC	0	1	0.893972873688	494.0	-132.0	None	None	0
1.7	2015_Jul_29_1302	s	s	9	2	SIC	197	ABS	1	0	24MC	0	1	1.571860075	None	None	None	None	1
1.7	2015_Jul_29_1302	s	s	9	2	SIC	198	RC	0	1	23RO	0	1	1.36475300789	-108.0	-402.0	None	None	0
1.7	2015_Jul_29_1302	s	s	9	2	SIC	199	ABS	2	1	24VO	0	1	4.72495603561	None	None	None	None	1
1.7	2015_Jul_29_1302	s	s	9	2	SIC	200	ABS	1	1	24MO	0	1	1.867208004	None	None	None	None	1
1.7	2015_Jul_29_1302	s	s	9	2	SIC	201	ABS	0	1	24RO	0	1	1.75324201584	None	None	None	None	1
1.7	2015_Jul_29_1302	s	s	9	2	SIC	202	ABS	0	2	24RD	0	1	1.24700284004	None	None	None	None	1
1.7	2015_Jul_29_1302	s	s	9	2	SIC	203	ABS	1	2	24MD	0	1	0.0817959308624	None	None	None	None	1
1.7	2015_Jul_29_1302	s	s	9	2	SIC	204	ABS	2	2	24VD	0	1	4.06785798073	None	None	None	None	1
1.7	2015_Jul_29_1302	s	s	9	2	SIC	205	RC	1	1	23MO	0	1	3.03382301331	-438.0	-160.0	None	None	0
1.7	2015_Jul_29_1302	s	s	9	2	SIC	206	RC	2	2	23VD	0	1	2.47126197815	363.0	105.0	None	None	0
1.7	2015_Jul_29_1302	s	s	9	2	SIC	207	RC	1	2	23MD	0	1	1.86826014519	495.0	122.0	None	None	0
1.7	2015_Jul_29_1302	s	s	9	2	SIC	208	RC	0	2	23RD	0	1	0.599630832672	155.0	-30.0	None	None	0
1.7	2015_Jul_29_1302	s	s	9	2	SIC	209	ABS	0	2	24RD	0	1	0.232326030731	None	None	None	None	1
1.7	2015_Jul_29_1302	s	s	9	2	SIC	210	RC	2	1	23VO	0	1	1.28231096268	486.0	-51.0	None	None	0
1.7	2015_Jul_29_1302	s	s	9	2	SIC	211	ABS	1	1	24MO	0	1	2.77209496498	None	None	None	None	1
1.7	2015_Jul_29_1302	s	s	9	2	SIC	212	RC	2	2	23VD	0	1	0.0639770030975	-507.0	-368.0	None	None	0
1.7	2015_Jul_29_1302	s	s	9	2	SIC	213	ABS	1	0	24MC	0	1	3.86009502411	None	None	None	None	1
1.7	2015_Jul_29_1302	s	s	9	2	SIC	214	ABS	0	1	24RO	0	1	1.48932695389	None	None	None	None	1
1.7	2015_Jul_29_1302	s	s	9	2	SIC	215	RC	0	2	23RD	0	1	3.14207911491	-27.0	-22.0	None	None	0
1.7	2015_Jul_29_1302	s	s	9	2	SIC	216	ABS	2	2	24VD	0	1	1.58273100853	None	None	None	None	1
1.7	2015_Jul_29_1302	s	s	9	2	SIC	217	RC	1	2	23MD	0	1	0.31723690033	507.0	-335.0	None	None	0
1.7	2015_Jul_29_1302	s	s	9	2	SIC	218	ABS	2	1	24VO	0	1	2.5771689415	None	None	None	None	1
1.7	2015_Jul_29_1302	s	s	9	2	SIC	219	ABS	1	2	24MD	0	1	0.0762188434601	None	None	None	None	1
1.7	2015_Jul_29_1302	s	s	9	2	SIC	220	RC	2	0	23VC	0	1	0.100128889084	306.0	64.0	None	None	0
1.7	2015_Jul_29_1302	s	s	9	2	SIC	221	RC	1	1	23MO	0	1	0.387799978256	-196.0	-408.0	None	None	0
1.7	2015_Jul_29_1302	s	s	9	2	SIC	222	ABS	2	0	24VC	0	1	0.313856840134	None	None	None	None	1
1.7	2015_Jul_29_1302	s	s	9	2	SIC	223	RC	1	0	23MC	0	1	0.91730594635	-446.0	-193.0	None	None	0
1.7	2015_Jul_29_1302	s	s	9	2	SIC	224	RC	0	1	23RO	0	1	0.0871870517731	251.0	-13.0	None	None	0
1.7	2015_Jul_29_1302	s	s	9	2	SIC	225	ABS	1	1	24MO	0	1	2.8950009346	None	None	None	None	1
1.7	2015_Jul_29_1302	s	s	9	2	SIC	226	RC	2	0	23VC	0	1	1.81202912331	-340.0	-136.0	None	None	0
1.7	2015_Jul_29_1302	s	s	9	2	SIC	227	RC	1	0	23MC	0	1	5.24346518517	-116.0	359.0	None	None	0
1.7	2015_Jul_29_1302	s	s	9	2	SIC	228	ABS	1	0	24MC	0	1	0.481951951981	None	None	None	None	1
1.7	2015_Jul_29_1302	s	s	9	2	SIC	229	RC	1	1	23MO	0	1	5.51658701897	-38.0	254.0	None	None	0
1.7	2015_Jul_29_1302	s	s	9	2	SIC	230	RC	1	2	23MD	0	1	3.70443487167	-145.0	-161.0	None	None	0
1.7	2015_Jul_29_1302	s	s	9	2	SIC	231	ABS	2	1	24VO	0	1	0.823148965836	None	None	None	None	1
1.7	2015_Jul_29_1302	s	s	9	2	SIC	232	RC	0	2	23RD	0	1	1.76499891281	458.0	247.0	None	None	0
1.7	2015_Jul_29_1302	s	s	9	2	SIC	233	ABS	1	2	24MD	0	1	1.84740591049	None	None	None	None	1
1.7	2015_Jul_29_1302	s	s	9	2	SIC	234	ABS	0	1	24RO	0	1	2.75946211815	None	None	None	None	1
1.7	2015_Jul_29_1302	s	s	9	2	SIC	235	RC	0	1	23RO	0	1	1.12935996056	297.0	-296.0	None	None	0
1.7	2015_Jul_29_1302	s	s	9	2	SIC	236	ABS	2	2	24VD	0	1	11.1225309372	None	None	None	None	1
1.7	2015_Jul_29_1302	s	s	9	2	SIC	237	RC	2	2	23VD	0	1	1.83266711235	-274.0	-31.0	None	None	0
1.7	2015_Jul_29_1302	s	s	9	2	SIC	238	RC	2	1	23VO	0	1	5.52024388313	-322.0	210.0	None	None	0
1.7	2015_Jul_29_1302	s	s	9	2	SIC	239	ABS	2	0	24VC	0	1	4.55208420753	None	None	None	None	1
1.7	2015_Jul_29_1302	s	s	9	2	SIC	240	ABS	0	2	24RD	0	1	2.60049891472	None	None	None	None	1
1.7	2015_Jul_29_1302	s	s	9	2	SIC	241	ABS	0	2	24RD	0	1	3.0598089695	None	None	None	None	1
1.7	2015_Jul_29_1302	s	s	9	2	SIC	242	ABS	2	1	24VO	0	1	5.09610009193	None	None	None	None	1
1.7	2015_Jul_29_1302	s	s	9	2	SIC	243	ABS	1	2	24MD	0	1	0.87055182457	None	None	None	None	1
1.7	2015_Jul_29_1302	s	s	9	2	SIC	244	RC	1	2	23MD	0	1	1.14101099968	444.0	159.0	None	None	0
1.7	2015_Jul_29_1302	s	s	9	2	SIC	245	RC	2	2	23VD	0	1	1.44216799736	-467.0	58.0	None	None	0
1.7	2015_Jul_29_1302	s	s	9	2	SIC	246	ABS	0	1	24RO	0	1	3.95189499855	None	None	None	None	1
1.7	2015_Jul_29_1302	s	s	9	2	SIC	247	RC	2	1	23VO	0	1	1.20000290871	101.0	208.0	None	None	0
1.7	2015_Jul_29_1302	s	s	9	2	SIC	248	ABS	2	0	24VC	0	1	3.96363782883	None	None	None	None	1
1.7	2015_Jul_29_1302	s	s	9	2	SIC	249	ABS	2	2	24VD	0	1	0.347282886505	None	None	None	None	1
1.7	2015_Jul_29_1302	s	s	9	2	SIC	250	ABS	1	0	24MC	0	1	0.370912075043	None	None	None	None	1
1.7	2015_Jul_29_1302	s	s	9	2	SIC	251	RC	1	1	23MO	0	1	0.376008987427	490.0	-254.0	None	None	0
1.7	2015_Jul_29_1302	s	s	9	2	SIC	252	RC	0	2	23RD	0	1	1.34804797173	383.0	-95.0	None	None	0
1.7	2015_Jul_29_1302	s	s	9	2	SIC	253	RC	0	1	23RO	0	1	3.44845604897	411.0	248.0	None	None	0
1.7	2015_Jul_29_1302	s	s	9	2	SIC	254	RC	2	0	23VC	0	1	0.529072999954	407.0	131.0	None	None	0
1.7	2015_Jul_29_1302	s	s	9	2	SIC	255	RC	1	0	23MC	0	1	0.105314016342	308.0	280.0	None	None	0
1.7	2015_Jul_29_1302	s	s	9	2	SIC	256	ABS	1	1	24MO	0	1	3.57764697075	None	None	None	None	1
1.7	2015_Jul_29_1302	s	s	9	2	SIC	257	RC	2	2	23VD	0	1	1.59767699242	173.0	215.0	None	None	0
1.7	2015_Jul_29_1302	s	s	9	2	SIC	258	ABS	2	1	24VO	0	1	1.47069191933	None	None	None	None	1
1.7	2015_Jul_29_1302	s	s	9	2	SIC	259	RC	1	0	23MC	0	1	0.347491025925	-8.0	134.0	None	None	0
1.7	2015_Jul_29_1302	s	s	9	2	SIC	260	ABS	2	0	24VC	0	1	0.488744020462	None	None	None	None	1
1.7	2015_Jul_29_1302	s	s	9	2	SIC	261	RC	1	2	23MD	0	1	0.493709087372	495.0	-303.0	None	None	0
1.7	2015_Jul_29_1302	s	s	9	2	SIC	262	RC	0	2	23RD	0	1	0.305433988571	-491.0	-112.0	None	None	0
1.7	2015_Jul_29_1302	s	s	9	2	SIC	263	RC	2	0	23VC	0	1	0.164135932922	276.0	314.0	None	None	0
1.7	2015_Jul_29_1302	s	s	9	2	SIC	264	RC	1	1	23MO	0	1	0.644252061844	418.0	-208.0	None	None	0
1.7	2015_Jul_29_1302	s	s	9	2	SIC	265	RC	2	1	23VO	0	1	1.44707512856	186.0	-199.0	None	None	0
1.7	2015_Jul_29_1302	s	s	9	2	SIC	266	ABS	0	2	24RD	0	1	1.85603523254	None	None	None	None	1
1.7	2015_Jul_29_1302	s	s	9	2	SIC	267	ABS	1	2	24MD	0	1	0.140685081482	None	None	None	None	1
1.7	2015_Jul_29_1302	s	s	9	2	SIC	268	ABS	2	2	24VD	0	1	0.258594989777	None	None	None	None	1
1.7	2015_Jul_29_1302	s	s	9	2	SIC	269	ABS	1	1	24MO	0	1	0.54082608223	None	None	None	None	1
1.7	2015_Jul_29_1302	s	s	9	2	SIC	270	ABS	0	1	24RO	0	1	3.03623986244	None	None	None	None	1
1.7	2015_Jul_29_1302	s	s	9	2	SIC	271	RC	0	1	23RO	0	1	1.34793114662	6.0	362.0	None	None	0
1.7	2015_Jul_29_1302	s	s	9	2	SIC	272	ABS	1	0	24MC	0	1	1.10155010223	None	None	None	None	1
1.7	2015_Jul_29_1302	s	s	9	2	SIC	273	RC	2	2	23VD	0	1	1.15286898613	97.0	118.0	None	None	0
1.7	2015_Jul_29_1302	s	s	9	2	SIC	274	ABS	2	0	24VC	0	1	1.43550300598	None	None	None	None	1
1.7	2015_Jul_29_1302	s	s	9	2	SIC	275	RC	1	2	23MD	0	1	0.879971981049	95.0	244.0	None	None	0
1.7	2015_Jul_29_1302	s	s	9	2	SIC	276	ABS	2	2	24VD	0	1	5.08119392395	None	None	None	None	1
1.7	2015_Jul_29_1302	s	s	9	2	SIC	277	RC	1	0	23MC	0	1	0.717300891876	539.0	234.0	None	None	0
1.7	2015_Jul_29_1302	s	s	9	2	SIC	278	ABS	1	0	24MC	0	1	0.152360916138	None	None	None	None	1
1.7	2015_Jul_29_1302	s	s	9	2	SIC	279	ABS	0	1	24RO	0	1	1.8308570385	None	None	None	None	1
1.7	2015_Jul_29_1302	s	s	9	2	SIC	280	ABS	2	1	24VO	0	1	3.75130295753	None	None	None	None	1
1.7	2015_Jul_29_1302	s	s	9	2	SIC	281	RC	0	2	23RD	1	0	0.882100105286	-46.0	24.0	-52	29	1
1.7	2015_Jul_29_1302	s	s	9	2	SIC	282	ABS	1	1	24MO	0	1	0.3877389431	None	None	None	None	1
1.7	2015_Jul_29_1302	s	s	9	2	SIC	283	RC	2	1	23VO	0	1	0.250930070877	-102.0	-245.0	None	None	0
1.7	2015_Jul_29_1302	s	s	9	2	SIC	284	ABS	0	2	24RD	0	1	0.491003990173	None	None	None	None	1
1.7	2015_Jul_29_1302	s	s	9	2	SIC	285	ABS	1	2	24MD	0	1	0.0437021255493	None	None	None	None	1
1.7	2015_Jul_29_1302	s	s	9	2	SIC	286	RC	1	1	23MO	0	1	0.434872865677	464.0	9.0	None	None	0
1.7	2015_Jul_29_1302	s	s	9	2	SIC	287	RC	2	0	23VC	0	1	0.761778831482	434.0	110.0	None	None	0
1.7	2015_Jul_29_1302	s	s	9	2	SIC	288	RC	0	1	23RO	0	1	0.511911153793	-201.0	386.0	None	None	0
1.7	2015_Jul_29_1302	s	s	9	2	SIC	289	RC	0	1	23RO	0	1	0.552578926086	-110.0	362.0	None	None	0
1.7	2015_Jul_29_1302	s	s	9	2	SIC	290	ABS	2	2	24VD	0	1	0.0192258358002	None	None	None	None	1
1.7	2015_Jul_29_1302	s	s	9	2	SIC	291	ABS	1	2	24MD	0	1	0.285486936569	None	None	None	None	1
1.7	2015_Jul_29_1302	s	s	9	2	SIC	292	RC	2	2	23VD	1	0	0.80854511261	324.0	-288.0	328	-291	1
1.7	2015_Jul_29_1302	s	s	9	2	SIC	293	ABS	0	2	24RD	0	1	1.08234596252	None	None	None	None	1
1.7	2015_Jul_29_1302	s	s	9	2	SIC	294	ABS	2	1	24VO	0	1	0.564543962479	None	None	None	None	1
1.7	2015_Jul_29_1302	s	s	9	2	SIC	295	RC	0	2	23RD	1	0	1.08941102028	-514.0	294.0	-518	290	1
1.7	2015_Jul_29_1302	s	s	9	2	SIC	296	ABS	1	1	24MO	0	1	2.60071992874	None	None	None	None	1
1.7	2015_Jul_29_1302	s	s	9	2	SIC	297	RC	1	1	23MO	0	1	0.277321100235	237.0	231.0	None	None	0
1.7	2015_Jul_29_1302	s	s	9	2	SIC	298	ABS	0	1	24RO	0	1	0.340726852417	None	None	None	None	1
1.7	2015_Jul_29_1302	s	s	9	2	SIC	299	RC	2	1	23VO	0	1	0.752705812454	133.0	97.0	None	None	0
1.7	2015_Jul_29_1302	s	s	9	2	SIC	300	ABS	1	0	24MC	0	1	2.23316812515	None	None	None	None	1
1.7	2015_Jul_29_1302	s	s	9	2	SIC	301	RC	1	2	23MD	0	1	1.2177400589	440.0	-132.0	None	None	0
1.7	2015_Jul_29_1302	s	s	9	2	SIC	302	RC	1	0	23MC	0	1	5.89146590233	229.0	-398.0	None	None	0
1.7	2015_Jul_29_1302	s	s	9	2	SIC	303	ABS	2	0	24VC	0	1	0.406316041946	None	None	None	None	1
1.7	2015_Jul_29_1302	s	s	9	2	SIC	304	RC	2	0	23VC	0	1	0.434741973877	-129.0	-11.0	None	None	0
1.7	2015_Jul_29_1302	s	s	9	2	SIC	305	RC	1	0	23MC	0	1	0.667693138123	201.0	-337.0	None	None	0
1.7	2015_Jul_29_1302	s	s	9	2	SIC	306	RC	1	2	23MD	1	0	4.91958189011	-233.0	233.0	-230	232	1
1.7	2015_Jul_29_1302	s	s	9	2	SIC	307	ABS	1	1	24MO	0	1	0.688194990158	None	None	None	None	1
1.7	2015_Jul_29_1302	s	s	9	2	SIC	308	RC	0	1	23RO	0	1	0.470168113708	-361.0	-248.0	None	None	0
1.7	2015_Jul_29_1302	s	s	9	2	SIC	309	RC	0	2	23RD	0	1	0.797080993652	197.0	-298.0	None	None	0
1.7	2015_Jul_29_1302	s	s	9	2	SIC	310	ABS	1	0	24MC	0	1	0.105187892914	None	None	None	None	1
1.7	2015_Jul_29_1302	s	s	9	2	SIC	311	RC	1	1	23MO	0	1	0.30074095726	-233.0	86.0	None	None	0
1.7	2015_Jul_29_1302	s	s	9	2	SIC	312	RC	2	2	23VD	1	0	0.501389026642	-473.0	0.0	-474	5	1
1.7	2015_Jul_29_1302	s	s	9	2	SIC	313	RC	2	0	23VC	1	0	0.623109102249	-4.0	92.0	-12	93	1
1.7	2015_Jul_29_1302	s	s	9	2	SIC	314	ABS	2	0	24VC	0	1	0.0346601009369	None	None	None	None	1
1.7	2015_Jul_29_1302	s	s	9	2	SIC	315	ABS	0	1	24RO	0	1	0.258133888245	None	None	None	None	1
1.7	2015_Jul_29_1302	s	s	9	2	SIC	316	ABS	2	2	24VD	0	1	0.682093858719	None	None	None	None	1
1.7	2015_Jul_29_1302	s	s	9	2	SIC	317	ABS	2	1	24VO	0	1	1.0771510601	None	None	None	None	1
1.7	2015_Jul_29_1302	s	s	9	2	SIC	318	RC	2	1	23VO	1	0	2.63602304459	-290.0	84.0	-294	84	1
1.7	2015_Jul_29_1302	s	s	9	2	SIC	319	ABS	1	2	24MD	0	1	0.258213996887	None	None	None	None	1
1.7	2015_Jul_29_1302	s	s	9	2	SIC	320	ABS	0	2	24RD	0	1	0.372335195541	None	None	None	None	1
1.7	2015_Jul_29_1302	s	s	9	2	SIC	321	RC	1	0	23MC	0	1	6.65015506744	-346.0	-370.0	None	None	0
1.7	2015_Jul_29_1302	s	s	9	2	SIC	322	RC	2	2	23VD	0	1	1.17397785187	148.0	124.0	None	None	0
1.7	2015_Jul_29_1302	s	s	9	2	SIC	323	RC	0	2	23RD	0	1	0.698570013046	-137.0	387.0	None	None	0
1.7	2015_Jul_29_1302	s	s	9	2	SIC	324	RC	2	1	23VO	0	1	0.26454615593	347.0	64.0	None	None	0
1.7	2015_Jul_29_1302	s	s	9	2	SIC	325	RC	0	1	23RO	0	1	0.102795124054	506.0	-18.0	None	None	0
1.7	2015_Jul_29_1302	s	s	9	2	SIC	326	ABS	2	2	24VD	0	1	0.0319559574127	None	None	None	None	1
1.7	2015_Jul_29_1302	s	s	9	2	SIC	327	ABS	0	2	24RD	0	1	0.123842954636	None	None	None	None	1
1.7	2015_Jul_29_1302	s	s	9	2	SIC	328	ABS	1	1	24MO	0	1	0.175918102264	None	None	None	None	1
1.7	2015_Jul_29_1302	s	s	9	2	SIC	329	RC	1	2	23MD	0	1	0.559974908829	-302.0	271.0	None	None	0
1.7	2015_Jul_29_1302	s	s	9	2	SIC	330	ABS	0	1	24RO	0	1	0.618456125259	None	None	None	None	1
1.7	2015_Jul_29_1302	s	s	9	2	SIC	331	ABS	2	0	24VC	0	1	0.768100976944	None	None	None	None	1
1.7	2015_Jul_29_1302	s	s	9	2	SIC	332	ABS	2	1	24VO	0	1	0.611514091492	None	None	None	None	1
1.7	2015_Jul_29_1302	s	s	9	2	SIC	333	RC	1	1	23MO	0	1	0.407715082169	531.0	312.0	None	None	0
1.7	2015_Jul_29_1302	s	s	9	2	SIC	334	ABS	1	2	24MD	0	1	0.893844127655	None	None	None	None	1
1.7	2015_Jul_29_1302	s	s	9	2	SIC	335	ABS	1	0	24MC	0	1	0.46749997139	None	None	None	None	1
1.7	2015_Jul_29_1302	s	s	9	2	SIC	336	RC	2	0	23VC	0	1	0.266361951828	-149.0	166.0	None	None	0
1.7	2015_Jul_29_1302	s	s	9	2	SIC	337	RC	0	2	23RD	0	1	0.135202169418	459.0	-71.0	None	None	0
1.7	2015_Jul_29_1302	s	s	9	2	SIC	338	ABS	0	1	24RO	0	1	0.0110938549042	None	None	None	None	1
1.7	2015_Jul_29_1302	s	s	9	2	SIC	339	ABS	2	0	24VC	0	1	0.917377948761	None	None	None	None	1
1.7	2015_Jul_29_1302	s	s	9	2	SIC	340	RC	2	1	23VO	0	1	0.585335016251	419.0	326.0	None	None	0
1.7	2015_Jul_29_1302	s	s	9	2	SIC	341	ABS	0	2	24RD	0	1	0.623275995255	None	None	None	None	1
1.7	2015_Jul_29_1302	s	s	9	2	SIC	342	RC	2	2	23VD	0	1	0.976344823837	127.0	-273.0	None	None	0
1.7	2015_Jul_29_1302	s	s	9	2	SIC	343	RC	1	2	23MD	0	1	0.732745170593	512.0	211.0	None	None	0
1.7	2015_Jul_29_1302	s	s	9	2	SIC	344	ABS	1	2	24MD	0	1	0.703134059906	None	None	None	None	1
1.7	2015_Jul_29_1302	s	s	9	2	SIC	345	RC	1	1	23MO	0	1	0.411378145218	299.0	3.0	None	None	0
1.7	2015_Jul_29_1302	s	s	9	2	SIC	346	RC	2	0	23VC	0	1	0.347093105316	490.0	-296.0	None	None	0
1.7	2015_Jul_29_1302	s	s	9	2	SIC	347	ABS	2	1	24VO	0	1	0.229832172394	None	None	None	None	1
1.7	2015_Jul_29_1302	s	s	9	2	SIC	348	ABS	2	2	24VD	0	1	1.41177392006	None	None	None	None	1
1.7	2015_Jul_29_1302	s	s	9	2	SIC	349	RC	0	1	23RO	0	1	0.335205078125	-399.0	49.0	None	None	0
1.7	2015_Jul_29_1302	s	s	9	2	SIC	350	ABS	1	0	24MC	0	1	2.36902308464	None	None	None	None	1
1.7	2015_Jul_29_1302	s	s	9	2	SIC	351	ABS	1	1	24MO	0	1	0.434931993484	None	None	None	None	1
1.7	2015_Jul_29_1302	s	s	9	2	SIC	352	RC	1	0	23MC	0	1	0.0581970214844	-339.0	132.0	None	None	0
1.7	2015_Jul_29_1302	s	s	9	2	SIC	353	ABS	1	2	24MD	0	1	0.404937982559	None	None	None	None	1
1.7	2015_Jul_29_1302	s	s	9	2	SIC	354	RC	2	2	23VD	0	1	0.634903907776	-110.0	369.0	None	None	0
1.7	2015_Jul_29_1302	s	s	9	2	SIC	355	RC	2	0	23VC	1	0	14.7210521698	-303.0	-199.0	-303	-193	1
1.7	2015_Jul_29_1302	s	s	9	2	SIC	356	ABS	0	1	24RO	0	1	0.564412117004	None	None	None	None	1
1.7	2015_Jul_29_1302	s	s	9	2	SIC	357	ABS	2	1	24VO	0	1	0.567921161652	None	None	None	None	1
1.7	2015_Jul_29_1302	s	s	9	2	SIC	358	ABS	2	0	24VC	0	1	0.497833013535	None	None	None	None	1
1.7	2015_Jul_29_1302	s	s	9	2	SIC	359	RC	0	2	23RD	1	0	1.18831086159	436.0	287.0	441	276	1
1.7	2015_Jul_29_1302	s	s	9	2	SIC	360	RC	2	1	23VO	1	0	0.676330089569	-483.0	-382.0	-477	-387	1
1.7	2015_Jul_29_1302	s	s	9	2	SIC	361	ABS	0	2	24RD	0	1	0.827008008957	None	None	None	None	1
1.7	2015_Jul_29_1302	s	s	9	2	SIC	362	ABS	1	0	24MC	0	1	0.702987909317	None	None	None	None	1
1.7	2015_Jul_29_1302	s	s	9	2	SIC	363	ABS	2	2	24VD	0	1	0.467060089111	None	None	None	None	1
1.7	2015_Jul_29_1302	s	s	9	2	SIC	364	RC	0	1	23RO	0	1	0.476769924164	515.0	367.0	None	None	0
1.7	2015_Jul_29_1302	s	s	9	2	SIC	365	RC	1	1	23MO	0	1	0.961741924286	-180.0	-282.0	None	None	0
1.7	2015_Jul_29_1302	s	s	9	2	SIC	366	ABS	1	1	24MO	0	1	0.458397865295	None	None	None	None	1
1.7	2015_Jul_29_1302	s	s	9	2	SIC	367	RC	1	0	23MC	0	1	0.246611118317	230.0	-231.0	None	None	0
1.7	2015_Jul_29_1302	s	s	9	2	SIC	368	RC	1	2	23MD	0	1	0.0817511081696	80.0	138.0	None	None	0
1.7	2015_Jul_29_1302	s	s	9	2	SIC	369	RC	1	2	23MD	0	1	0.290966033936	-290.0	-274.0	None	None	0
1.7	2015_Jul_29_1302	s	s	9	2	SIC	370	ABS	2	0	24VC	0	1	0.161960840225	None	None	None	None	1
1.7	2015_Jul_29_1302	s	s	9	2	SIC	371	RC	2	0	23VC	0	1	0.328993797302	283.0	95.0	None	None	0
1.7	2015_Jul_29_1302	s	s	9	2	SIC	372	ABS	2	2	24VD	0	1	0.623155117035	None	None	None	None	1
1.7	2015_Jul_29_1302	s	s	9	2	SIC	373	RC	1	0	23MC	0	1	0.77294588089	-335.0	394.0	None	None	0
1.7	2015_Jul_29_1302	s	s	9	2	SIC	374	ABS	0	1	24RO	0	1	0.759592056274	None	None	None	None	1
1.7	2015_Jul_29_1302	s	s	9	2	SIC	375	RC	2	1	23VO	1	0	1.01191401482	-291.0	-371.0	-287	-372	1
1.7	2015_Jul_29_1302	s	s	9	2	SIC	376	ABS	0	2	24RD	0	1	0.773185014725	None	None	None	None	1
1.7	2015_Jul_29_1302	s	s	9	2	SIC	377	RC	2	2	23VD	1	0	0.605683088303	-273.0	-105.0	-271	-107	1
1.7	2015_Jul_29_1302	s	s	9	2	SIC	378	ABS	1	2	24MD	0	1	0.752592086792	None	None	None	None	1
1.7	2015_Jul_29_1302	s	s	9	2	SIC	379	RC	1	1	23MO	1	0	0.679445028305	200.0	-125.0	-92	106	0
1.7	2015_Jul_29_1302	s	s	9	2	SIC	380	ABS	2	1	24VO	0	1	0.605792045593	None	None	None	None	1
1.7	2015_Jul_29_1302	s	s	9	2	SIC	381	ABS	1	0	24MC	0	1	0.540822982788	None	None	None	None	1
1.7	2015_Jul_29_1302	s	s	9	2	SIC	382	ABS	1	1	24MO	0	1	0.246678113937	None	None	None	None	1
1.7	2015_Jul_29_1302	s	s	9	2	SIC	383	RC	0	1	23RO	0	1	0.482024908066	-432.0	-279.0	None	None	0
1.7	2015_Jul_29_1302	s	s	9	2	SIC	384	RC	0	2	23RD	1	0	0.854972839355	214.0	-145.0	214	-145	1
1.7	2015_Jul_29_1302	s	s	9	2	SIC	385	ABS	2	2	24VD	0	1	0.646643877029	None	None	None	None	1
1.7	2015_Jul_29_1302	s	s	9	2	SIC	386	RC	0	2	23RD	1	0	0.703116178513	-206.0	-137.0	-207	-138	1
1.7	2015_Jul_29_1302	s	s	9	2	SIC	387	ABS	1	1	24MO	0	1	1.13655686378	None	None	None	None	1
1.7	2015_Jul_29_1302	s	s	9	2	SIC	388	ABS	1	0	24MC	1	0	1.34763407707	None	None	-508	312	0
1.7	2015_Jul_29_1302	s	s	9	2	SIC	389	ABS	0	1	24RO	0	1	1.11224198341	None	None	None	None	1
1.7	2015_Jul_29_1302	s	s	9	2	SIC	390	ABS	2	1	24VO	0	1	0.91478395462	None	None	None	None	1
1.7	2015_Jul_29_1302	s	s	9	2	SIC	391	ABS	1	2	24MD	0	1	0.630412101746	None	None	None	None	1
1.7	2015_Jul_29_1302	s	s	9	2	SIC	392	RC	2	1	23VO	1	0	0.988096952438	281.0	384.0	281	378	1
1.7	2015_Jul_29_1302	s	s	9	2	SIC	393	RC	2	0	23VC	1	0	0.712015151978	236.0	144.0	238	148	1
1.7	2015_Jul_29_1302	s	s	9	2	SIC	394	RC	1	2	23MD	1	0	0.611453056335	442.0	361.0	435	357	1
1.7	2015_Jul_29_1302	s	s	9	2	SIC	395	ABS	2	0	24VC	0	1	0.623195171356	None	None	None	None	1
1.7	2015_Jul_29_1302	s	s	9	2	SIC	396	RC	1	1	23MO	0	1	0.564367055893	264.0	13.0	None	None	0
1.7	2015_Jul_29_1302	s	s	9	2	SIC	397	RC	0	1	23RO	0	1	3.43641495705	-73.0	59.0	None	None	0
1.7	2015_Jul_29_1302	s	s	9	2	SIC	398	RC	2	2	23VD	1	0	0.865715026855	6.0	-131.0	10	-130	1
1.7	2015_Jul_29_1302	s	s	9	2	SIC	399	ABS	0	2	24RD	0	1	4.92660784721	None	None	None	None	1
1.7	2015_Jul_29_1302	s	s	9	2	SIC	400	RC	1	0	23MC	0	1	1.02342510223	-93.0	-347.0	None	None	0
1.7	2015_Jul_29_1302	s	s	9	2	SIC	401	RC	2	2	23VD	1	0	1.0181889534	-490.0	-162.0	-486	-163	1
1.7	2015_Jul_29_1302	s	s	9	2	SIC	402	RC	2	0	23VC	1	0	5.87950491905	139.0	103.0	138	99	1
1.7	2015_Jul_29_1302	s	s	9	2	SIC	403	ABS	1	0	24MC	0	1	0.950094938278	None	None	None	None	1
1.7	2015_Jul_29_1302	s	s	9	2	SIC	404	ABS	1	2	24MD	0	1	5.30272483826	None	None	None	None	1
1.7	2015_Jul_29_1302	s	s	9	2	SIC	405	ABS	0	1	24RO	0	1	1.69823789597	None	None	None	None	1
1.7	2015_Jul_29_1302	s	s	9	2	SIC	406	RC	1	2	23MD	1	0	18.8181622028	304.0	399.0	311	399	1
1.7	2015_Jul_29_1302	s	s	9	2	SIC	407	ABS	2	0	24VC	0	1	0.729211091995	None	None	None	None	1
1.7	2015_Jul_29_1302	s	s	9	2	SIC	408	ABS	2	2	24VD	0	1	0.634999990463	None	None	None	None	1
1.7	2015_Jul_29_1302	s	s	9	2	SIC	409	RC	0	2	23RD	1	0	0.817566871643	308.0	-189.0	306	-189	1
1.7	2015_Jul_29_1302	s	s	9	2	SIC	410	RC	1	1	23MO	1	0	1.87095212936	-487.0	203.0	-482	194	1
1.7	2015_Jul_29_1302	s	s	9	2	SIC	411	RC	0	1	23RO	0	1	0.453241109848	134.0	-254.0	None	None	0
1.7	2015_Jul_29_1302	s	s	9	2	SIC	412	RC	2	1	23VO	0	1	1.4588561058	-96.0	12.0	None	None	0
1.7	2015_Jul_29_1302	s	s	9	2	SIC	413	ABS	2	1	24VO	0	1	2.23207592964	None	None	None	None	1
1.7	2015_Jul_29_1302	s	s	9	2	SIC	414	RC	1	0	23MC	0	1	0.740990877151	177.0	-314.0	None	None	0
1.7	2015_Jul_29_1302	s	s	9	2	SIC	415	ABS	1	1	24MO	0	1	0.359000205994	None	None	None	None	1
1.7	2015_Jul_29_1302	s	s	9	2	SIC	416	ABS	0	2	24RD	0	1	0.603306055069	None	None	None	None	1
1.7	2015_Jul_29_1302	s	s	9	2	SIC	417	ABS	1	2	24MD	0	1	0.00902795791626	None	None	None	None	1
1.7	2015_Jul_29_1302	s	s	9	2	SIC	418	RC	2	0	23VC	0	1	0.894069910049	-201.0	359.0	None	None	0
1.7	2015_Jul_29_1302	s	s	9	2	SIC	419	ABS	1	1	24MO	0	1	0.477979898453	None	None	None	None	1
1.7	2015_Jul_29_1302	s	s	9	2	SIC	420	RC	2	2	23VD	1	0	0.599671125412	-227.0	-202.0	-225	-201	1
1.7	2015_Jul_29_1302	s	s	9	2	SIC	421	RC	1	2	23MD	1	0	0.682075977325	502.0	-57.0	501	-56	1
1.7	2015_Jul_29_1302	s	s	9	2	SIC	422	RC	0	1	23RO	1	0	1.19996595383	535.0	69.0	534	69	1
1.7	2015_Jul_29_1302	s	s	9	2	SIC	423	ABS	2	1	24VO	0	1	0.59570813179	None	None	None	None	1
1.7	2015_Jul_29_1302	s	s	9	2	SIC	424	ABS	1	0	24MC	0	1	0.758589982986	None	None	None	None	1
1.7	2015_Jul_29_1302	s	s	9	2	SIC	425	ABS	0	2	24RD	0	1	0.77114200592	None	None	None	None	1
1.7	2015_Jul_29_1302	s	s	9	2	SIC	426	RC	1	1	23MO	0	1	1.3248000145	-174.0	328.0	None	None	0
1.7	2015_Jul_29_1302	s	s	9	2	SIC	427	RC	0	2	23RD	1	0	0.735165119171	-19.0	258.0	-19	262	1
1.7	2015_Jul_29_1302	s	s	9	2	SIC	428	RC	1	0	23MC	1	0	1.16468906403	383.0	-220.0	-436	360	0
1.7	2015_Jul_29_1302	s	s	9	2	SIC	429	ABS	2	2	24VD	0	1	0.611452102661	None	None	None	None	1
1.7	2015_Jul_29_1302	s	s	9	2	SIC	430	ABS	0	1	24RO	0	1	0.258352041245	None	None	None	None	1
1.7	2015_Jul_29_1302	s	s	9	2	SIC	431	ABS	2	0	24VC	0	1	0.835016965866	None	None	None	None	1
1.7	2015_Jul_29_1302	s	s	9	2	SIC	432	RC	2	1	23VO	0	1	0.22300696373	197.0	168.0	None	None	0
1.7	2015_Jul_29_1302	s	s	9	2	SIC	433	RC	0	1	23RO	0	1	0.222993135452	6.0	144.0	None	None	0
1.7	2015_Jul_29_1302	s	s	9	2	SIC	434	RC	1	1	23MO	0	1	0.217959880829	524.0	-273.0	None	None	0
1.7	2015_Jul_29_1302	s	s	9	2	SIC	435	ABS	0	2	24RD	0	1	0.242006063461	None	None	None	None	1
1.7	2015_Jul_29_1302	s	s	9	2	SIC	436	ABS	1	1	24MO	0	1	0.234735012054	None	None	None	None	1
1.7	2015_Jul_29_1302	s	s	9	2	SIC	437	ABS	0	1	24RO	0	1	0.0112321376801	None	None	None	None	1
1.7	2015_Jul_29_1302	s	s	9	2	SIC	438	ABS	2	1	24VO	0	1	0.538167953491	None	None	None	None	1
1.7	2015_Jul_29_1302	s	s	9	2	SIC	439	RC	0	2	23RD	0	1	0.0228891372681	-47.0	-200.0	None	None	0
1.7	2015_Jul_29_1302	s	s	9	2	SIC	440	ABS	1	2	24MD	0	1	0.223029851913	None	None	None	None	1
1.7	2015_Jul_29_1302	s	s	9	2	SIC	441	ABS	2	0	24VC	0	1	0.0910940170288	None	None	None	None	1
1.7	2015_Jul_29_1302	s	s	9	2	SIC	442	RC	2	1	23VO	0	1	0.348901033401	74.0	-278.0	None	None	0
1.7	2015_Jul_29_1302	s	s	9	2	SIC	443	ABS	2	2	24VD	0	1	0.376044988632	None	None	None	None	1
1.7	2015_Jul_29_1302	s	s	9	2	SIC	444	RC	1	2	23MD	0	1	0.196552038193	-268.0	-219.0	None	None	0
1.7	2015_Jul_29_1302	s	s	9	2	SIC	445	ABS	1	0	24MC	0	1	0.759169101715	None	None	None	None	1
1.7	2015_Jul_29_1302	s	s	9	2	SIC	446	RC	1	0	23MC	0	1	0.207529067993	334.0	-109.0	None	None	0
1.7	2015_Jul_29_1302	s	s	9	2	SIC	447	RC	2	0	23VC	0	1	0.208847045898	462.0	63.0	None	None	0
1.7	2015_Jul_29_1302	s	s	9	2	SIC	448	RC	2	2	23VD	0	1	9.3936920166e-05	-426.0	-186.0	None	None	0
1.7	2015_Jul_29_1302	s	s	9	2	SIC	449	ABS	1	1	24MO	0	1	0.067314863205	None	None	None	None	1
1.7	2015_Jul_29_1302	s	s	9	2	SIC	450	RC	1	2	23MD	0	1	0.16113781929	-74.0	-2.0	None	None	0
1.7	2015_Jul_29_1302	s	s	9	2	SIC	451	RC	0	2	23RD	0	1	0.747820854187	-88.0	395.0	None	None	0
1.7	2015_Jul_29_1302	s	s	9	2	SIC	452	RC	2	1	23VO	0	1	0.364320039749	-228.0	238.0	None	None	0
1.7	2015_Jul_29_1302	s	s	9	2	SIC	453	ABS	0	2	24RD	0	1	0.0737068653107	None	None	None	None	1
1.7	2015_Jul_29_1302	s	s	9	2	SIC	454	RC	2	0	23VC	0	1	0.199440002441	176.0	-148.0	None	None	0
1.7	2015_Jul_29_1302	s	s	9	2	SIC	455	ABS	2	1	24VO	0	1	0.505429983139	None	None	None	None	1
1.7	2015_Jul_29_1302	s	s	9	2	SIC	456	ABS	2	0	24VC	0	1	0.473989009857	None	None	None	None	1
1.7	2015_Jul_29_1302	s	s	9	2	SIC	457	RC	1	1	23MO	0	1	0.51228094101	-389.0	-48.0	None	None	0
1.7	2015_Jul_29_1302	s	s	9	2	SIC	458	RC	0	1	23RO	0	1	0.505465984344	-260.0	-391.0	None	None	0
1.7	2015_Jul_29_1302	s	s	9	2	SIC	459	ABS	1	0	24MC	0	1	0.535764932632	None	None	None	None	1
1.7	2015_Jul_29_1302	s	s	9	2	SIC	460	RC	1	0	23MC	0	1	0.773652076721	-101.0	85.0	None	None	0
1.7	2015_Jul_29_1302	s	s	9	2	SIC	461	ABS	2	2	24VD	0	1	0.756537914276	None	None	None	None	1
1.7	2015_Jul_29_1302	s	s	9	2	SIC	462	ABS	0	1	24RO	0	1	0.711590051651	None	None	None	None	1
1.7	2015_Jul_29_1302	s	s	9	2	SIC	463	RC	2	2	23VD	0	1	0.105195999146	-258.0	-91.0	None	None	0
1.7	2015_Jul_29_1302	s	s	9	2	SIC	464	ABS	1	2	24MD	0	1	0.517269849777	None	None	None	None	1
1.7	2015_Jul_29_1302	s	s	9	2	SIC	465	ABS	0	1	24RO	0	1	0.747620105743	None	None	None	None	1
1.7	2015_Jul_29_1302	s	s	9	2	SIC	466	RC	0	2	23RD	0	1	0.385093927383	-288.0	-402.0	None	None	0
1.7	2015_Jul_29_1302	s	s	9	2	SIC	467	ABS	1	0	24MC	0	1	0.222946166992	None	None	None	None	1
1.7	2015_Jul_29_1302	s	s	9	2	SIC	468	RC	2	1	23VO	0	1	0.646749973297	91.0	-412.0	None	None	0
1.7	2015_Jul_29_1302	s	s	9	2	SIC	469	RC	1	0	23MC	0	1	0.587918996811	-245.0	302.0	None	None	0
1.7	2015_Jul_29_1302	s	s	9	2	SIC	470	RC	2	0	23VC	0	1	0.466835021973	-168.0	187.0	None	None	0
1.7	2015_Jul_29_1302	s	s	9	2	SIC	471	ABS	0	2	24RD	0	1	0.479230880737	None	None	None	None	1
1.7	2015_Jul_29_1302	s	s	9	2	SIC	472	ABS	2	1	24VO	0	1	0.234735965729	None	None	None	None	1
1.7	2015_Jul_29_1302	s	s	9	2	SIC	473	ABS	2	2	24VD	0	1	0.667814970016	None	None	None	None	1
1.7	2015_Jul_29_1302	s	s	9	2	SIC	474	RC	1	1	23MO	0	1	0.270182132721	-41.0	-358.0	None	None	0
1.7	2015_Jul_29_1302	s	s	9	2	SIC	475	RC	1	2	23MD	0	1	0.340814828873	-309.0	268.0	None	None	0
1.7	2015_Jul_29_1302	s	s	9	2	SIC	476	ABS	2	0	24VC	0	1	0.372210979462	None	None	None	None	1
1.7	2015_Jul_29_1302	s	s	9	2	SIC	477	RC	0	1	23RO	0	1	0.794373989105	290.0	143.0	None	None	0
1.7	2015_Jul_29_1302	s	s	9	2	SIC	478	RC	2	2	23VD	0	1	0.678913831711	-412.0	277.0	None	None	0
1.7	2015_Jul_29_1302	s	s	9	2	SIC	479	ABS	1	2	24MD	0	1	1.023416996	None	None	None	None	1
1.7	2015_Jul_29_1302	s	s	9	2	SIC	480	ABS	1	1	24MO	0	1	0.899835109711	None	None	None	None	1
1.7	2015_Jul_29_1302	s	s	9	2	SIC	481	RC	2	2	23VD	0	1	0.677346944809	304.0	72.0	None	None	0
1.7	2015_Jul_29_1302	s	s	9	2	SIC	482	RC	2	1	23VO	0	1	1.02350091934	-139.0	-82.0	None	None	0
1.7	2015_Jul_29_1302	s	s	9	2	SIC	483	RC	0	1	23RO	0	1	1.37197613716	-76.0	51.0	None	None	0
1.7	2015_Jul_29_1302	s	s	9	2	SIC	484	RC	1	2	23MD	0	1	0.870805025101	399.0	-134.0	None	None	0
1.7	2015_Jul_29_1302	s	s	9	2	SIC	485	RC	1	0	23MC	0	1	0.900418043137	-181.0	-374.0	None	None	0
1.7	2015_Jul_29_1302	s	s	9	2	SIC	486	ABS	1	1	24MO	0	1	2.11557483673	None	None	None	None	1
1.7	2015_Jul_29_1302	s	s	9	2	SIC	487	RC	1	1	23MO	0	1	0.503088951111	-416.0	46.0	None	None	0
1.7	2015_Jul_29_1302	s	s	9	2	SIC	488	ABS	1	0	24MC	0	1	0.42305803299	None	None	None	None	1
1.7	2015_Jul_29_1302	s	s	9	2	SIC	489	RC	0	2	23RD	0	1	0.491281986237	-368.0	274.0	None	None	0
1.7	2015_Jul_29_1302	s	s	9	2	SIC	490	RC	2	0	23VC	0	1	0.246562957764	191.0	-16.0	None	None	0
1.7	2015_Jul_29_1302	s	s	9	2	SIC	491	ABS	2	0	24VC	0	1	0.434882879257	None	None	None	None	1
1.7	2015_Jul_29_1302	s	s	9	2	SIC	492	ABS	2	1	24VO	0	1	0.253266096115	None	None	None	None	1
1.7	2015_Jul_29_1302	s	s	9	2	SIC	493	ABS	0	2	24RD	0	1	0.12880396843	None	None	None	None	1
1.7	2015_Jul_29_1302	s	s	9	2	SIC	494	ABS	1	2	24MD	0	1	0.031681060791	None	None	None	None	1
1.7	2015_Jul_29_1302	s	s	9	2	SIC	495	ABS	2	2	24VD	0	1	0.187687158585	None	None	None	None	1
1.7	2015_Jul_29_1302	s	s	9	2	SIC	496	ABS	0	1	24RO	0	1	0.111329078674	None	None	None	None	1
1.7	2015_Jul_29_1302	s	s	9	2	SIC	497	ABS	2	0	24VC	0	1	0.924387216568	None	None	None	None	1
1.7	2015_Jul_29_1302	s	s	9	2	SIC	498	RC	2	1	23VO	0	1	0.423110961914	93.0	-300.0	None	None	0
1.7	2015_Jul_29_1302	s	s	9	2	SIC	499	ABS	1	2	24MD	0	1	0.653522014618	None	None	None	None	1
1.7	2015_Jul_29_1302	s	s	9	2	SIC	500	ABS	0	1	24RO	0	1	0.540821075439	None	None	None	None	1
1.7	2015_Jul_29_1302	s	s	9	2	SIC	501	RC	0	2	23RD	0	1	0.576142072678	-64.0	-13.0	None	None	0
1.7	2015_Jul_29_1302	s	s	9	2	SIC	502	ABS	2	1	24VO	0	1	0.749027013779	None	None	None	None	1
1.7	2015_Jul_29_1302	s	s	9	2	SIC	503	ABS	1	0	24MC	0	1	0.634921073914	None	None	None	None	1
1.7	2015_Jul_29_1302	s	s	9	2	SIC	504	RC	0	1	23RO	0	1	0.717330217361	430.0	82.0	None	None	0
1.7	2015_Jul_29_1302	s	s	9	2	SIC	505	RC	1	1	23MO	0	1	0.265091896057	379.0	183.0	None	None	0
1.7	2015_Jul_29_1302	s	s	9	2	SIC	506	RC	2	0	23VC	0	1	0.720992088318	-187.0	-60.0	None	None	0
1.7	2015_Jul_29_1302	s	s	9	2	SIC	507	ABS	2	2	24VD	0	1	0.917511940002	None	None	None	None	1
1.7	2015_Jul_29_1302	s	s	9	2	SIC	508	ABS	1	1	24MO	0	1	0.811518907547	None	None	None	None	1
1.7	2015_Jul_29_1302	s	s	9	2	SIC	509	ABS	0	2	24RD	0	1	0.629348993301	None	None	None	None	1
1.7	2015_Jul_29_1302	s	s	9	2	SIC	510	RC	1	2	23MD	0	1	1.11758613586	296.0	394.0	None	None	0
1.7	2015_Jul_29_1302	s	s	9	2	SIC	511	RC	1	0	23MC	0	1	1.20747709274	-57.0	-178.0	None	None	0
1.7	2015_Jul_29_1302	s	s	9	2	SIC	512	RC	2	2	23VD	1	0	1.12620997429	268.0	81.0	267	71	1
1.7	2015_Jul_29_1302	s	s	9	2	SIC	513	RC	1	2	23MD	1	0	0.799705028534	269.0	283.0	263	279	1
1.7	2015_Jul_29_1302	s	s	9	2	SIC	514	ABS	2	0	24VC	0	1	1.31303882599	None	None	None	None	1
1.7	2015_Jul_29_1302	s	s	9	2	SIC	515	RC	2	2	23VD	0	1	0.293523073196	-471.0	-262.0	None	None	0
1.7	2015_Jul_29_1302	s	s	9	2	SIC	516	RC	2	0	23VC	0	1	0.100464105606	365.0	36.0	None	None	0
1.7	2015_Jul_29_1302	s	s	9	2	SIC	517	ABS	1	2	24MD	0	1	12.3913619518	None	None	None	None	1
1.7	2015_Jul_29_1302	s	s	9	2	SIC	518	ABS	0	1	24RO	0	1	0.865162849426	None	None	None	None	1
1.7	2015_Jul_29_1302	s	s	9	2	SIC	519	ABS	2	2	24VD	0	1	1.37639093399	None	None	None	None	1
1.7	2015_Jul_29_1302	s	s	9	2	SIC	520	RC	1	0	23MC	1	0	9.30646204948	105.0	-302.0	56	54	0
1.7	2015_Jul_29_1302	s	s	9	2	SIC	521	RC	0	2	23RD	0	1	1.38312411308	-190.0	278.0	None	None	0
1.7	2015_Jul_29_1302	s	s	9	2	SIC	522	RC	2	1	23VO	0	1	0.587812185287	137.0	52.0	None	None	0
1.7	2015_Jul_29_1302	s	s	9	2	SIC	523	ABS	0	2	24RD	0	1	0.764508962631	None	None	None	None	1
1.7	2015_Jul_29_1302	s	s	9	2	SIC	524	RC	0	1	23RO	0	1	0.0464971065521	379.0	-195.0	None	None	0
1.7	2015_Jul_29_1302	s	s	9	2	SIC	525	ABS	1	1	24MO	0	1	0.517135858536	None	None	None	None	1
1.7	2015_Jul_29_1302	s	s	9	2	SIC	526	ABS	2	1	24VO	0	1	1.11757087708	None	None	None	None	1
1.7	2015_Jul_29_1302	s	s	9	2	SIC	527	RC	1	1	23MO	0	1	1.15291190147	475.0	243.0	None	None	0
1.7	2015_Jul_29_1302	s	s	9	2	SIC	528	ABS	1	0	24MC	0	1	1.30002498627	None	None	None	None	1
1.7	2015_Jul_29_1302	s	s	9	2	SIC	529	ABS	1	2	24MD	0	1	1.66698408127	None	None	None	None	1
1.7	2015_Jul_29_1302	s	s	9	2	SIC	530	RC	1	2	23MD	0	1	4.04412388802	-286.0	18.0	None	None	0
1.7	2015_Jul_29_1302	s	s	9	2	SIC	531	ABS	1	1	24MO	0	1	2.81244397163	None	None	None	None	1
1.7	2015_Jul_29_1302	s	s	9	2	SIC	532	RC	0	1	23RO	0	1	0.358896017075	-415.0	122.0	None	None	0
1.7	2015_Jul_29_1302	s	s	9	2	SIC	533	ABS	0	1	24RO	0	1	0.0788788795471	None	None	None	None	1
1.7	2015_Jul_29_1302	s	s	9	2	SIC	534	RC	0	2	23RD	0	1	0.301962852478	403.0	30.0	None	None	0
1.7	2015_Jul_29_1302	s	s	9	2	SIC	535	ABS	0	2	24RD	0	1	0.161480903625	None	None	None	None	1
1.7	2015_Jul_29_1302	s	s	9	2	SIC	536	ABS	2	0	24VC	0	1	0.114603996277	None	None	None	None	1
1.7	2015_Jul_29_1302	s	s	9	2	SIC	537	RC	1	0	23MC	0	1	0.246850967407	-335.0	-327.0	None	None	0
1.7	2015_Jul_29_1302	s	s	9	2	SIC	538	RC	2	1	23VO	0	1	1.06676197052	411.0	370.0	None	None	0
1.7	2015_Jul_29_1302	s	s	9	2	SIC	539	ABS	2	1	24VO	0	1	1.07038593292	None	None	None	None	1
1.7	2015_Jul_29_1302	s	s	9	2	SIC	540	ABS	1	0	24MC	0	1	0.59333896637	None	None	None	None	1
1.7	2015_Jul_29_1302	s	s	9	2	SIC	541	ABS	2	2	24VD	0	1	1.43587779999	None	None	None	None	1
1.7	2015_Jul_29_1302	s	s	9	2	SIC	542	RC	2	2	23VD	0	1	0.324993133545	84.0	-168.0	None	None	0
1.7	2015_Jul_29_1302	s	s	9	2	SIC	543	RC	2	0	23VC	0	1	0.207075834274	37.0	-294.0	None	None	0
1.7	2015_Jul_29_1302	s	s	9	2	SIC	544	RC	1	1	23MO	0	1	0.100333929062	-510.0	244.0	None	None	0
1.7	2015_Jul_29_1302	s	s	9	2	SIC	545	RC	2	1	23VO	0	1	0.24197101593	-205.0	369.0	None	None	0
1.7	2015_Jul_29_1302	s	s	9	2	SIC	546	ABS	1	0	24MC	0	1	0.293540000916	None	None	None	None	1
1.7	2015_Jul_29_1302	s	s	9	2	SIC	547	ABS	1	2	24MD	0	1	0.473882913589	None	None	None	None	1
1.7	2015_Jul_29_1302	s	s	9	2	SIC	548	ABS	0	2	24RD	0	1	0.1827480793	None	None	None	None	1
1.7	2015_Jul_29_1302	s	s	9	2	SIC	549	ABS	0	1	24RO	0	1	0.137096881866	None	None	None	None	1
1.7	2015_Jul_29_1302	s	s	9	2	SIC	550	RC	1	1	23MO	0	1	0.317348003387	333.0	-360.0	None	None	0
1.7	2015_Jul_29_1302	s	s	9	2	SIC	551	RC	0	1	23RO	0	1	0.583206176758	-393.0	122.0	None	None	0
1.7	2015_Jul_29_1302	s	s	9	2	SIC	552	ABS	2	1	24VO	0	1	0.242806911469	None	None	None	None	1
1.7	2015_Jul_29_1302	s	s	9	2	SIC	553	RC	2	0	23VC	0	1	1.65088796616	494.0	371.0	None	None	0
1.7	2015_Jul_29_1302	s	s	9	2	SIC	554	RC	1	0	23MC	0	1	1.37668919563	230.0	-91.0	None	None	0
1.7	2015_Jul_29_1302	s	s	9	2	SIC	555	ABS	1	1	24MO	0	1	1.49944996834	None	None	None	None	1
1.7	2015_Jul_29_1302	s	s	9	2	SIC	556	RC	1	2	23MD	0	1	2.3180911541	485.0	-176.0	None	None	0
1.7	2015_Jul_29_1302	s	s	9	2	SIC	557	RC	0	2	23RD	0	1	0.571440935135	-415.0	12.0	None	None	0
1.7	2015_Jul_29_1302	s	s	9	2	SIC	558	RC	2	2	23VD	0	1	0.222984075546	190.0	-376.0	None	None	0
1.7	2015_Jul_29_1302	s	s	9	2	SIC	559	ABS	2	0	24VC	0	1	0.500674962997	None	None	None	None	1
1.7	2015_Jul_29_1302	s	s	9	2	SIC	560	ABS	2	2	24VD	0	1	0.688207149506	None	None	None	None	1
1.7	2015_Jul_29_1302	s	s	9	2	SIC	561	ABS	0	2	24RD	0	1	0.646679878235	None	None	None	None	1
1.7	2015_Jul_29_1302	s	s	9	2	SIC	562	RC	2	1	23VO	0	1	0.234851121902	524.0	-258.0	None	None	0
1.7	2015_Jul_29_1302	s	s	9	2	SIC	563	RC	1	2	23MD	0	1	0.559458017349	439.0	-253.0	None	None	0
1.7	2015_Jul_29_1302	s	s	9	2	SIC	564	RC	2	2	23VD	0	1	0.299701929092	-238.0	-357.0	None	None	0
1.7	2015_Jul_29_1302	s	s	9	2	SIC	565	RC	1	1	23MO	0	1	0.923950910568	-148.0	-254.0	None	None	0
1.7	2015_Jul_29_1302	s	s	9	2	SIC	566	ABS	2	1	24VO	0	1	1.01171398163	None	None	None	None	1
1.7	2015_Jul_29_1302	s	s	9	2	SIC	567	ABS	2	0	24VC	0	1	1.02346420288	None	None	None	None	1
1.7	2015_Jul_29_1302	s	s	9	2	SIC	568	ABS	1	0	24MC	0	1	0.0445530414581	None	None	None	None	1
1.7	2015_Jul_29_1302	s	s	9	2	SIC	569	RC	0	2	23RD	0	1	0.564298868179	173.0	-361.0	None	None	0
1.7	2015_Jul_29_1302	s	s	9	2	SIC	570	ABS	1	1	24MO	0	1	0.502076148987	None	None	None	None	1
1.7	2015_Jul_29_1302	s	s	9	2	SIC	571	RC	1	0	23MC	0	1	0.500379085541	430.0	202.0	None	None	0
1.7	2015_Jul_29_1302	s	s	9	2	SIC	572	ABS	2	2	24VD	0	1	1.95036292076	None	None	None	None	1
1.7	2015_Jul_29_1302	s	s	9	2	SIC	573	ABS	1	2	24MD	0	1	4.44868803024	None	None	None	None	1
1.7	2015_Jul_29_1302	s	s	9	2	SIC	574	RC	2	0	23VC	0	1	2.56534719467	164.0	188.0	None	None	0
1.7	2015_Jul_29_1302	s	s	9	2	SIC	575	RC	0	1	23RO	0	1	1.3295238018	-223.0	-111.0	None	None	0
1.7	2015_Jul_29_1302	s	s	9	2	SIC	576	ABS	0	1	24RO	0	1	0.266978025436	None	None	None	None	1
1.7	2015_Jul_29_1302	s	s	9	2	SIC	577	ABS	2	0	24VC	0	1	2.35350489616	None	None	None	None	1
1.7	2015_Jul_29_1302	s	s	9	2	SIC	578	RC	2	0	23VC	0	1	0.199491977692	287.0	306.0	None	None	0
1.7	2015_Jul_29_1302	s	s	9	2	SIC	579	RC	0	1	23RO	0	1	0.900254011154	116.0	-67.0	None	None	0
1.7	2015_Jul_29_1302	s	s	9	2	SIC	580	ABS	0	1	24RO	0	1	0.417595863342	None	None	None	None	1
1.7	2015_Jul_29_1302	s	s	9	2	SIC	581	ABS	1	2	24MD	0	1	2.0207529068	None	None	None	None	1
1.7	2015_Jul_29_1302	s	s	9	2	SIC	582	ABS	1	0	24MC	0	1	1.90621399879	None	None	None	None	1
1.7	2015_Jul_29_1302	s	s	9	2	SIC	583	ABS	0	2	24RD	0	1	0.682003974915	None	None	None	None	1
1.7	2015_Jul_29_1302	s	s	9	2	SIC	584	RC	1	1	23MO	0	1	0.411372184753	2.0	-28.0	None	None	0
1.7	2015_Jul_29_1302	s	s	9	2	SIC	585	RC	1	2	23MD	0	1	0.340735912323	105.0	72.0	None	None	0
1.7	2015_Jul_29_1302	s	s	9	2	SIC	586	RC	1	0	23MC	0	1	12.602132082	132.0	-219.0	None	None	0
1.7	2015_Jul_29_1302	s	s	9	2	SIC	587	ABS	1	1	24MO	0	1	1.15962004662	None	None	None	None	1
1.7	2015_Jul_29_1302	s	s	9	2	SIC	588	RC	0	2	23RD	0	1	1.33548116684	29.0	-175.0	None	None	0
1.7	2015_Jul_29_1302	s	s	9	2	SIC	589	ABS	2	2	24VD	0	1	0.705596923828	None	None	None	None	1
1.7	2015_Jul_29_1302	s	s	9	2	SIC	590	RC	2	1	23VO	0	1	0.490849971771	-469.0	-63.0	None	None	0
1.7	2015_Jul_29_1302	s	s	9	2	SIC	591	RC	2	2	23VD	0	1	0.796371936798	455.0	240.0	None	None	0
1.7	2015_Jul_29_1302	s	s	9	2	SIC	592	ABS	2	1	24VO	0	1	0.34052491188	None	None	None	None	1
